,id,age,sex,cued,block,trial,trialinblock,efflev,rewlev,calc,corAns,option1,option2,option3,tstart,ITI1Time,probTime,respTime,selectTime,ITI2Time,fbTime,ITI3Time,key_press,chosenAns,RT,acc,feedback,total_points,cuescr,cuecor,cuezyg,cuetime,probscr,probcor,probzyg,probtime,fbscr,fbcor,fbzyg,fbtime,probtime_c,cuetime_c,fbtime_c
0,11,20,f,0,Practice,,0,1,0,4 + 1 + 9 + 1 + 1,16,16,14,15,68.82929350000018,,68.8292957000001,74.01539730000013,79.67340039999999,79.67340690000015,81.1909955000001,82.21600009999997,q,16.0,5.65800309999986,1,Correct,0,,,,,,,,,,,,,,,
1,11,20,f,0,Practice,,1,1,0,3 + 1 + 1 + 8 - 1,12,11,12,10,83.73342690000004,,83.73343,88.7570111,90.11347750000004,90.11348420000012,91.63053450000008,92.64826170000016,w,12.0,1.3564664000000448,1,Correct,0,,,,,,,,,,,,,,,
2,11,20,f,0,Practice,,2,2,0,8 + 1 + 6 + 1 - 4,12,11,12,10,94.16634930000008,,94.16635429999997,99.18652629999995,100.42544610000004,100.42545240000004,101.94247670000004,102.96077549999995,w,12.0,1.238919800000076,1,Correct,0,,,,,,,,,,,,,,,
3,11,20,f,0,Practice,,3,2,0,9 + 4 - 6 + 1 - 1,7,5,6,7,104.47805830000016,,104.47806579999995,109.4977996,110.8892171,110.88922350000009,112.40558940000004,113.42286720000016,e,7.0,1.3914174999999886,1,Correct,0,,,,,,,,,,,,,,,
4,11,20,f,0,Practice,,4,3,0,9 + 3 - 5 + 6 + 7,20,20,21,22,114.93950480000012,,114.93950770000016,119.9585383000001,121.24920599999996,121.24921240000003,122.76565990000016,123.78286460000004,q,20.0,1.290667699999858,1,Correct,0,,,,,,,,,,,,,,,
5,11,20,f,0,Practice,,5,3,0,2 + 1 + 9 - 7 + 6,11,10,11,9,125.29985080000006,,125.2998536,130.31888709999998,131.56941140000004,131.56941800000004,133.08645650000017,134.1046136,w,11.0,1.250524300000052,1,Correct,0,,,,,,,,,,,,,,,
6,11,20,f,0,Practice,,6,4,0,4 + 8 + 5 - 3 + 7,21,21,22,23,135.62202610000008,,135.62202930000012,140.64318520000006,141.84137840000017,141.8413845,143.3594392,144.37752160000014,q,21.0,1.1981932000001052,1,Correct,0,,,,,,,,,,,,,,,
7,11,20,f,0,Practice,,7,4,0,5 + 8 - 4 + 6 + 9,24,22,23,24,145.89514120000013,,145.89514430000008,150.91464740000015,152.13720450000005,152.13721099999998,153.65415589999998,154.67152310000006,e,24.0,1.2225570999999036,1,Correct,0,,,,,,,,,,,,,,,
8,11,20,f,1,0,0.0,0,3,high,9 - 1 + 5 - 6 + 8,15,15,17,14,345.2387652,347.2919881,348.80727580000007,353.8261202000001,356.97465510000006,356.9746605,358.4913249000001,359.5085353000002,q,15.0,3.1485348999999587,1,+10,10,3.913133979385936,1.4041923492216126,0.7652629503887658,146941.0,-45.8891789361135,0.1770835485810638,2.282930393398824,150475.0,-7.876606686598922,-0.47335789208631507,-0.238853841398595,160158.0,348.81083378333346,345.2768337833335,358.49383378333346
9,11,20,f,1,0,1.0,1,1,low,2 + 1 + 1 + 9 - 1,12,12,11,13,361.0252919,363.0524451000001,364.567775,369.58621160000007,370.8706953000001,370.8707008000001,372.3878333,373.4048991,q,12.0,1.2844837000000098,1,+1,11,-8.250106368231634,0.19296212903829657,0.3818215654780879,162702.0,11.114261274148674,0.407525545853221,0.6198402070225528,166235.0,19.645865674239563,-0.0850747095395441,-0.38853630412968343,174054.0,364.57083378333346,361.03783378333344,372.3898337833335
10,11,20,f,1,0,2.0,2,1,high,8 + 1 + 1 + 1 - 4,7,5,7,8,374.9218144000001,377.00058690000014,378.51553450000006,383.5337979000001,384.8546080000001,384.8546133,386.3722911,387.3897807000001,w,7.0,1.320810100000017,1,+10,21,-0.6563846893415146,-0.7624085196259083,1.0460262428085443,176650.0,-2.794569632103519,0.5930974134523352,0.8356030911305234,180183.0,-18.064022197320483,0.6137858811204095,-0.8007446825056777,188039.0,378.51883378333343,374.9858337833335,386.37483378333343
11,11,20,f,1,0,3.0,3,3,low,4 + 8 - 3 + 5 - 1,13,14,13,12,388.90639310000006,390.94217130000015,392.4573782,397.47635950000017,398.7985976,398.7986031,400.3152557000001,401.33222190000015,w,13.0,1.3222380999998222,1,+1,22,-13.695872260102881,0.13561424061264038,0.29492883454693963,190591.0,18.924677222761574,0.9294051548961457,-0.9055044671356556,194126.0,-18.60266508027521,-0.9291251687747462,0.7745618126079199,201981.0,392.4618337833335,388.92683378333345,400.31683378333344
12,11,20,f,1,0,4.0,4,1,high,6 + 1 + 1 + 7 - 1,14,12,13,14,402.8483454,404.87280580000015,406.38812270000017,411.4080881,412.6866906,412.6866966,414.2033814000001,415.2208293000001,e,14.0,1.2786025000000336,1,+10,32,14.925869741496598,0.3173400886846669,-0.578337906083096,204522.0,24.727665815326,0.41224195445282463,0.5792467727834825,208057.0,-0.7652934078065705,-0.6881793536288647,-0.06120783036139166,215870.0,406.39283378333346,402.8578337833335,414.20583378333345
13,11,20,f,1,0,5.0,5,3,high,6 - 1 + 7 - 8 + 9,13,13,11,12,416.7376064,418.7624264000001,420.2771713,425.295654,426.7666327000002,426.76663830000007,428.2836166,429.3009843,q,13.0,1.4709787000001595,1,+10,42,1.7448921107687472,-0.11242399187729202,0.896349087766886,218412.0,-9.912997228544437,0.8109145338378942,0.4874666431686596,221945.0,12.815720531368406,0.09460767041724694,-0.7846219063691446,229950.0,420.2808337833335,416.7478337833335,428.2858337833335
14,11,20,f,1,0,6.0,6,4,high,2 + 9 - 3 + 5 + 8,21,23,21,22,430.8184341000001,432.87167610000006,434.3869082000001,439.4054381000001,440.46264070000007,440.4626465000001,441.9793446000001,442.99672150000015,w,21.0,1.0572025999999823,1,+10,52,-18.657967304763574,0.17121940835645333,0.23101518868331095,232521.0,-56.78927732232975,0.27072102209597126,0.26037516312644016,236054.0,12.127858317252038,-1.170526552438032,-0.7649225494891905,243646.0,434.3898337833335,430.85683378333346,441.98183378333346
15,11,20,f,1,0,7.0,7,1,low,7 - 1 + 1 + 9 - 1,15,15,13,14,444.5138028000001,446.5417222000001,448.056987,453.0761980000002,454.1506654,454.1506711000002,455.6669668,456.6837565999999,q,15.0,1.0744673999997758,1,+1,53,10.54583026037644,0.579309766243397,-0.41062993644964596,246191.0,39.958552016003466,0.3914807112827061,0.33278221849927014,249725.0,5.3301982859314965,0.20149095910062664,0.007316355314770817,257333.0,448.06083378333346,444.5268337833335,455.6688337833335
16,11,20,f,1,0,8.0,8,2,low,3 + 8 + 1 - 5 + 1,8,6,9,8,458.2007140999999,460.2339704000001,461.7493445999999,466.7676523,467.79850339999984,467.7985091999999,469.31522010000026,470.3322043000003,e,8.0,1.0308510999998362,1,+1,54,-15.078167531833461,0.0895261781951806,0.1330050712237334,259883.0,8.320266437881381,0.7778779007842975,-0.018279248228174616,263417.0,2.6126872262532714,0.06816247539537557,-0.43208866098786736,270981.0,461.7528337833335,458.2188337833335,469.31683378333344
17,11,20,f,1,0,9.0,9,1,low,5 + 6 + 1 + 1 + 1,14,15,16,14,471.8489410000002,473.8761626999999,475.39132400000017,480.4092289999999,481.5745879000001,481.5745938,483.09135419999984,484.1083094999999,e,14.0,1.1653589000002285,1,+1,55,3.756063558418127,0.4377970680446843,0.1266960895604159,273525.0,-4.724544847979638,0.4136465252904742,-0.4366775721526981,277058.0,32.2370299527897,-0.704731919327525,-0.2143498904898724,284757.0,475.39383378333343,471.8608337833334,483.0928337833335
18,11,20,f,1,0,10.0,10,4,high,7 + 8 - 4 + 6 - 5,12,12,11,13,485.62519980000025,487.6508546,489.1663072000001,494.1854212000003,496.3664890999999,496.3664945,497.88319150000007,498.9008640000002,q,12.0,2.1810678999995616,1,+10,65,5.090661558263215,-0.12492626635554771,-1.2100857892368913,287300.0,15.871235301185335,0.3191922726645853,-0.5014260636792534,290834.0,10.252893685081844,-0.9645098174109483,0.2869978556582691,299550.0,489.1698337833335,485.6358337833335,497.8858337833335
19,11,20,f,1,0,11.0,11,3,low,4 + 7 + 1 + 9 - 5,16,18,17,16,500.41758329999993,502.4417182000002,503.9569784999999,508.9754711999999,510.4865408999999,510.48654970000007,512.0030826000002,513.0201489000001,e,16.0,1.5110697000000073,1,+1,66,24.032669113138226,1.0555518654860943,1.4262760428934813,302091.0,-35.46479240794298,0.9990380012361975,0.668165395734535,305624.0,-72.45089673228006,0.14367823654313394,-0.10911263365683954,313669.0,503.95983378333347,500.42683378333345,512.0048337833334
20,11,20,f,1,0,12.0,12,2,low,6 + 1 + 1 + 7 - 9,6,8,6,4,514.5379555,516.5661579000002,518.0814451000001,523.0999120000001,524.318514,524.3185192999999,525.8350761000002,526.8520681999998,w,6.0,1.218601999999919,1,+1,67,2.6118629127401185,0.8587836676835017,0.11083917476826599,316214.0,37.08450321043898,0.09622584541201462,-0.8801224737445557,319749.0,13.782408218912234,-0.9156511629050215,0.11488012546668047,327501.0,518.0848337833335,514.5498337833335,525.8368337833334
21,11,20,f,1,0,13.0,13,1,low,8 + 1 + 5 + 1 + 1,16,15,16,17,528.3689459000002,530.3962728000001,531.9118679000003,536.9312067000001,537.9985160000001,537.9985216,539.5152656,540.5322915000002,w,16.0,1.0673093000000335,1,+1,68,12.016839793831075,0.025893208267934398,-0.48537299862734873,330045.0,-49.46522491530914,0.12958775865073946,0.9283209826597805,333580.0,19.07337104470588,0.5396850645863487,-0.1437284488041377,341181.0,531.9158337833335,528.3808337833335,539.5168337833335
22,11,20,f,1,0,14.0,14,1,low,5 + 9 - 1 + 1 + 1,15,15,17,13,542.0487908999999,544.0724333000003,545.5878981000001,550.6069397000001,551.7184649000001,551.7184702,553.2350897000001,554.2520279,q,15.0,1.11152519999996,1,+1,69,-28.044116754021402,0.21782840477485532,-0.10822103286986007,343721.0,25.51047618915477,-0.0475201404077259,0.1383445661552276,347256.0,2.509155638929915,0.1257866042181508,-0.33887189078070223,354901.0,545.5918337833334,542.0568337833334,553.2368337833335
23,11,20,f,1,0,15.0,15,4,low,6 + 9 - 7 + 8 - 5,11,12,11,13,555.7679094,557.8068152999999,559.3219147,564.3415567000002,569.2384519000002,569.2384576,570.7559974999999,571.7738824000003,w,11.0,4.896895200000017,1,+1,70,-16.026342221012936,1.3279185340139605,-5.798310690907203,357456.0,-14.10291571611087,1.0066605984621262,0.08580558306400166,360989.0,-11.859819319163082,0.49084954480278675,-0.6241855055428642,372422.0,559.3248337833335,555.7918337833335,570.7578337833335
24,11,20,f,1,0,16.0,16,4,low,5 + 7 - 4 - 6 + 9,11,13,11,12,573.2910453,575.3138288,576.8292726,581.8493173000002,586.8664503999998,586.8664532000003,588.3830404,589.4068479000002,,,,0,Too Slow!,70,-24.572749209572006,0.17673174044242046,-1.8752168763344343,374963.0,30.50441136875471,1.0738304762561954,0.9162578070281295,378498.0,-4.476890815187958,0.033296431933915294,4.688643359973911,390056.0,576.8338337833335,573.2988337833335,588.3918337833335
25,11,20,f,1,0,17.0,17,4,high,6 + 5 - 7 + 8 - 9,3,4,3,5,590.9234393000002,592.9498709,594.4649933999999,599.4833192000001,601.4384974,601.4385029,602.9555206999999,603.9740036000003,w,3.0,1.955178199999864,1,+10,80,-7.788312589803665,1.037515609819586,-2.652074197324522,392598.0,-37.22157935974482,0.14362447732418904,1.090989332801553,396132.0,,,,,594.4678337833335,590.9338337833335,
26,11,20,f,1,0,18.0,18,2,high,6 + 1 + 7 + 5 - 1,18,16,17,18,605.4912348000003,607.5765753999999,609.0918890000003,614.1116760999998,615.1743721000003,615.1743780000002,616.6908457,617.7081463,e,18.0,1.0626960000004146,1,+10,90,10.357274264692991,0.904258608058246,-2.6797076568116145,407225.0,2.734704626046746,0.6158372897796021,-1.0272357105148897,410760.0,,,,,609.0958337833334,605.5608337833335,
27,11,20,f,1,0,19.0,19,3,low,3 + 8 - 7 + 1 + 9,14,14,12,13,619.2252011,621.2492201999999,622.7643315999999,627.7839656000001,629.4463961000001,629.4464019000002,630.9638810000001,631.9809383000002,q,14.0,1.6624305000000277,1,+1,91,15.859409453097307,0.5197619600985592,0.14452270366561049,420898.0,16.821264705857075,0.4766768421824805,1.0155041034647274,424432.0,,,,,622.7678337833335,619.2338337833335,
28,11,20,f,1,0,20.0,20,3,low,4 + 1 + 8 + 9 - 5,17,19,18,17,633.4980682,635.5222337999999,637.0375005999999,642.0555370000002,643.0783752000002,643.0783808000001,644.5949331000002,645.6125209000002,e,17.0,1.0228382000000238,1,+1,92,21.162441645352864,1.109734972139933,-1.6447553198629041,435171.0,-2.284699502007661,0.7976691901949158,-1.0317908008116206,438704.0,,,,,637.0398337833335,633.5068337833335,
29,11,20,f,1,0,21.0,21,1,low,2 + 1 + 9 + 1 + 1,14,13,12,14,647.1302407000003,649.1572292000001,650.6725587999999,655.6918146000003,656.8863876999999,656.8863931999999,658.4029340000002,659.4195353999999,e,14.0,1.1945730999996158,1,+1,93,2.674077020810728,0.4869584694779916,-0.36664827091435637,448806.0,-12.710614390889257,0.5443112669974344,0.48641613760657343,452340.0,,,,,650.6758337833335,647.1418337833335,
30,11,20,f,1,0,22.0,22,1,low,4 + 7 + 1 - 1 - 1,10,11,10,9,660.9365556000002,662.9598300000002,664.4750386999999,669.4950042999999,670.4943521999999,670.4943578000002,672.0109694000002,673.0280864000001,w,10.0,0.9993478999999752,1,+1,94,8.297147892463062,0.2773913256140137,0.402431092770124,462608.0,3.0105941218714127,0.44821293828007835,-0.9311464984567248,466143.0,,,,,664.4788337833335,660.9438337833335,
31,11,20,f,1,0,23.0,23,1,low,8 - 1 + 1 + 6 + 1,15,15,14,16,674.5448961000002,676.5684698,678.0841289,683.1022219000001,684.1263987000002,684.1264045000003,685.6430009000001,686.6598583,q,15.0,1.0241768000000775,1,+1,95,-10.93431415227612,0.4697925552951019,-0.022378981025310996,476217.0,-24.111397222902788,0.2701242230701011,-0.22270046490045114,479751.0,,,,,678.0868337833334,674.5528337833334,
32,11,20,f,1,0,24.0,24,4,high,9 + 4 - 6 + 8 + 7,22,21,24,22,688.1765848999999,690.2004763,691.7158978000002,696.7346410999999,697.9423062999999,697.9423115,699.4590781000002,700.4764074,e,22.0,1.207665200000065,1,+10,105,-17.297961242389395,0.08938728613302338,0.21375414152838523,489848.0,11.333880857287447,0.2654192798523862,0.013411120977039115,493383.0,,,,,691.7188337833335,688.1838337833335,
33,11,20,f,1,0,25.0,25,1,low,8 + 1 + 1 + 1 - 3,8,8,6,9,701.9931944999998,704.0191815000003,705.5342666000001,710.5523941000001,711.5663460999999,711.5663514000003,713.0829474000002,714.1003126,q,8.0,1.01395199999979,1,+1,106,-13.24564368385892,0.3288505118018339,-1.8043027554655824,503667.0,-11.464204902580907,0.19622894216676823,-0.49352549400157786,507201.0,,,,,705.5368337833335,702.0028337833335,
34,11,20,f,1,0,26.0,26,1,low,3 + 1 + 9 + 1 + 1,15,15,17,14,715.6171705000002,717.6417633000001,719.1570882999999,724.1752166000001,725.3583039999999,725.3583099000002,726.8750122000001,727.8919965,q,15.0,1.183087399999749,1,+1,107,-2.3030730294865833,0.13115366165393016,-0.1709891124394245,517290.0,25.994985715220594,0.248573396664594,0.039986518528876136,520823.0,,,,,719.1588337833334,715.6258337833334,
35,11,20,f,1,0,27.0,27,1,high,3 + 1 + 8 + 1 + 1,14,14,13,12,729.4087810999999,731.4366382000003,732.9519865000002,737.9704379,739.0784023000001,739.0784082999999,740.5949764000002,741.61319,q,14.0,1.107964400000128,1,+10,117,13.473073485683885,-0.7615197901424766,0.2688334327007107,531085.0,19.94874425773181,-0.30345376503334975,0.12832271387828786,534618.0,,,,,732.9538337833335,729.4208337833335,
36,11,20,f,1,0,28.0,28,1,low,9 + 8 + 1 + 1 - 1,18,18,20,17,743.1299021,745.1579470000001,746.6734644000003,751.6918365000001,752.7422378000001,752.7422430000001,754.2590321000002,755.2759501999999,q,18.0,1.050401299999976,1,+1,118,15.064945763904277,-0.24869643118246731,1.5105292805685808,544806.0,-5.264891303847163,0.5787611500585612,-0.33426615601971266,548340.0,,,,,746.6758337833335,743.1418337833335,
37,11,20,f,1,0,29.0,29,4,high,3 + 9 - 5 + 6 + 8,21,23,21,22,756.7929487000001,758.8194911,760.3347290000002,765.3538974000003,766.6222361,766.6222427000002,768.1388543000003,769.1562460999999,w,21.0,1.268338699999731,1,+10,128,3.58323276417115,0.8326703133182818,0.04851176650666433,558468.0,3.620693356826921,-0.057347126578994434,0.10430149358824137,562002.0,,,,,760.3378337833334,756.8038337833334,
38,11,20,f,1,0,30.0,30,2,high,6 + 8 + 1 + 1 - 7,9,9,8,11,770.6734548,772.7014097000001,774.2166574000003,779.2355474999999,780.1502019,780.1502071999998,781.6670122999999,782.6849052000002,q,9.0,0.9146544000000176,1,+10,138,13.202356680755845,0.37618695228026944,-0.10280895049795769,572349.0,19.83274290959414,0.6230942464625162,0.4222498962540624,575884.0,,,,,774.2198337833335,770.6848337833335,
39,11,20,f,1,0,31.0,31,3,high,4 + 8 - 9 + 1 + 7,11,9,13,11,784.201532,786.2291162000001,787.7444980999999,792.7642525000001,793.9101909999999,793.9101961000001,795.4267315000002,796.4440549999999,e,11.0,1.1459384999998292,1,+10,148,-5.54492504511976,0.6680567709565355,-1.2983076320234193,585877.0,-14.005689740958102,0.763254630636002,-0.41503034819304707,589411.0,,,,,787.7468337833334,784.2128337833334,
40,11,20,f,1,0,32.0,32,1,high,6 + 1 + 8 + 1 - 1,15,15,14,13,797.9610719000002,799.9856113000001,801.5007878000001,806.5201978,807.4862001000001,807.4862054,809.0034028999999,810.0203151999999,q,15.0,0.9660023000001274,1,+10,158,-24.797194724850886,-0.023815887410483683,0.2954139812012633,599633.0,-12.7537757545363,-0.2708617141266956,-1.0017629652569453,603167.0,,,,,801.5028337833335,797.9688337833335,
41,11,20,f,1,0,33.0,33,4,low,3 + 9 - 4 + 7 + 6,21,19,21,20,811.5372007000001,813.5633023999999,815.0785865000003,820.0969577999999,821.0702443999999,821.0702498,822.5871130999999,823.6041267,w,21.0,0.9732865999999376,1,+1,159,-20.367331978285275,1.1483761244414143,-0.03101057217169778,613211.0,-29.117765366440594,1.397502691994771,0.030194508357622052,616745.0,,,,,815.0808337833334,811.5468337833335,
42,11,20,f,1,0,34.0,34,2,high,7 + 6 + 1 + 8 + 1,23,21,22,23,825.1209629,827.1461213000002,828.6611520000001,833.6795422999999,834.7421610000001,834.7421668000002,836.2588458999999,837.2762692000001,e,23.0,1.0626187000002574,1,+10,169,-34.76646523085239,-0.19572504213776387,-0.1429944451558256,626794.0,-27.682839663893372,0.031104326688609518,0.18809637300752358,630328.0,,,,,828.6638337833334,825.1298337833334,
43,11,20,f,1,0,35.0,35,2,high,7 + 5 + 1 - 1 - 8,4,4,2,3,838.7922816999999,840.817352,842.3327935000002,847.3517577000002,851.8701337000002,851.8701387000001,853.3869097000002,854.4041931000002,e,3.0,4.518375999999989,0,+0,169,16.103993047246785,-0.06817979566892785,0.03203776342763698,640465.0,-0.4533816275136111,0.10084408161639491,0.5734012278716767,643999.0,,,,,842.3348337833335,838.8008337833335,
44,11,20,f,1,0,36.0,36,2,low,4 + 8 + 1 + 1 - 5,9,9,11,8,855.9210919000002,857.9493259000001,859.4647264999999,864.484254,865.4550082000001,865.4550140000001,866.9717154,867.9887122999999,q,9.0,0.9707542000001012,1,+1,170,1.1969352059875362,0.2244894342296595,-0.1359758141783347,657597.0,-18.602854060902786,0.016690728257344745,-0.05212671076282094,661132.0,,,,,859.4678337833334,855.9328337833334,
45,11,20,f,1,0,37.0,37,2,low,5 + 8 + 1 - 1 + 9,22,23,21,22,869.5056435000001,871.5303121000002,873.0456073,878.0641086,880.0860969,880.0861021999999,881.6022999000002,882.6189107,e,22.0,2.0219882999999754,1,+1,171,-51.46821136766236,0.20836257951985715,-0.5509147776791612,671178.0,20.5197932608554,0.8795200816905631,0.37782199366725067,674712.0,,,,,873.0478337833334,869.5138337833334,
46,11,20,f,1,1,38.0,0,4,low,4 + 8 + 9 - 3 + 7,25,25,26,24,894.5066159000003,896.5334862,898.0494452000003,903.0693019,904.0701939,904.0701996000004,905.5875447,906.6049051,q,25.0,1.0008920000000217,1,+1,172,-15.347067621323008,0.9908064967012624,0.956709456959552,696181.0,19.007118091551785,0.9040039915375848,-2.0235556287449414,699717.0,,,,,898.0528337833334,894.5168337833335,
47,11,20,f,1,1,39.0,1,4,high,4 + 7 + 9 - 5 + 7,22,23,24,22,908.1218519,910.1495369,911.6649072,916.6847143999998,917.8220066,917.8220119000002,919.3391593,920.3575275000004,e,22.0,1.1372922000000472,1,+10,182,-8.138994521291261,-0.001785781792781549,0.11525330661783117,709797.0,40.088523729936405,0.49003102342560556,-0.0685785746418981,713332.0,,,,,911.6678337833334,908.1328337833335,
48,11,20,f,1,1,40.0,2,2,high,5 - 1 + 1 + 8 + 9,22,21,22,23,921.8748328,923.8974005,925.4127590000004,930.4311335000002,931.5260865,931.526092,933.0434593,934.060746,w,22.0,1.0949529999998049,1,+10,192,32.469719431647114,-0.24575377690678923,-1.219565805672124,723545.0,11.909916159823208,0.5162525789778858,0.12692956025623747,727079.0,,,,,925.4148337833334,921.8808337833334,
49,11,20,f,1,1,41.0,3,3,low,8 + 3 + 1 - 7 + 9,14,12,15,14,935.5778259,937.6032529,939.1186079,944.1374398000004,945.2140129,945.2140186,946.7305623000002,947.748142,e,14.0,1.0765730999996777,1,+1,193,14.961978301760368,0.49922643365002717,-0.10952611293480441,737251.0,-20.17404731920763,0.8525980394470203,0.45026301877674646,740785.0,,,,,939.1208337833334,935.5868337833334,
50,11,20,f,1,1,42.0,4,1,high,3 + 1 + 9 + 1 - 1,13,13,14,12,949.2647351,951.2893043,952.8045792000004,957.8226575,958.8861462,958.886152,960.4029725,961.420325,q,13.0,1.0634887000001072,1,+10,203,11.595156510600384,-0.2661010842560687,-0.8130850178407796,750937.0,-19.500030150822624,-0.18127430452376636,-0.07610789813477048,754470.0,,,,,952.8058337833335,949.2728337833335,
51,11,20,f,1,1,43.0,5,3,low,3 - 7 + 5 + 1 + 9,11,11,13,12,962.9371677,964.9624817,966.4782601000002,971.4971133,972.5260161,972.5260214,974.0424756000002,975.0595041,q,11.0,1.0289028000001963,1,+1,204,-34.776836087888924,0.11469148143351138,0.3705155477734423,764610.0,-7.606143830332968,0.42241289840407426,-0.6358504416157964,768144.0,,,,,966.4798337833334,962.9458337833335,
52,11,20,f,1,1,44.0,6,1,high,9 + 1 + 1 + 7 - 1,17,17,16,19,976.576211,978.6031729,980.1181139,985.1369203,986.0939231000002,986.0939283000002,987.6106806000004,988.6281165,q,17.0,0.957002800000282,1,+10,214,-1.233295530116715,-0.2944089483180514,0.1270707085406011,778250.0,9.932093490399021,0.34984391815852955,0.2683676329775402,781784.0,,,,,980.1198337833334,976.5858337833334,
53,11,20,f,1,1,45.0,7,1,low,9 + 8 + 1 + 1 - 1,18,19,18,17,990.1447581000002,992.1734877,993.6888948,998.7073035,999.6699238,999.6699295,1001.1863938,1002.2035914000004,w,18.0,0.9626203000002532,1,+1,215,-35.337431644704125,0.2511154865891152,-0.27499065701983194,791820.0,27.729548549159176,0.6009011976528589,0.16708494427088616,795354.0,,,,,993.6898337833335,990.1558337833335,
54,11,20,f,1,1,46.0,8,4,high,8 + 4 + 7 - 5 - 6,8,7,8,9,1003.7203223,1005.7477775000002,1007.2630541,1012.283288,1013.1899807,1013.1899866,1014.706185,1015.723609,w,8.0,0.906692699999894,1,+10,225,12.672448147433682,0.9463360156694032,-0.6007737259126558,805395.0,12.626216571376226,0.7787881232172822,-0.03792002832953312,808930.0,,,,,1007.2658337833334,1003.7308337833334,
55,11,20,f,1,1,47.0,9,1,high,8 + 1 + 1 - 1 - 4,5,6,3,5,1017.2404486,1019.2644546,1020.7794124000002,1025.7977446,1027.0859865000002,1027.0859923000005,1028.6030902000002,1029.6204874,e,5.0,1.28824190000023,1,+10,235,-28.07138448050688,0.3853194941757154,-0.43507694819092846,818912.0,24.0559763954038,-1.0941870342274882,0.14799831865282131,822445.0,,,,,1020.7808337833335,1017.2478337833335,
56,11,20,f,1,1,48.0,10,4,high,5 + 9 - 4 + 7 + 6,23,23,24,25,1031.1373694,1033.1645487,1034.6797251000005,1039.6988862000003,1041.7099118,1041.7099171,1043.2262146000005,1044.2436764,q,23.0,2.011025599999812,1,+10,245,5.977785502443417,0.4963518671958722,-0.43850090211266934,832812.0,14.12912602824975,0.47691647689656325,0.01937066810573773,836345.0,,,,,1034.6808337833336,1031.1478337833335,
57,11,20,f,1,1,49.0,11,2,high,8 + 1 + 7 + 1 - 4,13,12,13,14,1045.7604916,1047.7882999,1049.3035645,1054.3220641000005,1055.5180749,1055.5180805999998,1057.0343623,1058.051856,w,13.0,1.19601079999984,1,+10,255,18.666658103384414,0.4256259188154701,-0.6764685765752074,847435.0,34.21987002423706,1.1829394327748166,0.8347878178898478,850969.0,,,,,1049.3048337833336,1045.7708337833335,
58,11,20,f,1,1,50.0,12,2,low,6 + 1 + 1 + 7 - 9,6,6,8,4,1059.5688349000002,1061.5959931000002,1063.1110787000002,1068.1310855000002,1069.045948,1069.0459538,1070.5624651000005,1071.5790058000002,q,6.0,0.9148624999997992,1,+1,256,-8.19301287516161,0.7763223077077663,-0.14183377325240265,861243.0,-28.796292896952618,1.0353820429511198,1.554920200877108,864778.0,,,,,1063.1138337833336,1059.5788337833335,
59,11,20,f,1,1,51.0,13,2,high,5 - 8 + 7 + 1 + 1,6,8,6,7,1073.0955741000002,1075.1226242000002,1076.638117,1081.6576762,1082.5658697,1082.5658748,1084.082479,1085.1003459,w,6.0,0.9081934999999248,1,+10,266,19.674425394683688,0.6534793208302991,-2.1682913391295173,874770.0,25.51910518775127,1.1070648366947342,0.1980680240044217,878304.0,,,,,1076.6398337833334,1073.1058337833335,
60,11,20,f,1,1,52.0,14,4,low,7 + 6 - 9 + 8 - 3,9,9,7,8,1086.6172153000002,1088.6402342,1090.1554522,1095.1750482000002,1098.6539267000005,1098.6539324,1100.1706605,1101.1877462000002,q,9.0,3.4788785000000644,1,+1,267,-5.572858737875201,0.4589674881610355,0.6001380447709579,888288.0,11.964288574623293,1.206761034829817,0.6670974982237601,891822.0,,,,,1090.1578337833334,1086.6238337833336,
61,11,20,f,1,1,53.0,15,1,low,5 + 6 + 1 + 1 + 1,14,14,13,16,1102.7045887,1104.7327603,1106.2479806,1111.2658225,1112.3739,1112.3739055,1113.8903613000002,1114.9073969,q,14.0,1.1080775000000358,1,+1,268,13.523482136022087,-0.575321187709867,-0.7573776878150555,904380.0,8.466511091351553,0.5438210956213938,-0.16953799471820385,907913.0,,,,,1106.2488337833336,1102.7158337833334,
62,11,20,f,1,1,54.0,16,1,low,7 + 1 + 4 + 1 - 1,12,11,13,12,1116.4240600000005,1118.4478732000002,1119.9631174,1124.9814078,1126.0378744,1126.0378801000002,1127.554525,1128.5714652,e,12.0,1.0564666000000216,1,+1,269,-4.158725342761745,1.080018130720017,0.7193994755624153,918095.0,33.257335690880225,-0.6171115142745558,-0.06624908249368744,921628.0,,,,,1119.9638337833335,1116.4308337833336,
63,11,20,f,1,1,55.0,17,4,low,7 + 6 - 4 + 9 - 5,13,13,14,12,1130.0880935,1132.1142636,1133.6302615,1138.6488753,1139.6618063,1139.6618118,1141.178593,1142.1955949000003,q,13.0,1.012931000000208,1,+1,270,16.167907238466125,-0.05465207876112377,-0.1401502027195214,931761.0,-22.647571156685753,1.0955999945320274,-0.014426744421817572,935296.0,,,,,1133.6318337833336,1130.0968337833335,
64,11,20,f,1,1,56.0,18,3,low,6 + 1 + 8 + 7 - 9,13,15,14,13,1143.7130041,1145.7402098000002,1147.2555636000002,1152.2742605,1153.3338273,1153.3338326000005,1154.8503167,1155.8672996,e,13.0,1.0595668000000842,1,+1,271,13.861133476034201,-1.0692571023589466,-0.07803018790735616,945387.0,11.771987836448368,1.4867091980162535,0.01534722377968567,948921.0,,,,,1147.2568337833336,1143.7228337833335,
65,11,20,f,1,1,57.0,19,2,low,6 + 1 + 1 + 8 - 9,7,5,7,9,1157.3839807,1159.4095191,1160.9248167,1165.9440055,1167.0217916,1167.0217971000002,1168.5387951000002,1169.5558984,w,7.0,1.0777861000001394,1,+1,272,-60.125672715370015,0.8585970756604837,-0.10992097544966506,959056.0,-18.36723031565318,0.8567489034907245,1.310906788750125,962591.0,,,,,1160.9268337833334,1157.3918337833336,
66,11,20,f,1,1,58.0,20,3,low,6 + 8 + 7 + 1 - 9,13,13,15,14,1171.0725178000002,1173.0999152,1174.6153073,1179.633907,1180.7418086000002,1180.7418143,1182.2585045,1183.2754106000002,q,13.0,1.107901600000332,1,+1,273,-64.38911256410248,0.7355658366365718,0.30634395577999163,972747.0,-61.92732801377549,0.8689138372964376,-0.03988568302377704,976281.0,,,,,1174.6168337833335,1171.0828337833334,
67,11,20,f,1,1,59.0,21,4,low,4 + 7 - 8 + 9 - 3,9,11,9,8,1184.7921192,1186.8189521,1188.3341891,1193.3544633,1194.4857414000005,1194.4857465,1196.0022445,1197.0191058,w,9.0,1.131278100000145,1,+1,274,3.3309311147357263,0.7182810478680652,-0.1544296515572916,986466.0,-21.820086023320396,0.4619157944539083,0.34226652530147916,990001.0,,,,,1188.3368337833335,1184.8018337833334,
68,11,20,f,1,1,60.0,22,1,high,4 + 8 + 1 - 1 - 1,11,11,13,9,1198.5357957,1200.5637767000003,1202.0796957000002,1207.0979821,1208.0457251000005,1208.0457307,1209.5622116,1210.5795163000005,q,11.0,0.9477430000001732,1,+10,284,26.407343504202764,0.3516585738854108,0.9001407818868037,1000210.0,7.422480436254224,0.9788675810464591,0.09779630585033683,1003745.0,,,,,1202.0808337833334,1198.5458337833336,
69,11,20,f,1,1,61.0,23,1,high,3 + 1 + 8 - 1 + 1,12,13,10,12,1212.0963266,1214.1199007,1215.6353036,1220.6539375000002,1221.7337092000002,1221.7337182,1223.2503619,1224.2675165,e,12.0,1.0797717000000375,1,+10,294,-19.137063216878687,0.08982814646776749,-0.13197445736108504,1013766.0,-10.708422232387484,-0.17848923888522172,-0.957139776290719,1017300.0,,,,,1215.6358337833335,1212.1018337833334,
70,11,20,f,1,1,62.0,24,3,high,8 - 7 + 9 + 1 + 4,15,14,16,15,1225.7846019,1227.8080186000002,1229.3232571,1234.3420394,1235.38978,1235.3897863000002,1236.9063263000005,1237.9232708,e,15.0,1.0477405999999974,1,+10,304,3.6830938968516698,0.0020564271918876997,0.06377644120430004,1027454.0,-70.02468615228956,1.1653675860490038,-0.14993829540514492,1030988.0,,,,,1229.3238337833336,1225.7898337833335,
71,11,20,f,1,1,63.0,25,1,high,2 + 9 + 1 + 1 + 1,14,13,14,12,1239.440356,1241.467131,1242.9825041,1248.0006096000002,1249.045721,1249.0457267000002,1250.5616728999998,1251.5794653000005,w,14.0,1.0451113999997688,1,+10,314,-24.376915525745535,0.03337199310875061,0.1565558983535933,1041114.0,43.98681091169991,-2.5064201735752887,-1.3600621438535159,1044647.0,,,,,1242.9828337833335,1239.4498337833336,
72,11,20,f,1,1,64.0,26,4,high,4 + 7 + 8 - 3 + 9,25,24,25,26,1253.0965457000002,1255.1227662,1256.6379956,1261.6581331000002,1262.837685,1262.8376904000002,1264.3541279,1265.371583,w,25.0,1.1795518999997512,1,+10,324,25.703738113718824,0.6346967111239428,0.09136158936036964,1054769.0,11.627094900343884,-0.1289330872868808,0.023115838687827628,1058304.0,,,,,1256.6398337833336,1253.1048337833336,
73,11,20,f,1,1,65.0,27,4,high,5 + 7 - 4 + 6 + 9,23,23,25,24,1266.8878306,1268.9140316000005,1270.4290015,1275.4474986,1276.3417927,1276.3417992,1277.8585733,1278.8749307000005,q,23.0,0.8942941000000246,1,+10,334,6.671430238005012,0.9358767189016657,-0.1827205162560117,1068560.0,0.08821304910000727,-0.04976323363270563,0.2596709812502589,1072094.0,,,,,1270.4298337833336,1266.8958337833335,
74,11,20,f,1,1,66.0,28,3,high,4 + 1 + 8 + 9 - 5,17,17,18,19,1280.3917474,1282.4182322,1283.9336805000005,1288.9520656,1289.9337196,1289.9337255,1291.4501477,1292.4683756,q,17.0,0.9816540000001625,1,+10,344,10.558490053343707,0.2384468631431611,-0.09250721946101792,1082065.0,-3.2829903505257683,0.12350546182420086,-0.13634105906824656,1085598.0,,,,,1283.9338337833335,1280.4008337833336,
75,11,20,f,1,1,67.0,29,4,low,3 + 8 - 4 + 9 + 6,22,23,22,21,1293.9851741000002,1296.0130913000005,1297.5283854,1302.5466598000005,1303.5896541000002,1303.5896598,1305.1060305,1306.1230452,w,22.0,1.0429942999999184,1,+1,345,34.32887469042257,0.5189127561959079,-0.15799854782420963,1095659.0,33.46657679081599,1.3243772576304487,0.0195591056813309,1099193.0,,,,,1297.5288337833335,1293.9948337833337,
76,11,20,f,1,1,68.0,30,2,low,7 + 8 + 1 + 9 + 1,26,26,25,24,1307.6397987,1309.6671388,1311.1824614000002,1316.201051,1317.1736062999998,1317.1736115,1318.6902836,1319.7072185000002,q,26.0,0.97255529999984,1,+1,346,38.118967144502214,0.3493757048916626,-0.473491528277346,1109313.0,14.305169092192118,-0.12799561233966372,-0.7781461127014508,1112847.0,,,,,1311.1828337833335,1307.6488337833337,
77,11,20,f,1,1,69.0,31,1,high,7 - 1 + 8 + 1 - 1,14,14,12,13,1321.2243731,1323.2525342,1324.7680234,1329.7868105000002,1330.8376053000002,1330.8376103,1332.3552865,1333.372993,q,14.0,1.0507947999999487,1,+10,356,-39.52747178513934,0.10354490110399261,0.7252962246609815,1122899.0,-17.78384480053822,0.18482619628775332,-1.9838681575937516,1126433.0,,,,,1324.7688337833335,1321.2348337833334,
78,11,20,f,1,1,70.0,32,3,low,5 - 1 - 4 + 6 + 7,13,15,13,14,1334.8894528,1336.9130731,1338.428245,1343.4466253,1344.5015494,1344.5015548,1346.0180736000002,1347.0346178,w,13.0,1.05492409999988,1,+1,357,-5.043993444512296,1.475171635813319,0.4703362458229421,1136559.0,1.0489135810066799,0.40165901062144904,-0.43304898143755644,1140093.0,,,,,1338.4288337833336,1334.8948337833335,
79,11,20,f,1,1,71.0,33,4,low,9 + 8 - 5 - 7 + 6,11,11,13,10,1348.551223,1350.5744792,1352.0901885000003,1357.109114,1358.5736225,1358.5736281,1360.0906362,1361.1089548999998,e,10.0,1.4645085000001927,0,+0,357,15.542917737143162,0.3629015952066226,-1.6177868392276797,1150221.0,16.147898967871683,0.35175917235636334,0.10361452938039672,1153755.0,,,,,1352.0908337833337,1348.5568337833336,
80,11,20,f,1,1,72.0,34,1,high,2 + 9 + 1 + 1 + 1,14,12,14,13,1362.6261671000002,1364.6533164000002,1366.1686824,1371.1871762,1372.3175661,1372.3175718000002,1373.8342454,1374.8516995,w,14.0,1.1303898999999549,1,+10,367,-6.139415223621562,-0.45050395890117123,-0.939952614517725,1164299.0,19.685614649269212,0.3721095151654934,-0.47274650016787967,1167833.0,,,,,1366.1688337833336,1362.6348337833335,
81,11,20,f,1,1,73.0,35,2,low,9 + 1 + 6 + 7 + 1,24,23,25,24,1376.3684526000002,1378.3964143000003,1379.911753,1384.9303808,1386.0775715,1386.0775773,1387.5945532,1388.6115229000002,e,24.0,1.14719070000001,1,+1,368,-19.560804739372102,0.24075568136248293,-0.16314715333121943,1178042.0,23.597940830975467,1.0095433047448212,-0.05163041102814647,1181576.0,,,,,1379.9118337833336,1376.3778337833335,
82,11,20,f,1,1,74.0,36,4,low,8 + 5 - 4 + 7 + 9,25,26,25,24,1390.1284157,1392.1561943000002,1393.6716907,1398.6914054,1399.733448,1399.7334533000003,1401.2498066000005,1402.2668664000005,w,25.0,1.0420426000000589,1,+1,369,19.1013019275719,0.4017770569078012,0.008981783470536797,1191802.0,-14.859382726961066,1.062262734163327,0.1211911754587589,1195336.0,,,,,1393.6718337833336,1390.1378337833335,
83,11,20,f,1,1,75.0,37,2,low,4 + 9 - 7 + 1 - 1,6,5,6,8,1403.7834907,1405.8101824,1407.3256284,1412.3455825,1413.2855135,1413.2855191,1414.8020091,1415.8188690000002,w,6.0,0.9399309999998876,1,+1,370,8.449392711170269,0.03329824939216408,-0.1310681802381124,1205456.0,18.904663658077137,0.6369277070721253,0.4695994534218171,1208992.0,,,,,1407.3278337833335,1403.7918337833335,
84,11,20,f,1,2,76.0,0,3,low,2 + 1 + 9 - 7 + 6,11,13,12,11,1421.2813163,1423.3079492000002,1424.8232303,1429.8415139,1430.8295641,1430.8295702,1432.3464375,1433.3633768,e,11.0,0.9880502000000888,1,+1,371,3.634674293782087,0.46160983117835297,-0.5817090675311354,1222954.0,-3.9316051956610742,0.3253975964323148,0.38601636112345994,1226488.0,,,,,1424.8238337833336,1421.2898337833335,
85,11,20,f,1,2,77.0,1,1,high,7 - 1 + 9 + 1 - 1,15,14,13,15,1434.8801115,1436.9040373000005,1438.4195098,1443.4385699,1444.6293970000002,1444.6294023,1446.1459559999998,1447.1633464,e,15.0,1.190827100000206,1,+10,381,13.50613533939789,0.29388236982227856,-0.7647582374795072,1236550.0,-6.1322755893226955,0.6832507294886119,-0.29956988478373736,1240084.0,,,,,1438.4198337833336,1434.8858337833335,
86,11,20,f,1,2,78.0,2,3,high,3 + 1 + 8 - 5 + 6,13,14,13,15,1448.6800821000002,1450.706626,1452.2218769,1457.2407603,1458.5335128000002,1458.5335182,1460.0501965,1461.0675770000005,w,13.0,1.292752500000006,1,+10,391,7.338866014832089,0.10647559953161423,-0.43761996854770224,1250352.0,-3.890150133375002,0.7281286595339704,-0.08824935655840083,1253887.0,,,,,1452.2228337833335,1448.6878337833336,
87,11,20,f,1,2,79.0,3,3,low,3 + 1 + 8 - 5 + 9,16,16,15,17,1462.5839764000002,1464.6104459000005,1466.1258228000002,1471.1440226,1472.1174387,1472.1174442,1473.6341467000002,1474.6504924,q,16.0,0.9734161000001222,1,+1,392,20.314118790555334,-0.30146526690133424,0.9470555744733449,1264256.0,-0.4743394616923453,1.1562361276361015,0.21717614669804153,1267790.0,,,,,1466.1258337833335,1462.5918337833336,
88,11,20,f,1,2,80.0,4,1,low,2 + 1 + 9 + 1 - 1,12,12,11,13,1476.1670136000002,1478.1949045,1479.7101232,1484.7283386,1485.6774193,1485.6774252,1487.1938094000002,1488.2106894,q,12.0,0.9490807000001952,1,+1,393,-6.323753200535876,-0.49922054893458334,1.1673072279192904,1277841.0,1.8874001302024568,1.2711885712710362,-0.217185098191228,1281374.0,,,,,1479.7098337833336,1476.1768337833334,
89,11,20,f,1,2,81.0,5,3,low,6 - 1 + 7 - 8 + 9,13,12,13,11,1489.7276418,1491.7546408000003,1493.2698602,1498.2895186,1500.2773325000005,1500.2773381000002,1501.7940688,1502.8110342,w,13.0,1.9878139000002195,1,+1,394,-18.075326094875727,1.0911493532331287,0.14551779988921143,1291400.0,-2.649346471187034,0.257740995441714,0.2730463964311409,1294936.0,,,,,1493.2718337833335,1489.7358337833336,
90,11,20,f,1,2,82.0,6,1,high,6 + 9 + 1 + 1 - 1,16,14,16,15,1504.3279963,1506.3520988,1507.8673615000002,1512.8856404000005,1513.9413378,1513.9413433,1515.458988,1516.4762976000002,w,16.0,1.0556973999996444,1,+10,404,-13.676368658034221,0.199876354012404,0.2441976485304913,1305998.0,4.697763062466308,0.008042914136107804,-0.4811371279608845,1309531.0,,,,,1507.8668337833335,1504.3338337833336,
91,11,20,f,1,2,83.0,7,3,high,8 + 6 - 7 + 1 - 4,4,4,3,5,1517.9929306,1520.0189946,1521.5341579,1526.5527284,1527.4694053000003,1527.4694107,1528.9860226,1530.0030286,q,4.0,0.9166769000003114,1,+10,414,20.171776519161106,0.4444829149761338,-0.039442214673724996,1319665.0,-26.602549009504934,0.20422715744835784,0.14558194158221327,1323198.0,,,,,1521.5338337833336,1518.0008337833335,
92,11,20,f,1,2,84.0,8,2,high,6 + 1 + 8 + 7 - 1,21,19,23,21,1531.5197544000002,1533.5474454,1535.0625516,1540.0809805,1541.1174619,1541.1174682,1542.633833,1543.6511135,e,21.0,1.036481399999957,1,+10,424,-18.58866095961249,-0.2882240260028066,0.17368983441234853,1333193.0,-0.8739522837357345,0.9444235975278437,0.928171866745267,1336727.0,,,,,1535.0628337833336,1531.5288337833335,
93,11,20,f,1,2,85.0,9,4,low,3 + 8 - 4 + 9 + 7,23,24,23,22,1545.1680785,1547.1923967000002,1548.7083674,1553.7270065000002,1555.2452878,1555.2452932,1556.7616979,1557.7786238,w,23.0,1.518281299999671,1,+1,425,23.39616811780063,0.28502889142183996,0.02260245434611452,1346838.0,-3.769659097870683,1.5620810182759426,0.10935994646672875,1350373.0,,,,,1548.7088337833336,1545.1738337833335,
94,11,20,f,1,2,86.0,10,1,low,4 + 9 + 1 - 1 - 1,12,11,12,13,1559.2953780000005,1561.3228469,1562.8381743999998,1567.8565645,1568.7333667000005,1568.7333726000002,1570.2500089,1571.2669703,w,12.0,0.8768022000003839,1,+1,426,-26.852876772987877,0.23675339037915322,0.040720967491128635,1360968.0,-16.76185383858919,0.5381423393313067,0.042403474259203655,1364502.0,,,,,1562.8378337833335,1559.3038337833336,
95,11,20,f,1,2,87.0,11,2,high,2 + 9 - 4 + 1 + 1,9,9,11,8,1572.783582,1574.809175,1576.32496,1581.3432214,1582.2292865,1582.2292921000003,1583.7459941000002,1584.7634348,q,9.0,0.8860650999999962,1,+10,436,-4.64917140593062,-0.5242840581734098,0.08800099083109214,1374455.0,28.428149572092874,0.5273145017228362,0.20569357755420659,1377989.0,,,,,1576.3248337833336,1572.7908337833335,
96,11,20,f,1,2,88.0,12,4,low,5 + 7 - 4 - 6 + 9,11,11,13,12,1586.2801611,1588.3053657,1589.8205349,1594.840361,1595.7573909000002,1595.7573964000003,1597.2741494000002,1598.2912933000002,q,11.0,0.917029900000216,1,+1,437,94.69003269567592,0.7765311157550387,0.08146391926005636,1387951.0,-22.680453293041026,0.14832944824346406,0.05295725189420408,1391485.0,,,,,1589.8208337833335,1586.2868337833336,
97,11,20,f,1,2,89.0,13,4,high,9 + 3 - 5 + 8 + 6,21,23,19,21,1599.8080814999998,1601.8334697,1603.348829,1608.3674267,1609.3253113,1609.3253170000005,1610.8422276,1611.8594086000005,e,21.0,0.957884599999943,1,+10,447,14.352899427604852,0.7585444716257195,-0.027058803561333056,1401479.0,1.0351080130558006,0.3245487127192108,0.009998540811316126,1405013.0,,,,,1603.3488337833335,1599.8148337833336,
98,11,20,f,1,2,90.0,14,3,high,5 + 6 + 7 - 1 - 9,8,9,7,8,1613.3759243,1615.400305,1616.9155906,1621.9355135,1622.8453074,1622.8453215,1624.3620166,1625.3797312000002,e,8.0,0.9097938999998404,1,+10,457,-0.880978483173827,-0.686941242899346,2.284773508041811,1415046.0,-16.956976007529985,0.17380350266878875,0.16747951986227427,1418581.0,,,,,1616.9168337833335,1613.3818337833336,
99,11,20,f,1,2,91.0,15,4,high,2 + 9 - 6 + 8 - 4,9,9,11,7,1626.8965327,1628.9205775,1630.4359119,1635.4547378000002,1636.3891985,1636.389204,1637.9059244,1638.9239686,q,9.0,0.9344606999998176,1,+10,467,-6.844430010017783,0.037274201931543516,-0.1298269307684592,1428565.0,34.02478634569874,0.8954315009262226,0.28156913614649737,1432100.0,,,,,1630.4358337833335,1626.9008337833336,
100,11,20,f,1,2,92.0,16,3,low,9 - 5 - 1 - 6 + 8,5,5,4,7,1640.4412741,1642.4643482,1643.9805925,1648.9986391000002,1650.0452359,1650.0452416000005,1651.5617094,1652.578922,q,5.0,1.046596799999861,1,+1,468,12.902104380767703,0.592481372397927,0.25021757413378687,1442110.0,30.988086517789842,2.3671750202684017,-1.5958716776873692,1445644.0,,,,,1643.9798337833336,1640.4458337833335,
101,11,20,f,1,2,93.0,17,2,low,4 + 1 + 9 + 1 - 6,9,8,7,9,1654.0959114000002,1656.1242515,1657.6398349,1662.6579059,1663.6293042000002,1663.6293100000005,1665.1459145,1666.1627984000002,e,9.0,0.9713983000001464,1,+1,469,26.29054554473642,-0.37316126496899304,0.16030165582740086,1455769.0,-26.811288826830243,0.6188567534369662,0.016932018972339424,1459303.0,,,,,1657.6388337833337,1654.1048337833336,
102,11,20,f,1,2,94.0,18,4,low,7 + 6 + 8 - 4 + 5,22,23,21,22,1667.6795806,1669.7059624,1671.2212988,1676.2398672,1677.1571798999998,1677.1571852000002,1678.6734788,1679.6898823,e,22.0,0.9173126999999112,1,+1,470,1.1479260995209621,0.3117652882890587,0.18892163100004544,1469351.0,-4.558229765242299,0.8200181929902692,-0.0699290115665907,1472885.0,,,,,1671.2208337833335,1667.6868337833337,
103,11,20,f,1,2,95.0,19,1,high,6 + 9 + 1 + 1 - 1,16,14,16,15,1681.2066278000002,1683.2350437,1684.7504654,1689.7684837000002,1690.637166,1690.6371719,1692.1536873,1693.1707107000002,w,16.0,0.8686822999998185,1,+10,480,29.048986996318728,0.4001572933224118,-0.5037441453396148,1482880.0,-46.51825100071945,-0.3304168196457482,1.0098099748698024,1486414.0,,,,,1684.7498337833335,1681.2158337833337,
104,11,20,f,1,2,96.0,20,2,low,8 + 1 + 9 + 1 - 5,14,13,14,15,1694.6875025,1696.7131659,1698.2283472,1703.2468424,1704.1572078,1704.1572136,1705.6739665,1706.6909927000002,w,14.0,0.910365400000046,1,+1,481,-7.168016760631186,-0.02212740390967216,-1.2173279572480933,1496358.0,26.53585150546685,1.1531800368835414,-1.8002518535703826,1499893.0,,,,,1698.2288337833336,1694.6938337833335,
105,11,20,f,1,2,97.0,21,4,high,6 + 9 + 7 - 3 - 5,14,12,14,13,1708.2077074,1710.2352704999998,1711.7503223,1716.7692669000005,1717.8051943,1717.8052001,1719.3218986000002,1720.3392334,w,14.0,1.035927399999764,1,+10,491,19.723122846033114,0.956366958936183,0.5243218404408565,1509880.0,-14.788563345417344,0.09828426956878022,-0.047244213872250196,1513414.0,,,,,1711.7498337833335,1708.2158337833337,
106,11,20,f,1,2,98.0,22,4,low,3 + 8 - 7 + 9 - 5,8,9,8,7,1721.855865,1723.8820723,1725.3974839000002,1730.4177703,1731.3971780000002,1731.3971839,1732.9138025000002,1733.9306130999998,w,8.0,0.979407700000138,1,+1,492,19.9263978811204,-0.29593902888780477,0.4251443970215534,1523527.0,2.7208909214793104,0.6517655455218172,4.702717498680199,1527063.0,,,,,1725.3988337833337,1721.8628337833336,
107,11,20,f,1,2,99.0,23,2,high,9 + 4 - 6 + 1 - 1,7,8,7,9,1735.4473891000002,1737.4716600000002,1738.9870187,1744.0054908000002,1744.9811344,1744.9811402,1746.4974068,1747.5144801,w,7.0,0.9756435999997848,1,+10,502,8.108276529542026,0.9005630571196583,-1.6411073688777935,1537117.0,17.363392268610575,1.0401228932310733,0.18022282084692298,1540650.0,,,,,1738.9858337833336,1735.4528337833335,
108,11,20,f,1,2,100.0,24,2,low,3 - 1 + 9 - 5 + 1,7,7,5,6,1749.0315115,1751.0597768000002,1752.5750444,1757.5935584,1758.5650884,1758.5650938,1760.0818279,1761.0987014000002,q,7.0,0.9715300000002572,1,+1,503,7.5088466896673225,1.090530279327421,0.07025302907953712,1550705.0,-7.213152867864167,0.664119803483362,-0.09063052127621618,1554238.0,,,,,1752.5738337833336,1749.0408337833335,
109,11,20,f,1,2,101.0,25,4,high,8 + 4 + 7 - 5 - 6,8,8,6,9,1762.6155113,1764.6423809000005,1766.1575297,1771.1760548000002,1772.1010703000002,1772.1010757,1773.6170805000002,1774.6351765,q,8.0,0.9250154999999722,1,+10,513,-10.919163844636646,0.4796214916635275,0.09099045926388438,1564287.0,7.425337615422567,0.8802979620531826,-0.018583509760718542,1567821.0,,,,,1766.1568337833335,1762.6228337833336,
110,11,20,f,1,2,102.0,26,3,high,2 - 4 + 9 + 7 + 1,15,15,13,16,1776.1529527000002,1778.1769916000003,1779.6923016,1784.7101589,1785.6211358,1785.6211418000005,1787.1377652,1788.1552449,q,15.0,0.9109769000001506,1,+10,523,-9.51952931046314,0.5157310931272994,-0.958660873353919,1577822.0,10.733586448866546,0.8891203000963284,0.3821853299066911,1581356.0,,,,,1779.6918337833335,1776.1578337833334,
111,11,20,f,1,2,103.0,27,1,low,5 + 8 - 1 + 1 + 1,14,16,12,14,1789.6728163000002,1791.6995361,1793.2148814000002,1798.2329086,1799.5810115,1799.5810168000005,1801.0976575,1802.1146284,e,14.0,1.348102899999958,1,+1,524,-4.478785025441789,0.07479769386577395,0.2212843709205603,1591344.0,-32.13120452605883,0.9190421445685377,0.004306337678694039,1594878.0,,,,,1793.2138337833335,1789.6798337833336,
112,11,20,f,1,2,104.0,28,3,high,8 + 5 + 1 - 7 + 9,16,16,14,17,1803.6315416,1805.6597901,1807.1753464,1812.1938761,1813.2531674,1813.2531734,1814.769739,1815.787132,q,16.0,1.0592913000000408,1,+10,534,-5.8401042358777175,0.6364246476649731,0.1873928979570385,1605304.0,-37.77570723726994,0.509306979800928,0.12409013854703876,1608839.0,,,,,1807.1748337833335,1803.6398337833336,
113,11,20,f,1,2,105.0,29,3,low,2 + 9 + 1 - 5 + 7,14,12,14,15,1817.3039437,1819.3290209,1820.8442974,1825.8630352,1826.7570332,1826.7570386,1828.2736701,1829.2906284,w,14.0,0.8939980000000105,1,+1,535,-8.175686553369806,0.31849525219583175,0.5214164924628668,1618974.0,-9.230051013831087,0.8706504304326019,-0.02244655625035552,1622508.0,,,,,1820.8438337833336,1817.3098337833335,
114,11,20,f,1,2,106.0,30,1,low,7 + 1 + 6 + 1 + 1,16,16,18,17,1830.8074715,1832.8338857,1834.3492622,1839.3672545,1840.2690371,1840.2690429,1841.7855265000003,1842.8024869,q,16.0,0.9017825999999332,1,+1,536,-3.423950466219967,0.24289134921641153,0.45032295101610753,1632479.0,-14.093257940171348,-0.04419163592269815,-0.10668940885126377,1636012.0,,,,,1834.3478337833335,1830.8148337833336,
115,11,20,f,1,2,107.0,31,2,high,5 + 7 - 8 + 1 + 1,6,6,8,7,1844.3193989,1846.3469088,1847.8620747,1852.880878,1853.9409985,1853.9410037,1855.4586245,1856.4758575,q,6.0,1.0601205000002665,1,+10,546,4.846913935317611,0.3411907436814978,-0.04046189100444764,1645991.0,-1.2370643431513013,1.3225766341252259,0.23708106949309493,1649526.0,,,,,1847.8618337833336,1844.3268337833335,
116,11,20,f,1,2,108.0,32,3,high,2 + 1 + 9 - 4 + 6,14,14,16,15,1857.9926337,1860.0195295,1861.5347858,1866.5536016,1867.4929361,1867.4929414000003,1869.0096766,1870.0265172,q,14.0,0.939334499999859,1,+10,556,-36.58814616768363,0.3871298983546776,0.2194302672382471,1659664.0,26.68904093041747,-0.001580245895467236,0.2167936861272004,1663198.0,,,,,1861.5338337833336,1857.9998337833335,
117,11,20,f,1,2,109.0,33,1,high,3 + 1 + 1 + 8 - 1,12,13,12,14,1871.5443602,1873.5688454,1875.0837499,1880.1018846,1880.9889631,1880.9889683,1882.5050596,1883.5221637,w,12.0,0.887078499999916,1,+10,566,9.146306733270801,-0.41318921287432886,0.34224554860862777,1673213.0,26.10696254578636,-0.6571265774993149,0.08594409042791917,1676746.0,,,,,1875.0818337833336,1871.5488337833335,
118,11,20,f,1,2,110.0,34,3,high,5 + 6 - 4 - 1 + 7,13,14,15,13,1885.0390804,1887.0656097,1888.5810472000005,1893.6001176,1894.8610501000005,1894.8610563,1896.377516,1897.3949202,e,13.0,1.2609325000003082,1,+10,576,25.164727330127935,0.5044270889479279,-0.027058653639762786,1686710.0,3.6533790280173406,0.5993136096325298,0.23478272331814187,1690244.0,,,,,1888.5798337833335,1885.0458337833336,
119,11,20,f,1,2,111.0,35,1,low,5 + 1 + 1 + 6 + 1,14,14,13,16,1898.9116714,1900.9386935,1902.4545996,1907.472286,1908.4128684,1908.412874,1909.9302197,1910.9475658,w,13.0,0.9405824000000392,0,+0,576,14.496004607883465,0.8342653788921934,0.053749187471298976,1700583.0,47.6310844588147,0.6375290975731218,-0.1744910998763629,1704117.0,,,,,1902.4528337833335,1898.9188337833336,
120,11,20,f,1,2,112.0,36,3,low,7 - 1 + 9 - 5 + 4,14,15,14,13,1912.4644278,1914.49042,1916.0058723,1921.0261052,1922.2609648,1922.2609704,1923.7776574,1924.7949741,e,13.0,1.2348596000001637,0,+0,576,-35.22530063800873,0.7362795393439594,0.14646520294870524,1714135.0,-0.9257603632364173,-0.5801567822872666,0.41527668783433325,1717671.0,,,,,1916.0068337833336,1912.4708337833335,
121,11,20,f,1,2,113.0,37,3,high,4 + 5 - 3 + 7 - 1,12,11,12,13,1926.311825,1928.3354311000005,1929.8507258,1934.8698352,1936.3888921,1936.3888978,1937.9059865,1938.9233033,e,13.0,1.5190569000001233,0,+0,576,15.024091753868742,-0.2854339270454256,-0.11760445393597552,1727980.0,1.7850847778079029,0.6291391977050331,0.041172648286904145,1731514.0,,,,,1929.8498337833335,1926.3158337833336,
122,11,20,f,1,3,114.0,0,1,high,7 + 1 + 5 + 1 - 1,13,12,13,14,1983.5413174,1985.5680230000005,1987.0825658,1992.1032128,1993.1408972,1993.1409031000003,1994.6581399,1995.6760011,w,13.0,1.0376843999997618,1,+10,586,41.01435971525659,0.1484841195140243,-10.623689622757773,1785212.0,34.579484115978815,0.1377150717915594,2.63610513045495,1788747.0,,,,,1987.0828337833336,1983.5478337833335,
123,11,20,f,1,3,115.0,1,4,low,4 + 7 + 8 - 3 + 9,25,26,25,24,1997.1929216,1999.2161169,2000.7310794,2005.7511236,2007.020817,2007.0208224000005,2008.5376286,2009.5545667,w,25.0,1.269693400000051,1,+1,587,-6.806286449346228,1.091871541819665,-0.4069279185936221,1798861.0,29.625329107360795,1.0729385415553505,0.6353296945682132,1802395.0,,,,,2000.7308337833335,1997.1968337833337,
124,11,20,f,1,3,116.0,2,3,high,5 + 6 - 4 - 1 + 8,14,16,14,15,2011.0707296,2013.0977965,2014.6128771,2019.6320212,2020.6687793,2020.668786,2022.1854185,2023.2016393,w,14.0,1.0367581000000428,1,+10,597,2.7629175075294086,-0.5097808764459,-0.7142124753276082,1812742.0,-19.219798165537767,-0.3072147297107142,0.9819531546443869,1816276.0,,,,,2014.6118337833336,2011.0778337833335,
125,11,20,f,1,3,117.0,3,2,low,5 + 9 - 8 + 1 + 1,8,7,8,9,2024.7192553,2026.7459737,2028.2612751,2033.2807184,2035.1248674,2035.1248732,2036.6412436,2037.6581521000005,w,8.0,1.844149000000016,1,+1,598,54.45524812872683,1.3097491723661516,-0.2667261555834113,1826390.0,4.1543553979658725,1.9731833468219433,0.20909618527455187,1829925.0,,,,,2028.2608337833335,2024.7258337833337,
126,11,20,f,1,3,118.0,4,3,low,2 + 1 + 9 - 5 + 6,13,11,13,14,2039.1747708000005,2041.200636,2042.715654,2047.73501,2048.6768061,2048.6768121,2050.1936092,2051.2105418,w,13.0,0.9417961000003744,1,+1,599,14.473737556781026,0.2032247700705332,2.1528023406669856,1840845.0,-42.506495424015,0.6984046175255916,1.1887980779391407,1844379.0,,,,,2042.7148337833335,2039.1808337833336,
127,11,20,f,1,3,119.0,5,2,low,8 + 1 + 9 + 1 - 4,15,16,14,15,2052.7273957,2054.7532161,2056.2684938,2061.2875731,2062.2927378,2062.2927469,2063.8090522,2064.8260323,e,15.0,1.005164700000023,1,+1,600,41.0696033209274,-1.55966185524339,-0.5568548354566252,1854397.0,9.51370267785732,1.2197189752104318,-0.21971077384758964,1857932.0,,,,,2056.2678337833336,2052.7328337833333,
128,11,20,f,1,3,120.0,6,1,low,6 + 9 + 1 + 1 - 1,16,14,15,16,2066.3431953,2068.3680464,2069.8833545,2074.9022826,2076.0527852,2076.0527907,2077.5690263,2078.5858888,e,16.0,1.1505025999999816,1,+1,601,14.20767497815855,-0.5931365782150682,-0.23092346758074456,1868012.0,26.564555624850243,0.8617715565540784,-0.5441530163993349,1871546.0,,,,,2069.8818337833336,2066.3478337833335,
129,11,20,f,1,3,121.0,7,1,low,5 + 1 + 1 + 9 + 1,17,17,19,16,2080.1032212,2082.1248434,2083.6400555,2088.7071023,2089.6367478,2089.6367536,2091.1533584,2092.1701928,q,17.0,0.9296455000003334,1,+1,602,-4.837071994101212,-0.28427059837959767,1.742225445482287,1881769.0,49.64798845733998,0.4161338367364733,-0.5536894988383549,1885351.0,,,,,2083.6868337833334,2080.1048337833336,
130,11,20,f,1,3,122.0,8,1,high,4 + 1 + 1 + 7 - 1,12,13,12,14,2093.6881017,2095.7163458,2097.231518,2102.2504775,2103.2447495,2103.2447552,2104.7612042,2105.7784792,w,12.0,0.99427199999991,1,+10,612,8.936703765929451,0.26666815010641187,-0.5146292741208054,1895359.0,-38.380240443871614,0.1831980121459944,-0.3438138158076631,1898894.0,,,,,2097.2298337833336,2093.6948337833333,
131,11,20,f,1,3,123.0,9,3,high,2 + 9 - 3 + 4 + 1,13,13,14,11,2107.2954728,2109.3205809,2110.8358966,2115.8541605,2116.8686526,2116.8686575,2118.3854549,2119.4028417,q,13.0,1.0144921000000977,1,+10,622,2.379731734046743,0.6265643839587876,0.27584097918333095,1908964.0,-29.33021577598277,0.7765540460041995,-0.3365210508701786,1912498.0,,,,,2110.8338337833334,2107.2998337833333,
132,11,20,f,1,3,124.0,10,4,high,4 + 7 - 8 + 9 - 4,8,8,9,7,2120.9196144,2122.9449516,2124.4604078,2129.4789973,2130.5246871,2130.5246928,2132.0410422,2133.0582092,q,8.0,1.0456897999997636,1,+10,632,-0.5403186732651886,0.21036694147036794,1.00407935130132,1922589.0,0.3601126602320619,1.356984868016748,-0.0008787999624071396,1926123.0,,,,,2124.4588337833334,2120.9248337833333,
133,11,20,f,1,3,125.0,11,1,low,2 + 1 + 9 + 1 - 1,12,13,11,12,2134.5747525,2136.6005974,2138.1161956,2143.1355184,2144.7966166,2144.7966217000003,2146.3132853,2147.330284,e,12.0,1.6610982000001968,1,+1,633,35.004443590828814,-0.01431601320690934,1.4961326428942767,1936244.0,23.102887467882134,1.8896996669323327,-0.3375467374289878,1939779.0,,,,,2138.1148337833333,2134.5798337833335,
134,11,20,f,1,3,126.0,12,4,low,2 + 5 - 3 + 9 + 8,21,19,22,21,2148.8471287,2150.872433,2152.3873921,2157.4061387,2158.53265,2158.5326562,2160.0497496000003,2161.0667709,e,21.0,1.1265112999999474,1,+1,634,-10.261749980125948,-0.13906274152150644,0.6416759888810946,1950516.0,25.52850119245025,0.4789665060627488,-0.5855020956418855,1954050.0,,,,,2152.3858337833335,2148.8518337833334,
135,11,20,f,1,3,127.0,13,2,low,4 + 8 + 1 + 1 - 6,8,7,8,9,2162.5854362,2164.6134671,2166.1284206,2171.1466447000003,2171.9966559,2171.9966613,2173.5134323,2174.5300737,w,8.0,0.8500111999996989,1,+1,635,14.810058434172358,-1.3983758953722356,0.3742207503794681,1964257.0,54.80318273756002,-0.001545042124838858,0.16433794247693712,1967790.0,,,,,2166.1258337833333,2162.5928337833334,
136,11,20,f,1,3,128.0,14,2,high,3 + 1 + 8 - 5 - 1,6,5,6,7,2176.0471648,2178.0734685,2179.588171,2184.6070327,2185.5965751,2185.5965805,2187.1133346,2188.1305853,w,6.0,0.9895423999996638,1,+10,645,-14.912079802775384,-0.14040388573928642,0.002007162285921016,1977717.0,3.0487745972217404,0.9976211171076841,-0.009441126629301078,1981251.0,,,,,2179.5868337833335,2176.0528337833334,
137,11,20,f,1,3,129.0,15,2,low,9 + 4 + 5 + 1 - 1,18,18,17,19,2189.6473328,2191.6750856,2193.1903609,2198.2082408,2199.148883,2199.1488886,2200.6653771,2201.682502,q,18.0,0.9406421999997292,1,+1,646,-17.193637576176478,-0.17288439768212882,1.8576908536679106,1991318.0,-25.054009224071148,0.35087759992048095,-0.14716083901999255,1994852.0,,,,,2193.1878337833336,2189.6538337833335,
138,11,20,f,1,3,130.0,16,3,high,3 + 8 + 1 + 5 - 9,8,7,9,8,2203.1997246,2205.2277128,2206.7428851,2211.7609662,2212.780529,2212.7805347,2214.2972746,2215.3145445,e,8.0,1.0195628000001309,1,+10,656,0.5797259066582185,0.3357969287935685,-0.09659069188712088,2004871.0,8.16499480104513,-0.25281985782357985,0.05617941710363228,2008405.0,,,,,2206.7408337833335,2203.2068337833334,
139,11,20,f,1,3,131.0,17,2,low,7 + 6 + 1 - 1 - 8,5,3,4,5,2216.8313301000003,2218.8576629,2220.3729676000003,2225.3914578,2226.5725331,2226.5725386,2228.0901232,2229.1070886,e,5.0,1.181075299999975,1,+1,657,15.545468898825494,-0.11098553562330782,-0.0026348259305533084,2018501.0,2.5977651950202407,-0.23086098148338952,-0.31382493098703623,2022035.0,,,,,2220.3708337833336,2216.8368337833335,
140,11,20,f,1,3,132.0,18,4,low,8 + 7 - 4 + 5 + 9,25,24,26,25,2230.6240241,2232.6492336,2234.1645496,2239.1830474,2240.1486157,2240.1486218,2241.6653488,2242.6822049,e,25.0,0.9655683000000864,1,+1,658,-9.956623005034704,-0.17144685066229037,0.24328324197191753,2032293.0,-30.677374605356118,-0.12428936975287108,-0.3820570510821413,2035826.0,,,,,2234.1618337833333,2230.6288337833334,
141,11,20,f,1,3,133.0,19,2,high,4 + 7 + 1 + 1 - 8,5,5,4,7,2244.1994147,2246.2228958,2247.7381098,2252.7579389,2253.6605369,2253.6605427,2255.1765721,2256.1939403,q,5.0,0.9025979999996708,1,+10,668,-3.1572571950867285,-0.6859383331842492,0.0020802106106483365,2045866.0,-11.20221459502606,1.5096759436774434,-0.5208699976583109,2049402.0,,,,,2247.7378337833334,2244.2018337833333,
142,11,20,f,1,3,134.0,20,2,low,9 + 6 + 1 + 7 + 1,24,25,24,23,2257.7107277,2259.7380549,2261.2534687,2266.2716203,2268.5565234,2268.556529,2270.0723287,2271.0893383,w,24.0,2.284903100000065,1,+1,669,2.5831246995658184,-0.5941304922912565,0.09159697908516273,2059381.0,-33.05986506098337,0.10157909819469246,-0.27835429585882654,2062915.0,,,,,2261.2508337833333,2257.716833783333,
143,11,20,f,1,3,135.0,21,3,high,4 + 7 - 3 + 5 - 1,12,11,13,12,2272.6063932,2274.6325641,2276.1479296,2281.1668281,2282.1245102000003,2282.124516,2283.6411909,2284.6594425,e,12.0,0.9576821000000564,1,+10,679,-19.37586298190613,-0.12607618791478892,0.5239363699236801,2074276.0,-4.767995148839322,-0.2217386412789235,0.435657685931393,2077810.0,,,,,2276.1458337833333,2272.611833783333,
144,11,20,f,1,3,136.0,22,4,low,6 + 9 + 7 - 3 - 5,14,13,14,15,2286.1767108,2288.2037033,2289.7189525,2294.7377025,2296.100499,2296.1005048,2297.616691,2298.6333088,w,14.0,1.3627965000000586,1,+1,680,-36.23869307060547,1.510464751083581,-0.6097931516333452,2087847.0,24.770566271445595,0.8911312454098281,0.34166394629092967,2091381.0,,,,,2289.716833783333,2286.1828337833335,
145,11,20,f,1,3,137.0,23,2,high,2 + 1 + 9 - 4 + 1,9,8,11,9,2300.1500086,2302.1743563,2303.6895873,2308.7078817,2309.9085494,2309.908555,2311.4250124,2312.4427273,e,9.0,1.20066769999994,1,+10,690,-16.047584907625122,0.4038512313131539,-0.14954497294998337,2101818.0,-41.21381283079842,-1.5104318343870178,0.49251672129034496,2105351.0,,,,,2303.6868337833334,2300.1538337833335,
146,11,20,f,1,3,138.0,24,4,low,5 + 8 - 6 + 7 + 4,18,17,19,18,2313.9594765,2315.985274,2317.5001998,2322.5186753000003,2325.868448,2325.8684537,2327.3845942000003,2328.401519,e,18.0,3.349772699999903,1,+1,691,-39.29180520225391,0.9690393590299191,0.029852552246124597,2115628.0,8.579755427674193,0.4829240461962838,-0.1909499236723844,2119162.0,,,,,2317.497833783333,2313.9638337833335,
147,11,20,f,1,3,139.0,25,2,high,5 + 1 + 7 - 6 + 1,8,6,8,7,2329.9183336,2331.9426991,2333.4575633,2338.4771757,2341.676546,2341.6765518,2343.1935915,2344.2111906,w,8.0,3.1993703000002824,1,+10,701,-0.32533299329653786,-0.6173614563014329,-0.26802950285092697,2131586.0,25.45642512483832,0.024036271146912647,1.2994133984839975,2135121.0,,,,,2333.4568337833334,2329.921833783333,
148,11,20,f,1,3,140.0,26,3,high,7 + 1 + 9 + 5 - 6,16,14,15,16,2345.728533,2347.7558754,2349.2712018,2354.2911118,2355.4603786,2355.4603841000003,2356.9771176,2357.9950886,e,16.0,1.1692668000000594,1,+10,711,8.229824799247744,0.22132081712824636,-0.30062467062951637,2147399.0,-12.140031240386627,0.8768999221171141,0.18942245527829504,2150934.0,,,,,2349.2698337833335,2345.734833783333,
149,11,20,f,1,3,141.0,27,3,low,7 - 6 + 8 + 1 + 7,17,17,16,15,2359.5111102,2361.5369889,2363.0524382,2368.0712308,2368.9323749,2368.9323804,2370.4480676000003,2371.4649054,q,17.0,0.8611440999998194,1,+1,712,-4.93338992300712,0.19042545661524723,0.21133497715750282,2161180.0,-23.999652082799106,0.9007621570162803,-0.03502103554845304,2164714.0,,,,,2363.0498337833333,2359.515833783333,
150,11,20,f,1,3,142.0,28,1,high,6 + 1 + 8 + 1 + 1,17,15,16,17,2372.9820062,2375.0080616,2376.5232867,2381.5414548,2382.5244094,2382.524415,2384.0405656000003,2385.057707,e,17.0,0.9829546000000846,1,+10,722,10.17317114771251,-0.6460760982366835,0.3520224711038664,2174651.0,13.69981163676763,1.4764630200630835,0.024851770498509396,2178185.0,,,,,2376.5208337833333,2372.986833783333,
151,11,20,f,1,3,143.0,29,2,high,6 + 1 + 7 - 8 - 1,5,5,4,7,2386.5748279,2388.6020988,2390.1174638,2395.1363186,2396.0684341,2396.0684397,2397.5849997,2398.6022405,q,5.0,0.9321155000002364,1,+10,732,11.895606169689692,0.5115499357326083,0.271788844182721,2188245.0,-21.92504382786237,0.7907148312900194,-1.5698991692092865,2191779.0,,,,,2390.1148337833333,2386.580833783333,
152,11,20,f,1,3,144.0,30,2,high,2 + 9 + 1 + 1 - 5,8,6,7,8,2400.1187805,2402.142039,2403.6572506,2408.6752052,2409.6044166,2409.6044227,2411.1212459,2412.1387055,e,8.0,0.9292113999999856,1,+10,742,-32.88599754748051,0.5396684638249312,0.23777755964085356,2201785.0,-15.651185767414606,0.24224171459689003,-0.10907499763549566,2205318.0,,,,,2403.6538337833335,2400.120833783333,
153,11,20,f,1,3,145.0,31,3,high,3 + 1 + 6 - 8 + 9,11,11,12,13,2413.6548736,2415.6831049,2417.1979251,2422.2158648,2422.9883643000003,2422.9883696,2424.5044414,2425.5226136,q,11.0,0.7724995000003219,1,+10,752,14.081387108126936,0.46661502482375106,-0.0735707691068681,2215326.0,-27.584850019614525,-0.09298805156485113,0.5377514995346204,2218859.0,,,,,2417.1948337833333,2413.6618337833333,
154,11,20,f,1,3,146.0,32,1,high,3 + 1 + 1 + 9 - 1,13,12,14,13,2427.0398644,2429.0636128,2430.5788337,2435.5975653,2436.6204211,2436.6204277,2438.1379324,2439.1552736,e,13.0,1.0228557999998884,1,+10,762,-7.460172192224828,-0.10882858651152283,0.14532664171081433,2228707.0,-0.2715684887232257,0.09114336713223015,-0.7924438769449673,2232240.0,,,,,2430.575833783333,2427.042833783333,
155,11,20,f,1,3,147.0,33,4,high,8 + 4 + 7 - 5 - 6,8,8,9,6,2440.6721922,2442.6975777,2444.2126603,2449.2312072,2449.9963163,2449.9963214,2451.513009,2452.530347,q,8.0,0.7651091000002452,1,+10,772,-3.714229835688391,0.31961773261679305,-0.19796291313719516,2242340.0,-3.926231213068238,1.5056680879451383,0.011885316335487506,2245874.0,,,,,2444.209833783333,2440.6758337833335,
156,11,20,f,1,3,148.0,34,1,low,7 + 1 + 4 + 1 - 1,12,12,13,11,2454.0472801,2456.0741545,2457.5893829,2462.6077865,2463.5483608,2463.548366,2465.063946,2466.0808962,q,12.0,0.9405742999997528,1,+1,773,-19.095912975228813,-0.30326619522417886,-0.40443755037037254,2255717.0,17.420597419748972,-0.5986634038558964,0.05350443625904755,2259251.0,,,,,2457.5868337833335,2454.0528337833334,
157,11,20,f,1,3,149.0,35,3,high,8 + 4 + 1 - 7 + 9,15,16,15,13,2467.5985198,2469.6247572,2471.1400075,2476.1596795,2477.1003714,2477.1003777,2478.617031,2479.6344166,w,15.0,0.9406918999998196,1,+10,783,22.12861690052392,0.24012689439652313,-0.6348872798416227,2269268.0,36.254780180918594,1.319202941019368,0.8707014273570075,2272803.0,,,,,2471.138833783333,2467.6038337833334,
158,11,20,f,1,3,150.0,36,2,low,7 + 5 + 1 + 9 + 1,23,22,21,23,2481.1511848,2483.1782586,2484.6933006,2489.7124291,2491.0283295000004,2491.0283354,2492.5450132,2493.561662,e,23.0,1.3159004000003731,1,+1,784,-1.6572663867493667,0.3272494191092772,-0.7586772416466081,2282821.0,3.9616591124181344,1.0414095230688822,1.849836694815929,2286355.0,,,,,2484.6908337833333,2481.1568337833332,
159,11,20,f,1,3,151.0,37,2,high,3 + 9 + 1 - 5 + 1,9,8,9,7,2495.0785047000004,2497.1055609,2498.6212798,2503.6403878,2504.7163256,2504.7163318,2506.2327052000005,2507.2502368,w,9.0,1.075937800000247,1,+10,794,17.50901995666341,1.4217210454221298,-0.6584842910284938,2296748.0,7.941322452110911,0.5435811558575878,0.10442376277063259,2300282.0,,,,,2498.6178337833335,2495.0838337833334,
160,11,20,f,1,4,152.0,0,4,high,5 + 6 - 4 + 7 + 9,23,23,25,24,2578.5526283000004,2580.5806275,2582.0956647,2587.1157817,2587.9561592000005,2587.9561646,2589.4724487,2590.4897758,q,23.0,0.8403775000006135,1,+10,804,3.712606119565846,0.2957325868177638,3.3978311054607513,2380223.0,-7.722826660801058,1.4102317353125469,2.4120855159442636,2383758.0,,,,,2582.093833783333,2578.5588337833333,
161,11,20,f,1,4,153.0,1,2,low,9 + 6 + 1 + 7 + 1,24,25,24,23,2592.006596,2594.0343029,2595.5497809000003,2600.5678831,2601.7001654,2601.7001711,2603.2170077000005,2604.233786,w,24.0,1.1322823000000426,1,+1,805,24.2527486279776,0.7433090535431686,-0.9804577029594963,2393677.0,5.288457586242478,0.6229979439310749,0.5000897773357433,2397210.0,,,,,2595.5458337833334,2592.0128337833335,
162,11,20,f,1,4,154.0,2,4,high,5 + 8 - 4 - 6 + 9,12,12,14,13,2605.7506736,2607.7768119,2609.2917304,2614.3099558,2615.1321871000005,2615.1321927000004,2616.6488398,2617.6665123,q,12.0,0.822231300000567,1,+10,815,-8.083483938094771,1.3761706508366736,-1.0508547206144279,2407419.0,-1.3811652508323986,0.2330029154995108,0.7478329733562346,2410953.0,,,,,2609.2888337833333,2605.754833783333,
163,11,20,f,1,4,155.0,3,3,high,6 - 1 + 7 - 8 + 9,13,12,13,11,2619.1837047000004,2621.2084324,2622.7237481,2627.7422406,2628.6282458,2628.6282514,2630.1447593,2631.1619916000004,w,13.0,0.8860051999999996,1,+10,825,26.122645116496276,0.716354747418547,-1.7683466902827636,2420851.0,26.891125111667378,0.814366072580663,-0.4007983630467171,2424385.0,,,,,2622.7208337833335,2619.1868337833334,
164,11,20,f,1,4,156.0,4,4,high,2 + 9 - 4 + 8 + 7,22,23,21,22,2632.6784791000005,2634.7048595,2636.2202714,2641.2394935,2642.3801198,2642.3801255000003,2643.8966495,2644.9139825,e,22.0,1.1406262999998944,1,+10,835,-14.561274052090312,0.787454225755587,-0.916632983765794,2434347.0,2.951788939139636,0.7312510818039057,-0.09838192751932828,2437881.0,,,,,2636.216833783333,2632.6828337833335,
165,11,20,f,1,4,157.0,5,2,high,3 + 8 - 5 + 1 + 1,8,6,8,9,2646.4308178,2648.4585582000004,2649.9735186000003,2654.9916557,2655.9001643,2655.9001711,2657.4168341,2658.4341115,e,9.0,0.90850859999955,0,+0,835,-6.184320063321032,0.06438342186120805,0.815122797572641,2448101.0,-4.091030417111444,0.9091916173994363,0.24833629140372526,2451634.0,,,,,2649.9698337833333,2646.4368337833334,
166,11,20,f,1,4,158.0,6,2,high,3 + 9 - 1 - 5 + 1,7,6,5,7,2659.9507172,2661.9744153,2663.4897412000005,2668.5084774,2669.5561086,2669.5561143,2671.0727806,2672.089921,e,7.0,1.047631200000069,1,+10,845,4.33392210810989,0.8570113107341935,0.4711322011488104,2461617.0,-23.415947626802776,0.811136246966679,-0.4200740300542041,2465151.0,,,,,2663.486833783333,2659.9528337833335,
167,11,20,f,1,4,159.0,7,2,low,6 + 1 + 8 + 5 - 1,19,18,19,17,2673.6068407,2675.6351967000005,2677.150434,2682.1689606000004,2683.3000546,2683.3000598000003,2684.8168743,2685.8338576,w,19.0,1.1310939999993934,1,+1,846,-12.603316224310412,1.0503521908481859,-0.6003856016108111,2475277.0,-2.7694164272215893,1.2878398069340329,0.31536507971886163,2478811.0,,,,,2677.1468337833335,2673.6128337833334,
168,11,20,f,1,4,160.0,8,2,high,9 + 5 - 6 + 1 - 1,8,7,9,8,2687.3509234,2689.3754063,2690.8907448000004,2695.9099961,2696.9080589,2696.9080643,2698.4246047,2699.442017,e,8.0,0.998062800000298,1,+10,856,17.02529243230518,1.0238641504769648,0.6321250929952482,2489018.0,-2.198952737099841,0.21203601384582216,-3.960195446531822,2492553.0,,,,,2690.888833783333,2687.3538337833334,
169,11,20,f,1,4,161.0,9,4,high,8 + 4 - 5 + 7 - 6,8,8,6,7,2700.9589159,2702.9866150000003,2704.5019125000003,2709.5222786,2710.3240988,2710.3241044,2711.8409774,2712.8583678,q,8.0,0.801820200000293,1,+10,866,15.385320328181795,0.27604285367904424,-0.018463046206970368,2502629.0,1.10784112822326,0.4564446753444118,-2.162879165044579,2506165.0,,,,,2704.5008337833333,2700.9648337833332,
170,11,20,f,1,4,162.0,10,4,high,9 + 7 - 5 + 8 + 6,25,27,25,24,2714.3754465,2716.4125949000004,2717.9278858,2722.9467550000004,2724.7080545000003,2724.7080602,2726.2246550000004,2727.2418875,w,25.0,1.76129949999995,1,+10,876,8.781912624286452,0.9958290601683295,1.0546565354646944,2516055.0,-8.01012516749988,0.5147558378680768,-0.17262192432345103,2519589.0,,,,,2717.9248337833333,2714.390833783333,
171,11,20,f,1,4,163.0,11,4,low,4 + 9 - 7 + 8 + 5,19,19,21,20,2728.7589047,2730.7861740000003,2732.3015445,2737.3202174000003,2738.2039483000003,2738.2039542,2739.7203891000004,2740.7374261,q,19.0,0.883730900000046,1,+1,877,9.5999618102259,1.7360114101019546,-0.19042411792169656,2530428.0,-47.938859284204256,0.9084496213191025,0.06678137515570715,2533963.0,,,,,2732.2988337833335,2728.763833783333,
172,11,20,f,1,4,164.0,12,1,high,7 + 1 + 4 + 1 - 1,12,13,12,14,2742.2544571000003,2744.2813874,2745.7967527,2750.8152895,2751.843987,2751.8439924,2753.3605027,2754.3773814,w,12.0,1.0286974999999074,1,+10,887,-26.562590273730876,-0.22386611934517253,-0.7050392828470589,2543924.0,9.810893370427841,-0.057306429112378154,-0.20680983221999938,2547458.0,,,,,2745.7938337833334,2742.2598337833333,
173,11,20,f,1,4,165.0,13,3,low,3 + 8 - 7 - 1 + 9,12,14,13,12,2755.8941098,2757.9182214,2759.4335385,2764.4520971,2765.4920067,2765.4920122,2767.0091076000003,2768.0261249,e,12.0,1.039909600000101,1,+1,888,9.951325144374886,0.8780111476966437,-0.3634896174394999,2557560.0,-23.653549438102964,0.5676166986770261,0.006937853505848857,2561094.0,,,,,2759.4298337833334,2755.8958337833333,
174,11,20,f,1,4,166.0,14,2,low,8 + 1 + 1 + 9 - 4,15,15,16,14,2769.5437179000005,2771.570971,2773.0861914,2778.1040252,2779.1479756000003,2779.1479813,2780.6644086,2781.6811446,q,15.0,1.04395040000054,1,+1,889,24.395349190420063,0.8926438819431302,0.456624505470943,2571213.0,23.348075095134305,0.6342887408633393,-1.2356638794073138,2574747.0,,,,,2773.082833783333,2769.5488337833335,
175,11,20,f,1,4,167.0,15,3,low,7 + 5 + 9 + 1 - 6,16,15,14,16,2783.1978264000004,2785.2255125,2786.7407757,2791.7597977,2792.6999853,2792.6999911,2794.2170979,2795.2342657000004,e,16.0,0.940187600000172,1,+1,890,24.844333706323756,0.6878954677251583,0.7969703038521994,2584868.0,22.006720849212485,-0.25178480832843286,-0.5318421772618769,2588402.0,,,,,2786.7378337833334,2783.2038337833333,
176,11,20,f,1,4,168.0,16,4,high,7 + 8 - 4 + 6 + 5,22,23,22,21,2796.7511278,2798.7750405,2800.2902235,2805.3087132000005,2806.3639854,2806.3639912000003,2807.8805296000005,2808.8976850000004,w,22.0,1.0552721999993082,1,+10,900,13.282603569087815,0.8118763030985656,-0.35635076506780816,2598417.0,4.755408505252635,0.12598089107364885,-0.057608701524311634,2601951.0,,,,,2800.2868337833333,2796.7528337833332,
177,11,20,f,1,4,169.0,17,3,low,5 + 7 + 1 - 4 + 6,15,17,13,15,2810.4145848000003,2812.4412035,2813.9567581,2818.9752298,2820.3798989,2820.3799049000004,2821.8962472,2822.9132190000005,e,15.0,1.4046691000003193,1,+1,901,6.907683858142294,0.6835100715829672,-0.42405701632462467,2612083.0,-82.01546903096032,1.3629902936568064,0.44362579881818354,2615617.0,,,,,2813.9528337833335,2810.4188337833334,
178,11,20,f,1,4,170.0,18,2,high,8 + 1 + 4 - 7 + 1,7,7,5,6,2824.4300485,2826.4572843,2827.9727486,2832.9910726000003,2837.1719142,2837.1719194,2838.6886031,2839.7066694,e,6.0,4.18084159999944,0,+0,901,-14.926626864501838,0.643264632674593,-0.351381836702501,2626099.0,-20.325858569360463,0.28109627247598645,1.8434882244716362,2629633.0,,,,,2827.968833783333,2824.4348337833335,
179,11,20,f,1,4,171.0,19,3,high,7 - 5 + 9 + 1 - 4,8,7,8,9,2841.2235539,2843.2499009,2844.7650908,2849.7839388,2850.6678491,2850.6678546,2852.1841658,2853.2016577,w,8.0,0.883910300000025,1,+10,911,-12.59436832741733,1.0053730995005195,-2.099448541482847,2642892.0,18.07160622797912,0.5126832947940141,-0.054568626172973644,2646426.0,,,,,2844.7618337833333,2841.227833783333,
180,11,20,f,1,4,172.0,20,3,low,7 - 1 + 8 - 6 + 4,12,11,12,13,2854.7184655,2856.7422831,2858.2572583,2863.2761463,2864.3318992,2864.3319047,2865.8487475,2866.8656101,w,12.0,1.0557528999997885,1,+1,912,-9.767707317223937,0.8423912312486537,0.673934027616236,2656384.0,-1.6022473279352472,1.4357304895596203,-0.0527356400803769,2659918.0,,,,,2858.2538337833334,2854.7198337833333,
181,11,20,f,1,4,173.0,21,1,high,3 + 1 + 8 + 1 + 1,14,13,14,16,2868.3820402,2870.4064197,2871.9215704000003,2876.9401586,2877.7318390000005,2877.7318442,2879.2479055,2880.2651304,w,14.0,0.7916804000005868,1,+10,922,-9.701766630073402,0.10399071002044602,-0.09277991549172349,2670049.0,2.731993238599692,-0.515832690318784,0.1751485359448708,2673582.0,,,,,2871.917833783333,2868.3848337833333,
182,11,20,f,1,4,174.0,22,3,low,9 + 3 - 4 + 6 + 7,21,21,23,22,2881.7818620000003,2883.8078721,2885.3231868,2890.3418531,2891.4997819000005,2891.4997874000005,2893.0162504000004,2894.0329988,q,21.0,1.1579288000002634,1,+1,923,-37.276682640500354,1.2313273663283333,0.4119383218680257,2683450.0,37.652405724216514,1.5254188370594215,0.1132032881619427,2686984.0,,,,,2885.3198337833333,2881.785833783333,
183,11,20,f,1,4,175.0,23,3,high,6 + 7 + 8 + 1 - 9,13,15,14,13,2895.5496479,2897.5760382000003,2899.0913775000004,2904.1099759000003,2905.1398451,2905.1398511,2906.6565271000004,2907.6732862000003,e,13.0,1.0298691999996663,1,+10,933,2.501468943511778,0.8036510135937749,-0.09872920128418272,2697218.0,-36.11080649320466,0.6909386284080297,0.17705147521505538,2700752.0,,,,,2899.0878337833333,2895.553833783333,
184,11,20,f,1,4,176.0,24,2,high,2 + 1 + 9 - 4 + 1,9,9,11,8,2909.1903986,2911.2183934,2912.733753,2917.7519112000004,2918.6677902,2918.6677954,2920.1845073,2921.2019464,q,9.0,0.9158789999992224,1,+10,943,15.591910337147215,0.9367807875096297,-0.3643199484041171,2710860.0,-25.502209268254592,0.8020538828277721,-0.25291024664070383,2714394.0,,,,,2912.729833783333,2909.1958337833335,
185,11,20,f,1,4,177.0,25,1,high,8 + 1 + 4 + 1 + 1,15,16,14,15,2922.7183914,2924.7463748000005,2926.261637,2931.2797801,2932.7318643000003,2932.7318706,2934.2486767000005,2935.265903,e,15.0,1.452084200000172,1,+10,953,11.190498242011596,0.40862894198587485,-1.347969200509775,2724388.0,13.468594667850507,0.3014456939848116,0.3119538652933267,2727922.0,,,,,2926.2578337833334,2922.7238337833332,
186,11,20,f,1,4,178.0,26,1,high,6 + 1 + 1 + 9 - 1,16,14,16,15,2936.7826536,2938.8081992,2940.323358,2945.3416262000005,2946.3557415,2946.355747,2947.8726334,2948.8900182,w,16.0,1.014115299999503,1,+10,963,14.629089200773691,-0.10650660648659027,-0.20059720184577912,2738449.0,-9.991137507677902,-0.43933985686735344,-0.42156401548332867,2741983.0,,,,,2940.3188337833335,2936.7848337833334,
187,11,20,f,1,4,179.0,27,2,high,4 + 9 + 1 - 7 - 1,6,6,8,5,2950.4068678,2952.4331372,2953.9482729,2958.9683263,2960.0277518,2960.027758,2961.5439733,2962.5610686000005,q,6.0,1.0594254999996338,1,+10,973,5.798286864087704,0.5915675651476038,-0.11566292895756325,2752075.0,20.27624077224201,0.7053465800690986,-0.2865548243209233,2755610.0,,,,,2953.9458337833335,2950.410833783333,
188,11,20,f,1,4,180.0,28,4,low,3 + 8 - 5 + 9 - 7,8,6,7,8,2964.0777165000004,2966.1020465,2967.6174117000005,2972.6361011000004,2973.635775,2973.6357809,2975.1522595,2976.1688189,e,8.0,0.9996738999998342,1,+1,974,-19.506376770814548,0.32756891137887756,1.207583506855958,2765744.0,19.618189962977237,0.6408855145272501,-0.03509923432263928,2769278.0,,,,,2967.613833783333,2964.0798337833335,
189,11,20,f,1,4,181.0,29,2,low,7 + 1 + 9 - 1 - 8,8,6,8,7,2977.6853067,2979.7127661,2981.2279622,2986.2468174,2987.1237207,2987.1237261,2988.6402568,2989.6571429,w,8.0,0.8769032999998672,1,+1,975,-10.18338478531414,0.49265456110042827,-0.04512890277397741,2779354.0,11.51603650868519,0.8873892666565166,0.07486009078137212,2782888.0,,,,,2981.2238337833332,2977.689833783333,
190,11,20,f,1,4,182.0,30,4,low,5 + 7 - 4 + 8 + 6,22,24,23,22,2991.1739621,2993.2002853,2994.7155959,2999.7341103000003,3000.7236881000003,3000.7236933,3002.2397298,3003.2568623,e,22.0,0.9895778000000064,1,+1,976,-12.86213534887042,0.6753890836922185,-0.048339627668340324,2792842.0,27.50308888960877,1.1266833695753866,0.17387903852392128,2796376.0,,,,,2994.7118337833335,2991.1778337833334,
191,11,20,f,1,4,183.0,31,4,high,7 + 6 - 9 + 8 - 3,9,7,9,8,3004.7737106,3006.8010976,3008.3164413,3013.3363713000003,3014.1796991,3014.1797048000003,3015.6963004000004,3016.7127078,w,9.0,0.8433277999993152,1,+10,986,-16.61011516393458,0.21819234594067094,0.40447399736565837,2806443.0,7.317013138656737,0.6693955334479504,0.8198368845600839,2809978.0,,,,,3008.3138337833334,3004.7788337833335,
192,11,20,f,1,4,184.0,32,4,high,6 + 7 + 9 - 3 + 5,24,24,22,23,3018.2292861,3020.2540012000004,3021.7690658,3026.7879151,3027.6756682,3027.6756737,3029.1920647,3030.2093455,q,24.0,0.8877530999998271,1,+10,996,11.412509025232614,1.0419602068426905,-0.09913966564979648,2819896.0,10.563660077543869,0.13403862870149652,0.15192922745735404,2823429.0,,,,,3021.7648337833334,3018.2318337833335,
193,11,20,f,1,4,185.0,33,4,low,3 + 9 - 5 + 8 - 7,8,9,8,7,3031.7262175,3033.7532961,3035.2687281000003,3040.2872309,3041.2437169,3041.2437227000005,3042.7613106000003,3043.7785047,w,8.0,0.9564860000000408,1,+1,997,-35.13754233602255,0.8878827859897851,-0.07013419704052137,2833395.0,15.44803777758203,0.9274175211774924,0.23677053123976322,2836929.0,,,,,3035.2648337833334,3031.7308337833333,
194,11,20,f,1,4,186.0,34,3,low,5 + 1 + 7 - 8 + 6,11,11,13,9,3045.2956999000003,3047.3240168,3048.839308,3053.8581926,3055.0516969000005,3055.0517023,3056.5685038,3057.5854451,q,11.0,1.1935043000003134,1,+1,998,-4.408212713508158,0.16917179697369722,1.27077943184109,2846965.0,-9.507189789637216,0.35719568189062345,0.0749345099429255,2850500.0,,,,,3048.8358337833333,3045.3008337833335,
195,11,20,f,1,4,187.0,35,1,low,9 + 7 + 1 + 1 + 1,19,19,18,20,3059.1023653,3061.1281402,3062.6434892,3067.6613772000005,3068.7156105,3068.7156158000003,3070.2327558,3071.2494223,q,19.0,1.054233299999396,1,+1,999,-42.30183495676887,0.03443353012885053,-0.11527241330669469,2860770.0,13.204400336644142,0.51741705350672,0.1852145149666844,2864303.0,,,,,3062.638833783333,3059.1058337833333,
196,11,20,f,1,4,188.0,36,3,low,8 - 1 + 6 - 7 + 5,11,12,13,11,3072.7662983000005,3074.7935517,3076.3086543000004,3081.3272323,3082.4996312,3082.4996376000004,3084.0161923,3085.0330644,e,11.0,1.172398900000189,1,+1,1000,29.4199765652327,1.2346071102851903,-0.11289422396494264,2874435.0,-14.616826182436604,0.9566853613850932,0.041604828518917225,2877969.0,,,,,3076.3048337833334,3072.7708337833333,
197,11,20,f,1,4,189.0,37,4,low,8 + 3 - 4 + 5 + 9,21,22,23,21,3086.5497735000004,3088.5770504,3090.0921144,3095.110379,3096.3315839,3096.3315895,3097.8480282000005,3098.8649927,e,21.0,1.2212048999999752,1,+1,1001,4.74375907189357,1.4517223257209038,0.16698757633151784,2888218.0,-9.479789749452205,0.6109836761315082,-0.10406871985238197,2891752.0,,,,,3090.0878337833333,3086.553833783333,
198,11,20,f,1,5,190.0,0,3,high,7 - 1 + 8 - 6 + 4,12,13,12,11,3131.2958022,3133.3234521,3134.8384677,3139.8585534,3140.7395895000004,3140.7395957000003,3142.2562546000004,3143.2735951,w,12.0,0.8810361000005287,1,+10,1011,-12.561936813092991,0.7930948752937605,-0.18459052239345963,2932965.0,15.58907189478906,0.4202970242316577,0.16997857977613506,2936500.0,,,,,3134.8358337833333,3131.3008337833335,
199,11,20,f,1,5,191.0,1,2,low,4 + 9 - 7 + 1 - 1,6,6,8,5,3144.7902967000005,3146.8173721,3148.3327792000005,3153.3516169,3154.3155166,3154.3155223,3155.8317727,3156.8487913000004,q,6.0,0.9638997000001835,1,+1,1012,-13.526729168807764,0.9890133640933714,0.49439241150083246,2946459.0,-9.603226729421406,1.0211107641205848,0.5584959095429993,2949993.0,,,,,3148.3288337833333,3144.794833783333,
