,id,age,sex,cued,block,trial,trialinblock,efflev,rewlev,calc,corAns,option1,option2,option3,tstart,ITI1Time,probTime,respTime,selectTime,ITI2Time,fbTime,ITI3Time,key_press,chosenAns,RT,acc,feedback,total_points,cuescr,cuecor,cuezyg,cuetime,probscr,probcor,probzyg,probtime,fbscr,fbcor,fbzyg,fbtime,probtime_c,cuetime_c,fbtime_c
0,12,21,f,0,Practice,,0,1,0,4 + 1 + 9 + 1 + 1,16,16,15,14,65.03844350000054,,65.03844570000001,70.06662700000015,71.7867256999998,71.78673200000048,73.30398800000057,74.32542600000033,q,16.0,1.720098699999653,1,Correct,0,,,,,-13.337887611046146,-0.10377586886690615,-0.003861310067618584,64282.0,7.295927807360421,0.5920062683176344,0.046944799110677504,72541.0,65.05327369100016,,73.31227369100016
1,12,21,f,0,Practice,,1,1,0,3 + 1 + 1 + 8 - 1,12,12,10,11,75.84367399999974,,75.84367720000046,80.86551370000052,82.81881599999997,82.81882219999989,84.33564949999982,85.35281250000025,q,12.0,1.95330229999945,1,Correct,0,,,,,-12.643751674133748,-0.1580056460953747,-0.19668865359343823,75080.0,21.373529207678786,-1.82072951483166,0.3868868300362849,83568.0,75.85127369100016,,84.33927369100016
2,12,21,f,0,Practice,,2,2,0,8 + 1 + 6 + 1 - 4,12,11,10,12,86.87029340000026,,86.87029679999978,91.88948530000016,94.57091350000064,94.57091990000026,96.08788900000036,97.10608409999986,e,12.0,2.6814282000004823,1,Correct,0,,,,,4.488127660231381,-0.8526995209482235,0.1076100466127603,86105.0,19.791645177001776,-0.028685384952328086,-0.10834034349167876,95321.0,86.87627369100016,,96.09227369100016
3,12,21,f,0,Practice,,3,2,0,9 + 4 - 6 + 1 - 1,7,7,6,5,98.6231925000002,,98.62319579999983,103.64349829999992,104.96282299999984,104.96283200000016,106.4795823000004,107.49649750000026,q,7.0,1.3193246999999246,1,Correct,0,,,,,-10.662942088675504,0.39924064455670916,-0.1060407312161129,97859.0,3.5526629400482763,-0.06944923578358253,-0.11589595333286451,105712.0,98.63027369100016,,106.48327369100016
4,12,21,f,0,Practice,,4,3,0,9 + 3 - 5 + 6 + 7,20,21,22,20,109.01321110000026,,109.01321389999976,114.0325585999999,115.88273579999986,115.88274230000025,117.39947960000065,118.41665749999991,e,20.0,1.8501771999999617,1,Correct,0,,,,,14.60245841902814,0.774623854562841,-0.004458596765724243,108248.0,6.169295345583368,-0.16496998314008504,-0.26535544072040596,116632.0,109.01927369100017,,117.40327369100017
5,12,21,f,0,Practice,,5,3,0,2 + 1 + 9 - 7 + 6,11,10,9,11,119.93347530000028,,119.9334783000004,124.95245330000034,126.23460350000003,126.23460990000058,127.75127560000055,128.76912319999974,e,11.0,1.2821501999997054,1,Correct,0,,,,,3.7249377684106797,-0.40473371333256214,0.14353107395593412,119168.0,-5.914365076852912,-0.2579283930877052,-0.09162908373678746,126984.0,119.93927369100017,,127.75527369100016
6,12,21,f,0,Practice,,6,4,0,4 + 8 + 5 - 3 + 7,21,21,22,23,130.28627270000015,,130.28627570000026,135.30596060000062,138.0025966000003,138.0026029999999,139.51937199999975,140.5371452999998,q,21.0,2.696635999999671,1,Correct,0,,,,,-21.494295433197724,-0.09269277784270358,-0.09358384394820529,129521.0,5.241272441504027,-0.5413714891179371,-0.4665116838005543,138752.0,130.29227369100016,,139.52327369100018
7,12,21,f,0,Practice,,7,4,0,5 + 8 - 4 + 6 + 9,24,24,22,23,142.05485959999987,,142.0548628000006,147.07445929999994,149.0908212000004,149.0908276,150.6079348000003,151.6259372000004,q,24.0,2.016361900000448,1,Correct,0,,,,,3.415589470833016,-0.6410128985915353,-0.012802583443468185,141289.0,-12.680050338351473,-0.0819759261266988,0.1211866567409039,149841.0,142.06027369100016,,150.61227369100018
8,12,21,f,1,0,0.0,0,1,low,5 + 1 + 1 + 9 + 1,17,16,17,19,310.1522494999999,312.17842980000023,313.6937902999998,318.7120724000006,319.7681665,319.7681719000002,321.28513290000046,322.30245340000056,w,17.0,1.0560940999994273,1,+1,1,4.364231907234096,1.3322571049369039,-0.36319551846035925,309393.0,30.189216494126427,-4.166312388962369,-0.4020460258724383,312927.0,-26.493261167171998,0.15865889007279144,0.11802096538923279,320517.0,313.69827369100017,310.1642736910001,321.28827369100014
9,12,21,f,1,0,1.0,1,2,low,8 + 1 + 9 + 1 - 4,15,14,16,15,323.8191697000002,325.8466195000001,327.36179510000056,332.3806295000004,333.7440926999998,333.7440974000001,335.26057330000003,336.27752390000023,e,15.0,1.3634631999993871,1,+1,2,3.140323382096298,0.7253554747954514,0.027811121994514076,323061.0,10.356797898308603,-0.7682646130465347,0.28348968818014186,326595.0,1.2158436554391967,-0.5003866706537767,-0.26201941426716924,334492.0,327.3662736910002,323.8322736910001,335.26327369100017
10,12,21,f,1,0,2.0,2,4,low,5 + 8 - 4 - 6 + 9,12,12,13,14,337.7941971,339.8202710000005,341.3357814000001,346.3542039000004,347.6560786,347.6560838000005,349.1724098000004,350.18942640000023,q,12.0,1.3018746999996438,1,+1,3,17.990535582142748,1.652620983820987,-0.03655724658767845,337035.0,9.236801050755549,0.6633567433920717,0.19079888861267835,340569.0,14.509094103323193,-0.24645052531933143,-0.1665533259190326,348404.0,341.34027369100016,337.8062736910002,349.17527369100014
11,12,21,f,1,0,3.0,3,4,high,2 + 9 - 3 + 5 + 8,21,22,23,21,351.7064792000001,353.7322885000003,355.24765339999976,360.26611349999985,365.28362000000016,365.2836225000001,366.8003636000003,367.8219815000002,,,,0,Too Slow!,3,13.940373327029835,0.640703210429848,0.05790368539598978,350947.0,-4.956191244822444,0.037726834867572556,0.4529749745384559,354481.0,8.847225978654478,0.16537080729329912,-0.20401234038846572,366036.0,355.25227369100014,351.71827369100015,366.80727369100015
12,12,21,f,1,0,4.0,4,4,high,2 + 9 - 6 + 8 - 4,9,9,7,11,369.33895010000015,371.3652112,372.88016490000064,377.8985570000005,378.9920646999999,378.9920701000001,380.5088206999999,381.52698620000047,q,9.0,1.0935076999994635,1,+10,13,-22.756921555888837,0.2748626973931083,0.4507796942515341,368580.0,-13.958513321483544,-0.6528053707200687,0.27640559366164186,372113.0,,,,,372.88427369100015,369.35127369100013,
13,12,21,f,1,0,5.0,5,4,high,5 + 7 - 4 - 6 + 9,11,12,11,13,383.04450520000046,385.0662542,386.5817361,391.60168330000033,392.7920005000005,392.7920055000004,394.3097597000005,395.3271556999998,w,11.0,1.190317200000209,1,+10,23,11.027605067748082,0.654006257344304,-0.5994596348123915,382281.0,25.709282662927855,0.2940606615783903,0.1571643795291613,385816.0,,,,,386.5872736910001,383.05227369100015,
14,12,21,f,1,0,6.0,6,3,high,8 + 3 + 1 - 7 + 9,14,15,14,12,396.8439758000004,398.8681959000005,400.3833488999999,405.4033952,406.5920135000006,406.5920185000005,408.1086231999998,409.1259434000003,w,14.0,1.1886183000005983,1,+10,33,-0.8501280041387993,0.6028470321706871,7.0962781255682605,396082.0,11.294270635599148,-0.3259080500135898,0.10993165779383851,399618.0,,,,,400.38927369100014,396.85327369100014,
15,12,21,f,1,0,7.0,7,3,high,6 - 1 + 7 - 8 + 9,13,12,11,13,410.6426792000002,412.6688045000001,414.1841101,419.2020914000004,420.4879510999999,420.48795640000026,422.00475240000014,423.0226094,e,13.0,1.2858596999994916,1,+10,43,-12.59850500321416,1.3174350625121347,-0.002732605084046158,409883.0,35.236584184177005,-0.014130234427764066,0.10010778550984556,413417.0,,,,,414.1882736910001,410.6542736910001,
16,12,21,f,1,0,8.0,8,3,high,8 - 1 + 6 - 7 + 5,11,12,11,13,424.5394463000002,426.5627910000003,428.0782371000005,433.0968558000004,434.4959558999999,434.4959607999999,436.01262360000055,437.0309877999998,w,11.0,1.3991000999994867,1,+10,53,-18.072055471106534,-0.8694351318448161,0.1399803939889448,423777.0,34.93065444881819,0.9070992539440104,0.18281168279319537,427311.0,,,,,428.0822736910001,424.54827369100013,
17,12,21,f,1,0,9.0,9,4,high,6 + 9 + 7 - 3 - 5,14,12,14,13,438.5477441000003,440.5745907,442.0898723999999,447.10907659999975,449.04002260000016,449.0400276999999,450.55674890000046,451.5741174000004,w,14.0,1.930946000000404,1,+10,63,2.65342397157926,1.3057091293493404,-0.01651051254743985,437789.0,5.458778103656214,-0.2828802471970988,0.12012853329611639,441323.0,,,,,442.0942736910001,438.56027369100013,
18,12,21,f,1,0,10.0,10,4,high,3 + 8 - 5 + 9 - 7,8,7,6,8,453.0901869999998,455.1143952000002,456.6297419000002,461.6496901,462.75198700000055,462.7519926000005,464.2687846999997,465.2861856999998,e,8.0,1.1022969000005105,1,+10,73,-28.728261757359455,-0.0016244501229261132,0.13740627573505848,452329.0,12.039174411866725,-0.5861068587358709,0.10929054727896936,455864.0,,,,,456.6352736910001,453.10027369100015,
19,12,21,f,1,0,11.0,11,3,low,3 - 7 + 5 + 1 + 9,11,11,13,12,466.8033624,468.8298095999999,470.3446947000002,475.3641210000005,476.4239660000003,476.4239711,477.94095950000064,478.9578444999997,q,11.0,1.0598449999997683,1,+1,74,-14.796283341200013,0.8883455944747647,-0.2171212991104956,466044.0,-30.450973488735706,-0.06520808395009148,0.3087425417880585,469579.0,,,,,470.35027369100015,466.81527369100013,
20,12,21,f,1,0,12.0,12,1,high,5 + 6 + 1 + 1 + 1,14,13,16,14,480.4745149999999,482.4965265999999,484.0117847000001,489.0302505,490.1440060000005,490.14401160000034,491.6608624,492.6787518000001,e,14.0,1.1137555000004795,1,+10,84,8.959630609042831,1.2748535908705803,-0.0330659990528106,479711.0,18.13308132634842,-2.264955050508976,0.011087752807067641,483244.0,,,,,484.0152736910002,480.48227369100016,
21,12,21,f,1,0,13.0,13,2,high,9 + 6 + 1 + 7 + 1,24,23,24,25,494.1946402000003,496.2179053,497.73315830000047,502.7515265000002,503.9119645999999,503.91196970000055,505.4286247,506.4460365000005,w,24.0,1.1604380999997377,1,+10,94,-12.112482093099652,0.7162673106052768,-0.27294370936291523,493432.0,-17.141640369985524,0.4614988524560557,0.03058119868537945,496966.0,,,,,497.73727369100015,494.20327369100016,
22,12,21,f,1,0,14.0,14,3,high,2 + 1 + 9 - 4 + 6,14,14,15,16,507.9627965999998,509.9887343,511.5038688000004,516.5221446000005,518.7118963000003,518.7119014,520.2291222000003,521.2464185999997,q,14.0,2.1897516999997606,1,+10,104,0.3096015580538829,5.129335901467979,2.134883126618428,507203.0,12.766636148744546,-0.15435167804690497,0.08308048599739681,510736.0,,,,,511.50727369100014,507.9742736910001,
23,12,21,f,1,0,15.0,15,4,low,7 + 8 - 4 + 6 + 5,22,22,21,23,522.7632634000001,524.7904079,526.3056186000003,531.3240293999997,532.5758621000004,532.5758672000002,534.0922644000002,535.1090396999998,q,22.0,1.2518327000007048,1,+1,105,-11.762610400046515,-2.1397344989024383,-1.9988015273124802,522004.0,8.55856330170743,0.0974368739935283,0.6156105160317213,525538.0,,,,,526.3092736910002,522.7752736910002,
24,12,21,f,1,0,16.0,16,3,low,5 + 6 - 4 - 1 + 7,13,14,13,15,536.6259804000001,538.6527199000002,540.1675596000005,545.1876673000006,546.5199874999998,546.5199929,548.0367072999998,549.0537029000006,w,13.0,1.332320199999231,1,+1,106,15.72445260956566,0.36957105908393295,-0.051954318816775924,535867.0,0.631556761780018,0.2692150374878919,0.21006382229181275,539402.0,,,,,540.1732736910002,536.6382736910001,
25,12,21,f,1,0,17.0,17,3,high,8 - 7 + 9 + 1 + 4,15,16,14,15,550.5694604999999,552.5946431000002,554.1096680999999,559.1280057000004,560.3278415000004,560.3278467,561.8446234000003,562.8609694000006,e,15.0,1.1998358000000735,1,+10,116,-0.612004588584842,0.2504094507026986,0.037814016973355846,549809.0,-2.9715846234163905,-0.9570605739641715,-0.014708423300336504,553342.0,,,,,554.1132736910001,550.5802736910001,
26,12,21,f,1,0,18.0,18,2,low,7 + 8 + 1 + 9 + 1,26,25,24,26,564.3777504,566.4058216000003,567.9211795000001,572.9399714000001,574.1678771000006,574.1678824,575.6845617999998,576.7014651999998,e,26.0,1.2279057000005196,1,+1,117,3.0196072166393044,0.2562241339753051,0.009896646207224746,563620.0,-42.37204065037133,0.5794706491693216,0.20218328412175302,567154.0,,,,,567.9252736910001,564.3912736910002,
27,12,21,f,1,0,19.0,19,4,low,5 + 6 - 4 + 7 + 9,23,25,23,24,578.2173674000005,580.2446944000003,581.7601079000005,586.7787485999997,589.0157936000005,589.0157982999999,590.5325874,591.5494157000003,w,23.0,2.2370450000007622,1,+1,118,-2.073620599702354,-0.0027558666324933867,0.045320830632950226,577459.0,-40.1729951524531,0.3492213821573902,0.20350164713669705,580993.0,,,,,581.7642736910002,578.2302736910001,
28,12,21,f,1,0,20.0,20,3,low,7 + 5 + 9 + 1 - 6,16,14,15,16,593.0662609999999,595.0929022,596.6082149000003,601.6281122,602.7277445999998,602.7277497000005,604.2443377999998,605.2613185999999,e,16.0,1.0996323999997912,1,+1,119,12.79619729341569,0.34193146741855784,-0.09289302329537352,592307.0,19.488645082116804,0.5774185641033176,0.1282942523188979,595842.0,,,,,596.6132736910001,593.0782736910002,
29,12,21,f,1,0,21.0,21,3,high,4 + 1 + 8 + 9 - 5,17,19,17,18,606.7782121,608.8029193000002,610.3181976000005,615.3365591000002,616.9197697,616.9197746,618.4362633999999,619.4544999999998,w,17.0,1.583210599999802,1,+10,129,-45.64929678863361,1.3360778449807373,-0.2741547801026831,606017.0,37.9551493601424,-1.1572340314743528,0.9884667545151684,609550.0,,,,,610.3212736910001,606.7882736910002,
30,12,21,f,1,0,22.0,22,4,high,7 + 6 + 8 - 4 + 5,22,22,21,23,620.9715432000003,622.9990354000001,624.5143410999999,629.5336563000001,631.839825,631.8398311000001,633.3564237,634.3736527000001,e,23.0,2.306168699999944,0,+0,129,-24.483608544153192,0.9469076276655395,0.009713514748394214,620213.0,8.355154777400092,0.5741332398078365,0.24496702145984073,623747.0,,,,,624.5182736910001,620.9842736910001,
31,12,21,f,1,0,23.0,23,2,low,9 + 4 - 6 + 1 - 1,7,8,7,9,635.8900967999998,637.9180019000005,639.4330946999999,644.4519934,645.5278425000006,645.5278475000005,647.0445846000002,648.0615039000004,w,7.0,1.075849100000596,1,+1,130,3.3209494686000567,1.3104281187153175,0.03501413338827919,635132.0,2.8656901756892417,-0.1418400489934344,0.10389847699047516,638665.0,,,,,639.4362736910001,635.9032736910001,
32,12,21,f,1,0,24.0,24,1,high,7 + 1 + 5 + 1 - 1,13,12,14,13,649.5785111000005,651.6060575000001,653.1211408999998,658.1397451000003,659.6317309000005,659.6317356999998,661.1485413999999,662.1658308000005,e,13.0,1.4919858000002932,1,+10,140,13.959580145598387,-0.5173019682108748,-0.015429026396542644,648820.0,36.84202152852506,-0.7467690300274699,0.20417332515599473,652353.0,,,,,653.1242736910001,649.5912736910002,
33,12,21,f,1,0,25.0,25,4,low,3 + 8 - 4 + 9 + 7,23,22,23,24,663.6825331,665.7110010000006,667.2263032999999,672.2449450000004,674.9197386000005,674.9197443000003,676.4365475000004,677.4533465000004,w,23.0,2.6747936000001573,1,+1,141,-53.27281559442472,0.841843835492293,-0.05044616502459465,662925.0,-15.77193960522791,0.7505396860494304,0.2214412279273823,666458.0,,,,,667.2292736910001,663.6962736910001,
34,12,21,f,1,0,26.0,26,2,high,4 + 7 + 1 + 1 - 8,5,4,7,5,678.9702468000005,680.9941217000005,682.5099102000004,687.5279973000006,688.7276755000003,688.7276805000001,690.2442098000001,691.2613829000002,e,5.0,1.1996781999996529,1,+10,151,-1.7826591445957174,0.7898085536021124,0.040116485728793005,678208.0,-9.870781545694628,0.20598413657854042,0.26020521510110295,681742.0,,,,,682.5132736910001,678.9792736910001,
35,12,21,f,1,0,27.0,27,4,low,3 + 9 - 4 + 7 + 6,21,20,21,19,692.7778824000006,694.8008196999999,696.3160168000004,701.3348672000002,703.3598011000004,703.3598061000002,704.8759051000006,705.8928477999998,w,21.0,2.0249339000001783,1,+1,152,36.03846189689526,0.35990720904916174,-0.03640131207919661,692015.0,-0.5214930847158552,0.2736571989187073,0.15102917540448524,695548.0,,,,,696.3192736910001,692.7862736910001,
36,12,21,f,1,0,28.0,28,1,high,8 - 1 + 1 + 6 + 1,15,16,14,15,707.4096874000006,709.4374647000004,710.9525805000003,715.9710694000005,716.9997246000003,716.9997309999999,718.5172583000003,719.5348782000001,e,15.0,1.0286551999997755,1,+10,162,-18.103112867816527,0.32319594990371403,-0.8332224726753934,706651.0,-23.056997223504883,-0.5379105335721155,-2.013230983488516,710185.0,,,,,710.9562736910001,707.4222736910001,
37,12,21,f,1,0,29.0,29,4,low,5 + 7 - 4 + 8 + 6,22,22,23,24,721.0516364000005,723.0797601000004,724.5949915000001,729.6137292000003,730.8717189999998,730.8717242000002,732.3880391000002,733.4046255000003,q,22.0,1.25798979999945,1,+1,163,14.552417738001866,1.164057936823716,-0.03950828460124178,720293.0,-13.547231151127505,0.31871142117242,0.31731631717249464,723827.0,,,,,724.5982736910001,721.0642736910002,
38,12,21,f,1,0,30.0,30,2,low,5 - 1 + 1 + 8 + 9,22,23,22,21,734.9212175000002,736.9487330000002,738.4638995000005,743.4817812000001,744.4957426999999,744.4957481000001,746.0124457000002,747.0294112000001,w,22.0,1.013961499999823,1,+1,164,4.759133095540382,1.3496316503217756,-0.02182840995814206,734162.0,6.730882095132596,-0.6765902757320843,0.39060380568799125,737695.0,,,,,738.4662736910002,734.9332736910002,
39,12,21,f,1,0,31.0,31,3,low,2 + 9 - 3 + 4 + 1,13,13,11,14,748.5461707000004,750.5747658999999,752.0899503999999,757.1082487000003,758.1996943000004,758.1996994000001,759.7162085999998,760.7331313000004,q,13.0,1.0914456000000428,1,+1,165,16.431109689369215,0.8534436187966756,-0.09919225882886762,747788.0,-13.793156700611723,0.5419930525945524,0.1788335823578655,751321.0,,,,,752.0922736910002,748.5592736910002,
40,12,21,f,1,0,32.0,32,1,low,8 + 1 + 1 + 1 - 3,8,8,6,9,762.2501235999998,764.2774128000001,765.7924478000004,770.8106664000006,771.8235923000002,771.8235976000005,773.3400511,774.3568808,q,8.0,1.0129258999995727,1,+1,166,5.0310456097534235,-0.6103904973560361,0.44447024799329826,761491.0,3.3321464192081613,0.1513288810620903,0.6678303995602863,765024.0,,,,,765.7952736910001,762.2622736910001,
41,12,21,f,1,0,33.0,33,4,high,6 + 5 - 7 + 8 - 9,3,4,3,5,775.8736251,777.9001207000001,779.4154646000006,784.4342268999999,786.6316360999999,786.6316413000004,788.1483056000006,789.1657095,w,3.0,2.1974092000000383,1,+10,176,46.528920998615504,1.5613904849919988,0.1085083355675831,775113.0,56.68021916311203,-0.3386323887530791,0.3768843860485398,778647.0,,,,,779.4182736910002,775.8842736910002,
42,12,21,f,1,0,34.0,34,4,low,3 + 9 - 5 + 8 - 7,8,7,9,8,790.6828351000004,792.7101469999998,794.2254314000002,799.24424,800.4475222000001,800.4475270000003,801.9640589999999,802.9809982000006,e,8.0,1.203282200000103,1,+1,177,-12.310543447464742,0.3348314845103122,-0.04593894585466818,789923.0,12.737328657695175,1.6072189854221959,-0.031174929818456487,793457.0,,,,,794.2282736910001,790.6942736910001,
43,12,21,f,1,0,35.0,35,1,high,6 + 1 + 8 + 1 - 1,15,15,13,14,804.4976433000002,806.5258745000001,808.0411334999999,813.0595778000006,814.3195165000006,814.3195215000005,815.8362514999999,816.8537253000004,q,15.0,1.2599387000000206,1,+10,187,9.356494802126985,0.4378713790314439,-0.05348476872084351,803739.0,13.469356822934351,-0.2568333777425629,0.19449735482049335,807272.0,,,,,808.0432736910002,804.5102736910002,
44,12,21,f,1,0,36.0,36,2,low,5 + 7 - 8 + 1 + 1,6,7,6,8,818.370484,820.3980245000002,821.9132557000003,826.9321961000005,828.2395852999998,828.2395907,829.7562851000002,830.7731239000004,w,6.0,1.3073891999993066,1,+1,188,-9.974120019248542,1.1604060299218535,-0.016580850743804332,817611.0,14.176516041633182,1.0374822317951047,0.39310673327239765,821145.0,,,,,821.9162736910001,818.3822736910001,
45,12,21,f,1,0,37.0,37,4,high,5 + 7 - 4 + 6 + 9,23,24,23,25,832.2898958000005,834.3167891000003,835.8319010000005,840.851044,843.7355910000006,843.7355963,845.2521894000001,846.2694250000004,w,23.0,2.884547000000566,1,+10,198,-5.338142354673497,0.8859695944760304,-0.02295493891740774,831530.0,10.650145691170321,0.5838651632074185,0.19926283729892647,835064.0,,,,,835.8352736910001,832.3012736910001,
46,12,21,f,1,1,38.0,0,2,low,2 + 1 + 9 - 4 + 1,9,11,9,8,860.6677064000005,862.6944073000004,864.2105434000005,869.2289564000002,870.2235409000004,870.2235461,871.7405655000002,872.7574670000004,w,9.0,0.9945845000002008,1,+1,199,17.07251591548614,1.8191728191649714,-0.3015443435109413,859907.0,13.155949104475258,0.7008258433298753,-0.17158761920134324,863442.0,,,,,864.2132736910002,860.6782736910002,
47,12,21,f,1,1,39.0,1,4,high,9 + 7 - 5 + 8 + 6,25,24,27,25,874.2743617000006,876.2999945000001,877.8154461000004,882.8355679000006,883.9114349000001,883.9114397000003,885.4283419000003,886.4461035000004,e,25.0,1.0758669999995618,1,+10,209,-3.4854948983769045,0.44334620778700007,-0.11640567033045013,873514.0,-29.01412635376054,1.0770714304298519,0.0034020109065733273,877048.0,,,,,877.8192736910001,874.2852736910002,
48,12,21,f,1,1,40.0,2,2,low,4 + 9 + 1 - 7 - 1,6,8,6,5,887.9632737000002,889.9874062999997,891.5028011000004,896.5213954999999,898.0314437000006,898.0314489000002,899.5480925000002,900.5651262000001,w,6.0,1.5100482000007105,1,+1,210,10.39675249376952,1.307045499199126,-0.16446497147647077,887200.0,-0.3096937955806016,-0.32147942388748607,0.2947501759058584,890734.0,,,,,891.5052736910002,887.9712736910002,
49,12,21,f,1,1,41.0,3,1,low,3 + 1 + 1 + 9 - 1,13,13,12,14,902.0821729999998,904.1098440000004,905.6250067,910.6431257000004,911.5595613000004,911.5595665,913.0767119000002,914.0941309999998,q,13.0,0.9164356000001136,1,+1,211,10.779194261258713,0.3864871055063661,0.05385705809607755,901323.0,18.25188252312481,0.9085487034927775,0.19506715453708012,904856.0,,,,,905.6272736910001,902.0942736910001,
50,12,21,f,1,1,42.0,4,2,high,8 + 1 + 4 - 7 + 1,7,6,5,7,915.6106790000003,917.6371324000002,919.1524885999996,924.1710432,925.3833786000004,925.3833836000005,926.9000290000004,927.9173613000004,e,7.0,1.2123354000004838,1,+10,221,-18.65929943000652,0.6153624918006626,0.036462162850694924,914850.0,37.45166071377689,0.1525375382279126,0.6684120236388154,918384.0,,,,,919.1552736910002,915.6212736910002,
51,12,21,f,1,1,43.0,5,4,high,4 + 7 - 8 + 9 - 4,8,8,7,9,929.4342295000006,931.4613267000004,932.9764672,937.9954722000002,939.8474341,939.8474391,941.3637591000006,942.3808377000004,w,7.0,1.8519618999998784,0,+0,221,-8.700483747962831,-0.6102235977403394,0.07354928096963809,928674.0,0.07949591199702866,0.474010952564341,0.19561498102037533,932208.0,,,,,932.9792736910001,929.4452736910001,
52,12,21,f,1,1,44.0,6,4,high,7 + 6 - 9 + 8 - 3,9,8,7,9,943.8979209999998,945.9224982000004,947.4377521000006,952.4561787000002,953.8474537000002,953.8474592000002,955.3640178000004,956.3810437000002,e,9.0,1.3912749999999503,1,+10,231,4.558702651002202,-0.5508189092029925,0.07533089521914604,943135.0,-38.377097642398354,-0.5899555921255013,-0.10064807659501263,946669.0,,,,,947.4402736910001,943.9062736910001,
53,12,21,f,1,1,45.0,7,3,low,4 + 7 - 3 + 5 - 1,12,12,11,13,957.8980347000006,959.9254357,961.4404473000004,966.4591105999998,968.1513921000004,968.1513970000004,969.6679441000006,970.6845885000002,q,12.0,1.6922815000007176,1,+1,232,-22.57667106648612,-0.25011010680507706,-0.08276063108826581,957138.0,14.346058027808509,0.7435770544425644,0.009240369536719584,960672.0,,,,,961.4432736910002,957.9092736910002,
54,12,21,f,1,1,46.0,8,1,high,2 + 9 + 1 + 1 + 1,14,14,12,13,972.2013365000004,974.2273862000002,975.7427002000004,980.7608218000004,981.7913554000006,981.7913602,983.3075284000006,984.3247634999998,q,14.0,1.0305336000001262,1,+10,242,-3.7148913061802116,-0.7931534938632829,0.30788587575829385,971440.0,5.119412661383269,0.40001260469942235,0.21231615936125725,974974.0,,,,,975.7452736910002,972.2112736910002,
55,12,21,f,1,1,47.0,9,3,low,7 + 1 + 9 + 5 - 6,16,15,14,16,985.8414259,987.8688855,989.3841579,994.4027903000006,995.5033932000006,995.5033986,997.0205096999998,998.0377921999998,e,16.0,1.1006029000000126,1,+1,243,16.705572639883414,0.05172432877504107,0.16880689507785607,985081.0,27.974970515884422,-0.38201438897813844,0.2958697021616721,988615.0,,,,,989.3862736910002,985.8522736910002,
56,12,21,f,1,1,48.0,10,2,high,7 + 6 + 1 + 8 + 1,23,23,21,22,999.5541737000004,1001.58115,1003.0963573,1008.1147976000002,1009.3033953000004,1009.3034004,1010.8200644,1011.8375758000002,q,23.0,1.188597700000173,1,+10,253,7.528442391283962,-0.8485550986693955,-0.12061089572703954,998793.0,-54.877112240417034,-0.15772500467344042,-0.03277710493758912,1002327.0,,,,,1003.0982736910001,999.5642736910002,
57,12,21,f,1,1,49.0,11,4,high,4 + 8 + 9 - 3 + 7,25,25,26,24,1013.3542089000002,1015.3806833,1016.8959013000004,1021.9159724,1024.8313531000003,1024.8313583,1026.3481939000003,1027.3656736000005,e,24.0,2.9153807000002416,0,+0,253,9.516568149002248,0.09372198682507182,-0.020302477067804414,1012593.0,-0.23187271517124408,0.39410501741961834,0.30355637999081964,1016128.0,,,,,1016.8992736910002,1013.3642736910001,
58,12,21,f,1,1,50.0,12,4,low,5 + 9 - 4 + 7 + 6,23,25,23,24,1028.8824303,1030.9096495000003,1032.4249539000002,1037.4435436000003,1038.5912899000004,1038.5912949000003,1040.1078711,1041.1249959000006,w,23.0,1.147746300000108,1,+1,254,9.205370537601967,0.34736844505330033,0.10908091889662441,1028122.0,18.34441693415513,0.5863703815955743,0.24343244636865613,1031656.0,,,,,1032.4272736910002,1028.8932736910003,
59,12,21,f,1,1,51.0,13,2,high,8 + 1 + 9 + 1 - 5,14,13,14,15,1042.6418706000004,1044.6649149000004,1046.1800092000003,1051.1979626000002,1052.4553588999995,1052.4553642,1053.9719958000005,1054.9896680000002,w,14.0,1.2573962999995274,1,+10,264,-54.96909268002558,1.6720465335090058,0.02144397797465869,1041877.0,7.731972053383551,-1.4758543771238894,-1.3009057264364183,1045410.0,,,,,1046.1812736910003,1042.6482736910002,
60,12,21,f,1,1,52.0,14,1,low,6 + 9 + 1 + 1 - 1,16,16,14,15,1056.5063870000004,1058.5319498999995,1060.0472514000005,1065.0653409000006,1066.2154829,1066.2154882000004,1067.7320377000003,1068.7487142,q,16.0,1.150141999999505,1,+1,265,-10.801071315896248,0.225930696615106,-0.1730801651194882,1055744.0,-28.74787396123628,-0.6127941562522672,0.16257996842052003,1059278.0,,,,,1060.0492736910003,1056.5152736910002,
61,12,21,f,1,1,53.0,15,2,high,6 + 8 + 1 + 1 - 7,9,8,9,11,1070.2655484000006,1072.2936029000002,1073.8090736000004,1078.8276883,1080.1432008000002,1080.1432055000005,1081.6598789999998,1082.6777032,w,9.0,1.3155125000002954,1,+10,275,38.60369303037728,0.334022499605231,0.07453786619138825,1069506.0,9.841639194656338,0.11315428731063548,0.3042464122605455,1073040.0,,,,,1073.8112736910002,1070.2772736910003,
62,12,21,f,1,1,54.0,16,2,low,4 + 8 + 1 + 1 - 5,9,9,8,11,1084.1942987000002,1086.2199492,1087.7353485000003,1092.7549439000004,1093.7832700999998,1093.7832755,1095.2996699000005,1096.3170590999998,q,9.0,1.0283261999993556,1,+1,276,-15.12198212696221,1.2429993528547278,0.03822253221338756,1083431.0,24.040595744019686,0.5333983005428768,0.06309259578294935,1086967.0,,,,,1087.7382736910004,1084.2022736910003,
63,12,21,f,1,1,55.0,17,2,high,9 + 5 - 6 + 1 - 1,8,7,9,8,1097.8337871000003,1099.8598512,1101.3751104000005,1106.3944941999998,1107.5432400999998,1107.5432452000005,1109.0598142999995,1110.0769869000003,e,8.0,1.1487458999999944,1,+10,286,-35.649061068054245,0.3596971939624076,0.06759720739405584,1097072.0,-39.77268950284698,-0.12979916018335658,0.5018607999398281,1100607.0,,,,,1101.3782736910002,1097.8432736910001,
64,12,21,f,1,1,56.0,18,3,low,6 - 1 + 7 - 8 + 9,13,11,13,12,1111.5937752999998,1113.6213061,1115.1367036,1120.1557361000005,1121.3192145000005,1121.3192205000005,1122.8357788000003,1123.8527324000006,w,13.0,1.1634783999998035,1,+1,287,-15.535556973197721,1.001406945240812,0.23209367988893992,1110833.0,12.307086922016271,0.8467371467860207,0.21387774733521514,1114368.0,,,,,1115.1392736910002,1111.6042736910003,
65,12,21,f,1,1,57.0,19,3,high,5 + 7 + 1 - 4 + 6,15,17,13,15,1125.3691527,1127.3927605,1128.9079277,1133.9264817000003,1135.0312359999998,1135.0312413,1136.5479676000004,1137.565195,e,15.0,1.104754299999513,1,+10,297,14.12074829688099,-0.3974102396164323,-0.013178495937554713,1124605.0,40.90819475059416,1.3614543952202398,0.8987232297826409,1128138.0,,,,,1128.9092736910002,1125.3762736910003,
66,12,21,f,1,1,58.0,20,1,low,2 + 1 + 9 + 1 + 1,14,13,14,12,1139.0819396000006,1141.1059458,1142.6212166000005,1147.6390658,1148.6871534000002,1148.6871584,1150.2034948,1151.2204441000003,w,14.0,1.0480876000001444,1,+1,298,-38.83291502717633,-1.0284679200770004,-0.5677950699622016,1138318.0,13.337759816208528,-0.040228704739134535,-0.28747306035225195,1141851.0,,,,,1142.6222736910004,1139.0892736910002,
67,12,21,f,1,1,59.0,21,1,high,2 + 1 + 9 + 1 - 1,12,11,13,12,1152.7372179000004,1154.7653068,1156.2805329000005,1161.2986751,1162.4471133000006,1162.4471193,1163.9644606000002,1164.9815354000002,e,12.0,1.148438200000783,1,+10,308,-4.12952503193431,0.1474098895837903,0.10452316620734492,1151977.0,-38.90003563447657,-0.49393170327925695,0.14289901634094093,1155511.0,,,,,1156.2822736910002,1152.7482736910003,
68,12,21,f,1,1,60.0,22,3,low,7 - 1 + 9 - 5 + 4,14,15,14,13,1166.4981939999998,1168.5216913000004,1170.0368607,1175.0552773999998,1177.6791438,1177.6791491000004,1179.1957247,1180.2125735,w,14.0,2.6238664000002245,1,+1,309,1.4620551138775824,0.9939451859532351,0.07550591321253952,1165734.0,7.002700541136704,-0.2739347848741547,4.1921379458774055,1169267.0,,,,,1170.0382736910003,1166.5052736910002,
69,12,21,f,1,1,61.0,23,3,high,2 + 1 + 9 - 5 + 6,13,14,13,11,1181.7293464000004,1183.7545884,1185.2699358999998,1190.2883548,1191.3511828,1191.3511882000005,1192.8678479,1193.8854840000004,w,13.0,1.0628280000000814,1,+10,319,23.89293125910963,0.15501497135014475,0.5591292517870423,1180967.0,43.36215995135268,0.21901189495190376,-0.6160647114145688,1184500.0,,,,,1185.2712736910003,1181.7382736910004,
70,12,21,f,1,1,62.0,24,1,high,5 + 8 - 1 + 1 + 1,14,14,16,12,1195.4022758,1197.4280232,1198.9432877999998,1203.9614728000006,1205.0231002,1205.0231054000003,1206.5395161000006,1207.5568760000006,q,14.0,1.061627399999452,1,+10,329,-15.781784469144181,0.34932467946300694,-0.07777494019336584,1194640.0,25.8941897225582,-0.9339508174303388,0.3592741324049946,1198173.0,,,,,1198.9442736910003,1195.4112736910004,
71,12,21,f,1,1,63.0,25,2,low,4 + 9 - 7 + 1 - 1,6,8,5,6,1209.0735632000003,1211.1004260999998,1212.6154781000005,1217.6342020000002,1218.847412,1218.8474174000005,1220.3643516000002,1221.3809367000003,e,6.0,1.21320999999989,1,+1,330,10.752039122340246,1.5980583062050346,-0.13987987035683225,1208312.0,47.205859544172284,-0.6806395183442628,-0.08180384274262775,1211846.0,,,,,1212.6172736910003,1209.0832736910002,
72,12,21,f,1,1,64.0,26,2,low,6 + 1 + 7 + 5 - 1,18,18,16,17,1222.8977315000002,1224.9204656000002,1226.4362689999998,1231.4555584999998,1232.5671319000005,1232.5671369000002,1234.0840785,1235.1018156,q,18.0,1.1115734000004522,1,+1,331,6.785289931158196,1.3756059312257451,0.018663886468827107,1222132.0,-17.868429755029297,1.0847454337795313,0.44962026201540484,1225666.0,,,,,1226.4372736910002,1222.9032736910003,
73,12,21,f,1,1,65.0,27,3,high,4 + 7 + 1 + 9 - 5,16,16,18,17,1236.6185982000006,1238.6428424000003,1240.1582159999998,1245.1766918000003,1247.0711786000002,1247.0711834000003,1248.5881685000004,1249.6054039,e,17.0,1.894486799999868,0,+0,331,3.535569200264735,0.48992887142080477,0.042741469650869,1235855.0,-28.240068266938994,0.13038031155243424,0.16771002271219815,1239388.0,,,,,1240.1592736910002,1236.6262736910003,
74,12,21,f,1,1,66.0,28,3,low,5 + 6 - 4 - 1 + 8,14,15,16,14,1251.1220862,1253.1488096000005,1254.664108,1259.6827334,1260.7670219,1260.7670274000002,1262.2836691000002,1263.3007419000005,e,14.0,1.0842885000001845,1,+1,332,-28.736748327301758,0.5858767032335894,0.031011709224899153,1250360.0,27.91191159142498,-0.20952998306136283,0.22948839754267314,1253894.0,,,,,1254.6652736910003,1251.1312736910002,
75,12,21,f,1,1,67.0,29,3,low,5 + 1 + 7 - 8 + 6,11,13,9,11,1264.8174758000005,1266.8435383000003,1268.3587933999995,1273.3789711,1274.3909728,1274.3909776,1275.9075942,1276.9244677000006,e,11.0,1.012001699999928,1,+1,333,-7.627264786433376,0.5189898528640295,-0.032846138056681795,1264055.0,43.30255542555116,0.6003378789125975,0.07090562573280534,1267590.0,,,,,1268.3612736910002,1264.8262736910003,
76,12,21,f,1,1,68.0,30,3,low,3 + 1 + 6 - 8 + 9,11,11,13,12,1278.4414754,1280.4677511,1281.9830593000006,1287.0015481,1287.7910493,1287.7910542,1289.3075,1290.3248828000003,q,11.0,0.7895011999999042,1,+1,334,-10.639071779130195,0.7595971633264478,-0.5886602387688358,1277679.0,4.211210308027444,-0.03517747843834851,-0.018873070408382375,1281213.0,,,,,1281.9842736910002,1278.4502736910003,
77,12,21,f,1,1,69.0,31,2,high,7 + 5 + 1 + 9 + 1,23,23,21,22,1291.8416908999998,1293.8680874,1295.3831189000002,1300.4007759000006,1301.2629785,1301.2629836000006,1302.7795812000004,1303.7971636000002,q,23.0,0.8622025999993639,1,+10,344,28.232174194230836,0.28720022483959085,-0.03039682150068268,1291080.0,28.564537115870145,0.514553109163316,-0.022207005745559893,1294613.0,,,,,1295.3842736910003,1291.8512736910002,
78,12,21,f,1,1,70.0,32,3,low,4 + 8 - 3 + 5 - 1,13,13,14,12,1305.3138763000006,1307.3413159000002,1308.8562986000006,1313.8756205999998,1315.0630824,1315.0630873,1316.5801636000006,1317.5969773000006,q,13.0,1.1874618000001649,1,+1,345,22.00271870890392,0.9718878083822338,-0.1182426315817926,1304553.0,-25.916971773035556,0.8202881606478369,0.30275245286719743,1308086.0,,,,,1308.8572736910003,1305.3242736910004,
79,12,21,f,1,1,71.0,33,4,low,8 + 4 + 7 - 5 - 6,8,9,8,6,1319.11348,1321.1392443000004,1322.6546251999998,1327.6750636000006,1328.7509529,1328.7509578,1330.2674425000005,1331.2845409,w,8.0,1.0758892999992895,1,+1,346,-20.95422971040979,0.8413081336305668,-0.014849259391015002,1318350.0,-7.124140691890034,-1.3879629948896532,-2.3112928600540146,1321886.0,,,,,1322.6572736910002,1319.1212736910002,
80,12,21,f,1,1,72.0,34,2,low,2 + 9 + 1 + 1 - 5,8,6,8,7,1332.8014825,1334.8293030000004,1336.3445149,1341.3633435000002,1342.5669910000006,1342.5669965000006,1344.0836834000002,1345.1005202000006,w,8.0,1.203647500000443,1,+1,347,87.16366032032988,0.7612194035344588,0.014577413414939011,1332041.0,26.107841404965875,1.9157167009145368,0.0800984869757293,1335574.0,,,,,1336.3452736910003,1332.8122736910002,
81,12,21,f,1,1,73.0,35,3,high,3 + 8 - 7 - 1 + 9,12,12,14,13,1346.6176021,1348.6445648999998,1350.1599104000006,1355.1791877000005,1356.1909126,1356.1909179000004,1357.7071682000003,1358.7243939,q,12.0,1.0117248999995354,1,+10,357,-6.155091663577877,0.09302775735521163,0.03096214559030086,1345856.0,-8.146360047192829,0.7429488392731072,0.03241600512677856,1349390.0,,,,,1350.1612736910004,1346.6272736910003,
82,12,21,f,1,1,74.0,36,1,low,7 + 1 + 4 + 1 - 1,12,14,12,13,1360.2408989000005,1362.2690140000004,1363.7842084000004,1368.8025697000005,1369.5749215000003,1369.5749264000003,1371.0915315000002,1372.1084673000005,w,12.0,0.7723518000002514,1,+1,358,34.55500754001449,0.8168656785235777,-0.07923477109046817,1359480.0,-20.480806032008516,-0.2298497054606603,0.12054522046698612,1363014.0,,,,,1363.7852736910002,1360.2512736910003,
83,12,21,f,1,1,75.0,37,4,low,3 + 9 - 5 + 6 + 8,21,23,21,22,1373.6392315000005,1375.6672734000003,1377.1825146,1382.2006870000005,1383.2709206,1383.2709255999998,1384.7874333999998,1385.8044185,w,21.0,1.070233599999483,1,+1,359,-45.715789786457485,0.4713363847736298,-1.1415001908846705,1372878.0,11.263640028613096,1.589600896070058,0.05649194594918039,1376412.0,,,,,1377.1832736910003,1373.6492736910002,
84,12,21,f,1,2,76.0,0,4,high,9 + 4 - 6 + 8 + 7,22,21,22,24,1396.6187116,1398.6449250000005,1400.1599963,1405.1801325000006,1405.9429295,1405.9429349000002,1407.4596825,1408.4769685,w,22.0,0.7627969999994093,1,+10,369,-7.875818317824564,0.39109819847262806,-3.3390076886499465,1395856.0,6.936907299452572,1.0729557244251033,0.4010844773876827,1399391.0,,,,,1400.1622736910003,1396.6272736910003,
85,12,21,f,1,2,77.0,1,2,high,6 + 1 + 1 + 7 - 9,6,8,6,4,1409.9935547000005,1412.0216171000002,1413.5370819999998,1418.5564447000006,1419.9429701,1419.9429753000004,1421.4597116000004,1422.4770107000004,w,6.0,1.3865253999993,1,+10,379,5.945716805359867,1.151130297851414,0.08263818201399831,1409232.0,18.497569323696283,0.9793753616036378,0.11016414027591725,1412767.0,,,,,1413.5382736910003,1410.0032736910002,
86,12,21,f,1,2,78.0,2,3,high,6 + 7 + 8 + 1 - 9,13,13,14,15,1423.9940023,1426.0209884000003,1427.5364727000006,1432.5550903000003,1433.5909220000003,1433.5909272999995,1435.1073175,1436.1244911000003,q,13.0,1.035831700000017,1,+10,389,13.097079889923487,0.38728272730299107,-0.12119511894671353,1423232.0,25.21662930671875,0.6314865170362358,-0.08255442625928255,1426766.0,,,,,1427.5372736910003,1424.0032736910002,
87,12,21,f,1,2,79.0,3,3,high,9 - 1 + 5 - 6 + 8,15,15,17,14,1437.6413121000005,1439.6658825000004,1441.1810815999995,1446.2000174000004,1447.8628258,1447.8628317000002,1449.3793790999998,1450.3967086000002,q,15.0,1.6628083999994487,1,+10,399,6.845402696272239,0.02357289762682324,0.09354759168284388,1436877.0,17.233046246421043,-1.3548783179424362,-0.14728934700648866,1440410.0,,,,,1441.1812736910003,1437.6482736910002,
88,12,21,f,1,2,80.0,4,1,high,6 + 1 + 8 + 1 + 1,17,17,16,15,1451.9137226000005,1453.9389487,1455.4540317,1460.4720476000002,1461.366809,1461.366814,1462.8834261000002,1463.9007075,q,17.0,0.8947613999998794,1,+10,409,-16.4603037656724,-0.06951379654492662,-0.08532795324957299,1451150.0,-33.26675528384657,0.027031965278413672,0.16985433737757027,1454683.0,,,,,1455.4542736910003,1451.9212736910004,
89,12,21,f,1,2,81.0,5,3,low,2 - 4 + 9 + 7 + 1,15,13,15,16,1465.4174404000005,1467.4433739000006,1468.9586244000002,1473.9774994,1474.9427587,1474.9427674,1476.4591955000003,1477.4761254000005,w,15.0,0.9652593000000708,1,+1,410,-10.712553484194551,0.6558085039320884,-2.1951872887536683,1464654.0,-37.16518366191718,1.2067347159172002,0.7246342897975606,1468188.0,,,,,1468.9592736910004,1465.4252736910003,
90,12,21,f,1,2,82.0,6,2,low,4 + 9 - 7 + 1 - 1,6,6,5,8,1478.9928101000005,1481.0191141000005,1482.5343436000005,1487.5532548,1489.0388282000004,1489.0388334999998,1490.5555258000004,1491.5726146000006,q,6.0,1.4855734000002483,1,+1,411,6.496004494636664,1.5238474157864372,0.18512939188350241,1478229.0,-33.62627099630953,0.2938060868001422,-0.09491640266304957,1481764.0,,,,,1482.5352736910002,1479.0002736910003,
91,12,21,f,1,2,83.0,7,4,high,9 + 8 - 5 - 7 + 6,11,11,13,10,1493.0895093,1495.1161804000003,1496.6311889,1501.6514145,1502.6547227,1502.6547279000006,1504.1713285000003,1505.1895961,q,11.0,1.0033081999999922,1,+10,421,13.630249417182625,2.50058578272549,2.459645176874653,1492326.0,-1.4060320688247572,0.009047035988145602,0.1282089727802458,1495862.0,,,,,1496.6332736910003,1493.0972736910003,
92,12,21,f,1,2,84.0,8,1,low,5 + 1 + 1 + 6 + 1,14,14,16,13,1506.705973,1508.7330319000002,1510.2482568000005,1515.2660065,1516.3110261000002,1516.3110314000005,1517.8274718000002,1518.8440632000002,q,14.0,1.0450196000001597,1,+1,422,-11.612534874809635,0.2779123157918928,0.06865873989643467,1505943.0,79.06463619529057,-1.0827346464469176,-0.9636865415263944,1509476.0,,,,,1510.2472736910004,1506.7142736910002,
93,12,21,f,1,2,85.0,9,3,high,8 + 6 - 7 + 1 - 4,4,4,3,5,1520.3608955,1522.3868819999998,1523.9020785000002,1528.9220741999998,1529.9987504,1529.9987558000005,1531.5154397000006,1532.5327179000003,q,4.0,1.0766762000002927,1,+10,432,-0.1625786522410415,-0.21202138762465506,0.0221345047403112,1519597.0,9.776508837862412,-0.24224567071757885,0.11536581025461667,1523132.0,,,,,1523.9032736910003,1520.3682736910002,
94,12,21,f,1,2,86.0,10,1,high,6 + 9 + 1 + 1 - 1,16,15,14,16,1534.0494176000002,1536.0732388000006,1537.5885151000002,1542.6066439000006,1543.9107015999998,1543.9107101999998,1545.4273999000006,1546.4445609000004,e,16.0,1.304057699999248,1,+10,442,-31.63354113354196,-0.11805233348129374,-0.23907388874043023,1533283.0,1.4280225772750264,-0.05520817640335096,-0.16473043753381456,1536817.0,,,,,1537.5882736910003,1534.0542736910002,
95,12,21,f,1,2,87.0,11,1,high,2 + 1 + 1 + 9 - 1,12,13,11,12,1547.9614601000003,1549.9882323000002,1551.5039644,1556.5219272000004,1557.6546640000006,1557.6546691000003,1559.1710357000002,1560.1884648000005,e,12.0,1.1327368000002025,1,+10,452,-3.427919432468753,0.8843249212339197,0.13283343600578768,1547198.0,24.40900091542421,-0.042513982964686114,-0.1785124663966906,1550732.0,,,,,1551.5032736910002,1547.9692736910004,
96,12,21,f,1,2,88.0,12,4,low,3 + 8 - 4 + 9 + 6,22,22,23,21,1561.7053781000004,1563.7326883000003,1565.2485146,1570.2666887000005,1572.9266724,1572.9266775000006,1574.4435192,1575.4608288999998,w,23.0,2.659983699999429,0,+0,452,22.530101138465263,0.9794593782936136,0.06010006835568449,1560943.0,28.960092652878103,0.601842722538068,0.08397885811688788,1564477.0,,,,,1565.2482736910003,1561.7142736910002,
97,12,21,f,1,2,89.0,13,3,low,2 + 1 + 9 - 7 + 6,11,12,11,13,1576.9776555,1579.0042807999998,1580.5196094000005,1585.5395630000005,1586.8467519000003,1586.8467572,1588.3634194000006,1589.3803395000004,w,11.0,1.3071889000002557,1,+1,453,10.605241818306776,0.6529005936624346,-0.003769435768128604,1576215.0,-7.850147055619221,1.287390695003647,0.020319224011637216,1579750.0,,,,,1580.5212736910003,1576.9862736910002,
98,12,21,f,1,2,90.0,14,2,high,6 + 1 + 7 - 8 - 1,5,5,7,4,1590.8973873000004,1592.9244791,1594.4397706999998,1599.4587874,1600.6387386000006,1600.6387441000006,1602.1553158000006,1603.1725992,q,5.0,1.179951200000687,1,+10,463,31.083954933341033,-4.008009089057403,-2.7841699553810626,1590135.0,-55.435497455893405,-0.5695591328295286,0.021419587550289165,1593669.0,,,,,1594.4402736910004,1590.9062736910003,
99,12,21,f,1,2,91.0,15,1,low,6 + 9 + 1 + 1 - 1,16,14,16,15,1604.6896985000003,1606.7168159000005,1608.2319988999998,1613.2510745,1614.3827397000005,1614.3827450999995,1615.8994124,1616.9163063000003,w,16.0,1.131665200000498,1,+1,464,21.275899721704352,-1.2081751358007962,0.8938827894162156,1603927.0,1.7245887993118885,-3.527799435444347,-1.2258064155910668,1607461.0,,,,,1608.2322736910003,1604.6982736910002,
100,12,21,f,1,2,92.0,16,3,high,2 + 9 + 1 - 5 + 7,14,14,12,15,1618.4332028999995,1620.4604859,1621.9757675,1626.9942179,1628.3106976,1628.310703,1629.8273083000004,1630.8450203000002,q,14.0,1.3164796999999453,1,+10,474,-36.62385611145574,0.023042324694072747,0.19086287251893852,1617670.0,13.090224256997917,0.8872216407226414,0.21948099733308002,1621204.0,,,,,1621.9752736910002,1618.4412736910003,
101,12,21,f,1,2,93.0,17,3,high,3 + 1 + 8 - 5 + 9,16,17,16,15,1632.3618071,1634.3861867000005,1635.9014028,1640.9196671999998,1642.2226075,1642.2226124999995,1643.7397971,1644.757138,w,16.0,1.3029403000000457,1,+10,484,-9.003344999936395,0.5583551491314989,-0.1071949147813176,1631595.0,3.6451033986939354,-1.2325489314162779,-1.1155355852384172,1635129.0,,,,,1635.9002736910002,1632.3662736910003,
102,12,21,f,1,2,94.0,18,4,low,9 + 3 - 5 + 8 + 6,21,19,23,21,1646.2734281000005,1648.3000140000004,1649.8154060000006,1654.8337206000006,1656.5665495000003,1656.5665548000006,1658.0832477000004,1659.1001948000005,e,21.0,1.7328288999997312,1,+1,485,7.790654390443951,0.6436490575598173,-0.2889964324888976,1645510.0,-15.404451018711875,1.161098078010168,0.14007544043774844,1649043.0,,,,,1649.8142736910002,1646.2812736910003,
103,12,21,f,1,2,95.0,19,4,high,8 + 4 + 7 - 5 - 6,8,9,7,8,1660.6170006000002,1662.6450417000003,1664.1603188,1669.1790726999998,1670.3186032000003,1670.3186086000003,1671.8355304000006,1672.8528556,e,8.0,1.1395305000005465,1,+10,495,28.46028644280222,0.6132689872439556,-0.05864416942644546,1659854.0,-15.461152385285295,0.3080206940655401,-0.14521314504576033,1663389.0,,,,,1664.1602736910002,1660.6252736910003,
104,12,21,f,1,2,96.0,20,4,low,2 + 5 - 3 + 9 + 8,21,21,19,22,1674.3697606000003,1676.3971939000005,1677.9126412000005,1682.9310862000002,1684.0305755,1684.0305807000004,1685.5474689000002,1686.5644045999998,q,21.0,1.099489299999732,1,+1,496,5.087803367394306,1.044541378152858,-0.07539659324388959,1673606.0,7.962808162047244,0.46046079717178934,-0.820002014933745,1677141.0,,,,,1677.9122736910003,1674.3772736910003,
105,12,21,f,1,2,97.0,21,2,low,3 + 9 + 1 - 5 + 1,9,9,7,8,1688.0807357000003,1690.1081401,1691.6233395999998,1696.6418284,1698.1986432000003,1698.1986487000004,1699.7154731,1700.7323238999998,q,9.0,1.556814800000211,1,+1,497,7.315377763296592,-0.734076657535093,-0.32263035621862013,1687318.0,-23.821617654601077,0.06962838055758258,0.07860128296510016,1690851.0,,,,,1691.6222736910004,1688.0892736910002,
106,12,21,f,1,2,98.0,22,2,low,3 + 9 - 1 - 5 + 1,7,5,7,6,1702.2490500000004,1704.2739505999998,1705.7889286,1710.8068860000003,1711.9745360000006,1711.9745411000004,1713.4909585000005,1714.5078380000004,w,7.0,1.1676500000003216,1,+1,498,10.877226480004111,0.6296242204466154,0.7744827460278287,1701483.0,32.365538508221526,-7.448910409077002,-4.172711555299517,1705017.0,,,,,1705.7882736910003,1702.2542736910002,
107,12,21,f,1,2,99.0,23,4,high,2 + 9 - 4 + 8 + 7,22,22,23,21,1716.0245821,1718.0524417000006,1719.5674307999998,1724.5862045000003,1725.6306194999995,1725.6306248,1727.1470693,1728.1644963,q,22.0,1.0444149999993897,1,+10,508,3.3146766742890854,1.2497581318332154,0.252904931857755,1715262.0,32.1653654381921,0.10029941856979185,0.11612864778496457,1718796.0,,,,,1719.5672736910003,1716.0332736910002,
108,12,21,f,1,2,100.0,24,4,high,6 + 9 + 7 - 3 - 5,14,14,15,13,1729.6813346,1731.7060062,1733.2212546,1738.2399485000003,1740.9585550000002,1740.9585639000006,1742.4755692,1743.4936005999998,q,14.0,2.718606499999624,1,+10,518,-1.2671133790383848,1.1521504017529463,-0.5101668757179465,1728916.0,-5.6972247302700385,-0.7933567712603056,-0.3708066769959384,1732449.0,,,,,1733.2202736910003,1729.6872736910002,
109,12,21,f,1,2,101.0,25,1,high,7 + 1 + 4 + 1 - 1,12,13,12,11,1745.0105901000006,1747.0376745000003,1748.5530514000002,1753.5722985000002,1754.7745183000006,1754.7745231999995,1756.2912808,1757.3086736000005,w,12.0,1.202219800000421,1,+10,528,2.3794579014159023,-1.5787570203737324,-1.179258468491554,1744247.0,34.15907540371471,-0.298140583586572,-0.5228445223931422,1747781.0,,,,,1748.5522736910002,1745.0182736910003,
110,12,21,f,1,2,102.0,26,2,high,5 + 8 + 1 - 1 + 9,22,23,21,22,1758.8261914000004,1760.8542048999998,1762.3695856000004,1767.3879998000002,1768.7105235999998,1768.710529,1770.2271139000004,1771.2446362,e,22.0,1.3225237999995445,1,+10,538,5.5711644376476315,0.6765258552497713,-0.1528243195256258,1758064.0,9.156507148369354,1.0933258725192,-0.06931468523305462,1761597.0,,,,,1762.3682736910002,1758.8352736910003,
111,12,21,f,1,2,103.0,27,4,high,3 + 8 - 7 + 9 - 5,8,9,8,7,1772.7616224000003,1774.7891526000003,1776.3042774000005,1781.3242050999995,1782.4305177000006,1782.4305227000004,1783.9480116000004,1784.9653521,w,8.0,1.1063126000008197,1,+10,548,-20.137749310830085,-1.263235068244275,-1.1666025041672667,1771998.0,20.818578300058316,1.039939623729781,1.4105867432048202,1775533.0,,,,,1776.3042736910002,1772.7692736910003,
112,12,21,f,1,2,104.0,28,3,high,5 + 6 + 7 - 1 - 9,8,7,8,9,1786.4820695,1788.5058453,1790.0211871,1795.0397911,1797.5023855,1797.5023904,1799.0195918999998,1800.0368371000004,w,8.0,2.462594399999944,1,+10,558,-42.789100496589455,0.6523852940443424,0.22303064846441423,1785715.0,16.161009608259725,0.19943280044976408,-0.008334343530203903,1789249.0,,,,,1790.0202736910003,1786.4862736910002,
113,12,21,f,1,2,105.0,29,2,low,2 + 1 + 9 - 4 + 1,9,11,8,9,1801.5535257,1803.5799267,1805.0951973,1810.1132556,1811.6064991000003,1811.6065043,1813.1233942,1814.1403526000004,e,9.0,1.4932435000000623,1,+1,559,6.198782666946391,1.006822214398741,-0.27202057331803786,1800789.0,-10.857681542586134,0.7783149361916566,0.18905883407338564,1804322.0,,,,,1805.0932736910001,1801.5602736910002,
114,12,21,f,1,2,106.0,30,2,low,5 - 8 + 7 + 1 + 1,6,8,7,6,1815.6572625,1817.6818922,1819.1972575,1824.2159121000004,1825.1904102,1825.1904151,1826.7069788,1827.7238755,e,6.0,0.9744980999994368,1,+1,560,-28.07897740822073,0.49656117904151653,0.11583890010689091,1814891.0,11.833084980071021,0.9051786003520483,0.08254181139841865,1818425.0,,,,,1819.1962736910002,1815.6622736910003,
115,12,21,f,1,2,107.0,31,3,low,5 - 1 - 4 + 6 + 7,13,14,13,15,1829.2405647000005,1831.2672032,1832.7824999000004,1837.8013088,1839.006349,1839.006354,1840.5227379,1841.5397325000004,w,13.0,1.2050402000004397,1,+1,561,10.119221271573114,-2.911011072935131,-1.5083576922934383,1828476.0,27.764361334803908,1.4527559537507715,-0.3891427784977539,1832010.0,,,,,1832.7812736910003,1829.2472736910004,
116,12,21,f,1,2,108.0,32,1,high,2 + 9 + 1 + 1 + 1,14,12,13,14,1843.0566535,1845.0821915000008,1846.597533,1851.6156689,1852.9104432000004,1852.9104488000005,1854.4271475000005,1855.44452,e,14.0,1.2947743000004266,1,+10,571,31.25438933821637,0.16212815979881512,-0.8039493914179845,1842291.0,4.38195822753996,0.499427998217306,0.1084661027258984,1845825.0,,,,,1846.5962736910003,1843.0622736910002,
117,12,21,f,1,2,109.0,33,4,high,4 + 9 - 7 + 8 + 5,19,19,20,21,1856.9610757,1858.9882523000008,1860.5034535000004,1865.5222031000003,1867.8464367000008,1867.8464414,1869.3631503000008,1870.3805188000008,q,19.0,2.324233600000298,1,+10,581,-5.64473104147601,-1.2365790829460366,-1.136792054952584,1856197.0,-3.694397570676344,-0.9242238389195396,-0.03601139716017743,1859731.0,,,,,1860.5022736910003,1856.9682736910001,
118,12,21,f,1,2,110.0,34,3,high,4 + 5 - 3 + 7 - 1,12,11,13,12,1871.8972867,1873.9244968000005,1875.4397214,1880.458323,1881.7903515,1881.790357,1883.3072432,1884.3247382,e,12.0,1.3320284999999783,1,+10,591,5.443277334546842,0.7702151245379731,0.03482936205841458,1871133.0,-13.32085683591734,0.8846042917751529,-0.013108366019338291,1874667.0,,,,,1875.4382736910002,1871.9042736910003,
119,12,21,f,1,2,111.0,35,4,low,8 + 7 - 4 + 5 + 9,25,26,24,25,1885.8415568,1887.8699049000008,1889.3851242,1894.4035856,1895.3983791,1895.3983849000008,1896.9151665,1897.932199,e,25.0,0.9947935000000144,1,+1,592,21.356153285086187,0.6343815340348886,-0.13103371400272623,1885079.0,-25.762257720998473,-0.07125107363342043,0.10045341507102368,1888612.0,,,,,1889.3832736910003,1885.8502736910002,
120,12,21,f,1,2,112.0,36,1,low,3 + 1 + 9 + 1 + 1,15,15,17,14,1899.4489998,1901.4769439,1902.9920496000004,1908.0103673000003,1908.8463024,1908.8463074,1910.3629641,1911.3798491,q,15.0,0.8359350999999151,1,+1,593,-1.844789307161621,2.255723657524439,-0.3242012364824367,1898686.0,3.218134125915813,-0.5270454143928589,-0.3415260125401387,1902219.0,,,,,1902.9902736910003,1899.4572736910002,
121,12,21,f,1,2,113.0,37,4,low,5 + 8 - 6 + 7 + 4,18,17,19,18,1912.8965223000005,1914.9242398000008,1916.4395112,1921.4587364,1923.1903366000008,1923.190342,1924.7069570000003,1925.7233005,e,18.0,1.7316002000006847,1,+1,594,14.845155052085172,1.1971670877966725,0.07241160281036851,1912133.0,50.42455509091236,0.21639742714207078,-0.30262176863252765,1915667.0,,,,,1916.4382736910002,1912.9042736910003,
122,12,21,f,1,3,114.0,0,3,low,9 - 5 - 1 - 6 + 8,5,4,7,5,1936.809819,1938.8368021000008,1940.352089,1945.3714055,1947.45428,1947.4542851000008,1948.9707628000008,1949.9880380000004,e,5.0,2.082874499999889,1,+1,595,-13.949429552448496,0.07161451786381878,-0.30158718091034453,1936045.0,5.705946264764176,0.21906351986510497,-0.4237745602615606,1939580.0,,,,,1940.3512736910002,1936.8162736910003,
123,12,21,f,1,3,115.0,1,1,low,7 - 1 + 8 + 1 - 1,14,13,14,12,1951.5043974,1953.5317311,1955.0469904,1960.0653919000008,1961.0143293,1961.014335,1962.5307238000005,1963.5476470000003,w,14.0,0.9489373999995224,1,+1,596,3.0657664596900664,-1.171352517433732,-2.409113060973464,1950740.0,-1.5902488706693738,0.10627435050998635,0.024477478550442466,1954274.0,,,,,1955.0452736910001,1951.5112736910003,
124,12,21,f,1,3,116.0,2,1,high,7 + 1 + 6 + 1 + 1,16,17,16,18,1965.0644298,1967.0908859,1968.6061074,1973.6251696,1974.6302732000004,1974.6302786000008,1976.1471239,1977.1644386,w,16.0,1.0051036000004387,1,+10,606,-24.66518311386579,-5.981316492452505,-4.321826794433749,1964299.0,0.5285860412900085,-2.001906963953128,-3.2407408061248986,1967834.0,,,,,1968.6052736910003,1965.0702736910002,
125,12,21,f,1,3,117.0,3,2,low,5 + 1 + 7 - 6 + 1,8,8,7,6,1978.6812765000004,1980.7090837000003,1982.2240211,1987.2431785,1988.4302331,1988.430238,1989.9462257000005,1990.9628328,q,8.0,1.1870546000000104,1,+1,607,13.313955336406655,1.3519000752314794,0.31406059204436776,1977917.0,-30.57029297842618,0.6963896498143978,0.8868928284949593,1981452.0,,,,,1982.2232736910003,1978.6882736910002,
126,12,21,f,1,3,118.0,4,1,high,7 - 1 + 1 + 9 - 1,15,13,15,14,1992.4796606,1994.5063581000004,1996.0216626,2001.0403781000005,2002.1182545,2002.1182596,2003.634911,2004.652196,w,15.0,1.0778763999996954,1,+10,617,8.3885573932047,-0.3734071198041704,0.006331642550301719,1991715.0,17.137612600787573,0.0003853177611219394,-0.15598992156723224,1995249.0,,,,,1996.0202736910003,1992.4862736910002,
127,12,21,f,1,3,119.0,5,1,high,8 + 1 + 1 - 1 - 4,5,6,3,5,2006.169043,2008.1937227,2009.7087437,2014.7265310000005,2016.0622105,2016.0622155,2017.5786791,2018.5962114000004,e,5.0,1.3356794999999693,1,+10,627,-3.5593055308385697,0.2970868880955315,0.5537428637815389,2005402.0,11.664011287234558,0.3377183784507958,0.42422281005708484,2008935.0,,,,,2009.7062736910002,2006.1732736910003,
128,12,21,f,1,3,120.0,6,3,low,6 - 1 + 7 - 8 + 9,13,11,13,12,2020.1129535,2022.1392962,2023.6543176000005,2028.673237,2030.0302791000004,2030.0302849,2031.5471582,2032.5641395,w,13.0,1.357042100000399,1,+1,628,6.272951979335632,1.2829426764470213,0.390798613994225,2019348.0,-68.54707942102654,-0.3681288211009708,-0.017630353727153825,2022882.0,,,,,2023.6532736910003,2020.1192736910002,
129,12,21,f,1,3,121.0,7,2,high,4 + 8 + 1 + 1 - 6,8,9,8,7,2034.0816602000004,2036.1092301,2037.624465,2042.6426866,2043.8141996000004,2043.8142049,2045.3309745000008,2046.3485444,w,8.0,1.1715130000002318,1,+10,638,25.60412314198187,2.3171478615968724,0.1675056886468873,2033317.0,10.73326472014824,-0.16043578204857134,-0.4369564880202237,2036851.0,,,,,2037.6222736910004,2034.0882736910003,
130,12,21,f,1,3,122.0,8,1,high,4 + 9 + 1 - 1 - 1,12,13,11,12,2047.8652827000003,2049.8921531000005,2051.4073881000004,2056.4266249,2057.6140909000005,2057.6140959000004,2059.1305238000004,2060.1477209000004,e,12.0,1.1874660000003132,1,+10,648,-7.692653366418764,-0.3433932214493307,0.09924091411566405,2047100.0,-4.759042951010834,-1.3423391778092153,-0.8626058351570802,2050635.0,,,,,2051.4062736910005,2047.8712736910002,
131,12,21,f,1,3,123.0,9,3,low,6 + 1 + 8 + 7 - 9,13,14,13,15,2061.6644598000003,2063.6893216,2065.2036770000004,2070.2225841,2071.7901295,2071.7901343000003,2073.3065583,2074.3236007000005,w,13.0,1.5675454000001992,1,+1,649,-16.196266160028742,0.5703758107390726,-0.12090203397216603,2060897.0,4.197255761281963,-0.8423519164213493,-0.09764715948111924,2064431.0,,,,,2065.2022736910003,2061.668273691,
132,12,21,f,1,3,124.0,10,4,low,6 + 7 + 9 - 3 + 5,24,23,24,22,2075.8402823000006,2077.8693705000005,2079.3845422000004,2084.403904,2085.6461928,2085.6461983,2087.1626982,2088.1795313,w,24.0,1.242288800000097,1,+1,650,-5.6056613302576395,-1.3253963574463237,-2.3071159977653917,2075077.0,4.266064541391608,-0.706330975920527,-0.5605940887642997,2078611.0,,,,,2079.382273691,2075.8482736910005,
133,12,21,f,1,3,125.0,11,1,low,5 + 6 + 1 + 1 + 1,14,14,16,15,2089.6963231,2091.7258541,2093.2412293,2098.2592324,2099.502127,2099.5021324,2101.0185086,2102.0355389000006,q,14.0,1.2428945999999996,1,+1,651,20.160924244527852,-0.26938090634782164,0.562873392411751,2088933.0,-38.64830343180965,-0.6125976509375741,0.4607686015319947,2092467.0,,,,,2093.2382736910004,2089.7042736910003,
134,12,21,f,1,3,126.0,12,3,high,6 + 8 + 7 + 1 - 9,13,13,15,14,2103.552336,2105.5792461,2107.0942784,2112.1127865,2113.1821195,2113.1821247,2114.6989526,2115.7162762,q,13.0,1.0693330000003698,1,+10,661,-18.20445122741684,1.2629754325463205,0.38143850387182887,2102787.0,-57.32512768980193,-0.012018052085450925,-0.5139910766755476,2106321.0,,,,,2107.092273691,2103.558273691,
135,12,21,f,1,3,127.0,13,4,low,4 + 7 + 8 - 3 + 9,25,25,26,24,2117.2330233,2119.25872,2120.7739852000004,2125.7942283,2127.0781184,2127.0781235000004,2128.5947542000004,2129.6126795,w,26.0,1.283890099999553,0,+0,661,1.0089417397815286,0.2743293139480816,1.713077731152945,2116467.0,8.440550830541468,3.0754998661339092,0.12655785939521103,2120002.0,,,,,2120.773273691,2117.2382736910004,
136,12,21,f,1,3,128.0,14,1,high,8 + 1 + 4 + 1 + 1,15,15,14,16,2131.1295837,2133.1569694,2134.6721731,2139.6906829,2140.8540341,2140.8540391000006,2142.370621,2143.3879422,q,15.0,1.1633511999998518,1,+10,671,-16.51858947220803,-0.39272919433101894,0.14738153119332642,2130365.0,21.62055864040807,-0.541748840056163,0.026618961708967603,2133898.0,,,,,2134.6692736910004,2131.136273691,
137,12,21,f,1,3,129.0,15,3,high,8 + 4 + 1 - 7 + 9,15,15,13,16,2144.9047427000005,2146.9291922,2148.4447125000006,2153.4645233,2154.2301033000003,2154.2301093000005,2155.7468258,2156.7643654000003,q,15.0,0.7655800000002273,1,+10,681,9.817853400442205,2.2565156390178362,2.1232501411528473,2144137.0,18.9781004286588,-8.912700349653083,-4.4120813868490725,2147672.0,,,,,2148.4432736910003,2144.9082736910004,
138,12,21,f,1,3,130.0,16,2,high,7 + 6 + 1 - 1 - 8,5,4,5,3,2158.2811553,2160.3051414,2161.8208464,2166.8398702000004,2168.0540251,2168.054030400001,2169.5705129,2170.587635,w,5.0,1.2141548999998122,1,+10,691,18.101986741138052,3.6994692859888723,3.6527668542689904,2157513.0,27.519239685961647,-0.7450310767879031,-0.400484933581879,2161048.0,,,,,2161.819273691,2158.284273691,
139,12,21,f,1,3,131.0,17,2,high,6 + 1 + 1 + 8 - 9,7,5,7,9,2172.1045503000005,2174.1313686000003,2175.6465846,2180.6650069,2181.8859969000005,2181.8860017000006,2183.4031587,2184.4217673000003,w,7.0,1.220990000000711,1,+10,701,-16.11787076404422,0.3584223955655146,0.19023319534705596,2171339.0,-18.371835985785673,-0.2145633444142474,-0.31615715638230224,2174873.0,,,,,2175.6442736910003,2172.110273691,
140,12,21,f,1,3,132.0,18,3,high,7 - 5 + 9 + 1 - 4,8,9,7,8,2185.9389225000004,2187.9676659000006,2189.483031,2194.5028242,2195.5819908000003,2195.5819956000005,2197.0984769999995,2198.1157295,e,8.0,1.0791666000004625,1,+10,711,23.835892230195938,0.33178996659631554,0.4151791071512241,2185175.0,6.783630201574653,0.12361824675488808,-0.27914103903880294,2188711.0,,,,,2189.482273691,2185.9462736910004,
141,12,21,f,1,3,133.0,19,4,low,7 + 8 - 4 + 6 - 5,12,12,11,13,2199.6324633000004,2201.6595215,2203.1747165,2208.1931214,2209.158018100001,2209.1580237,2210.6747658000004,2211.6921117,q,12.0,0.9648967000011908,1,+1,712,8.436681935019553,0.4092911915764468,0.7515578427999476,2198867.0,20.644821544923428,2.011784898631023,-0.4488243746325189,2202401.0,,,,,2203.172273691,2199.6382736910004,
142,12,21,f,1,3,134.0,20,2,high,9 + 4 + 5 + 1 - 1,18,18,17,19,2213.2088545000006,2215.2340318000006,2216.749273900001,2221.7670658000006,2222.8859489999995,2222.8859539999994,2224.402363700001,2225.419411500001,q,18.0,1.1188831999988906,1,+10,722,-6.19712204715465,-0.3946186520497754,0.1037631585049903,2212442.0,-32.713144902194614,-1.5908638766208352,-0.9536429111024534,2215975.0,,,,,2216.746273691,2213.2132736910003,
143,12,21,f,1,3,135.0,21,2,high,6 + 1 + 8 + 7 - 1,21,21,19,23,2226.936545300001,2228.9626668,2230.4779328000004,2235.4970204,2236.421955100001,2236.42196,2237.938436300001,2238.9558677999994,q,21.0,0.9249347000004492,1,+10,732,12.014127134997661,1.0763575596699324,-0.11775001785335393,2226170.0,-35.9747116789151,-0.7461809133747828,-0.29560968669053356,2229704.0,,,,,2230.4752736910004,2226.9412736910003,
144,12,21,f,1,3,136.0,22,4,low,8 + 4 + 7 - 5 - 6,8,9,8,6,2240.4724852,2242.4995347000004,2244.0148057000006,2249.0330995000004,2250.1978622999995,2250.1978672999994,2251.714359400001,2252.7314233,w,8.0,1.1647627999991528,1,+1,733,37.40313541531478,-1.404615656033946,-4.880670205265046,2239707.0,-31.622503960941703,0.47392283741172747,-0.25521724937352985,2243241.0,,,,,2244.0122736910002,2240.478273691,
145,12,21,f,1,3,137.0,23,1,low,9 + 7 + 1 + 1 + 1,19,20,18,19,2254.2483236000007,2256.2754356000005,2257.7903331,2262.8076256000004,2264.757910100001,2264.7579148000004,2266.2747929,2267.2920668000006,q,20.0,1.9502845000006344,0,+0,733,-14.31229594281194,0.9989824603808417,0.38240196405947247,2253482.0,21.549881665444406,-0.5474874766529423,-0.5951584587009511,2257016.0,,,,,2257.7872736910003,2254.2532736910002,
146,12,21,f,1,3,138.0,24,2,high,7 + 5 + 1 - 1 - 8,4,2,4,3,2268.809136600001,2270.8371293,2272.3529978000006,2277.3730736,2278.6698457,2278.6698507,2280.1864878,2281.2039675,w,4.0,1.296772100000453,1,+10,743,-1.9955574717768805,0.7216352940298023,-0.20572755951494348,2268044.0,31.764226614463695,0.30013197595687213,0.07261585224255862,2271580.0,,,,,2272.351273691,2268.815273691,
147,12,21,f,1,3,139.0,25,3,low,3 + 8 + 1 + 5 - 9,8,8,9,7,2282.720700600001,2284.748806900001,2286.2641365,2291.2823862999994,2292.4779166000008,2292.4779223999994,2293.9948865000006,2295.0116309999994,q,8.0,1.1955303000013373,1,+1,744,-11.546505090143064,-11.77234387483692,-5.969271629651821,2281956.0,-0.4394557196847355,1.9288393978683755,-0.3921109737793045,2285490.0,,,,,2286.261273691,2282.7272736910004,
148,12,21,f,1,3,140.0,26,2,high,6 + 1 + 1 + 7 - 9,6,8,4,6,2296.5284472000003,2298.5539056,2300.0690780000004,2305.089077300001,2306.2778781,2306.2778868000005,2307.7945435,2308.8117446,e,6.0,1.188800799998717,1,+10,754,0.4546937841119707,1.5066466659130855,1.2684397766317672,2295761.0,12.182045352135773,-2.1090704271515834,-0.4552623005933536,2299296.0,,,,,2300.067273691,2296.5322736910002,
149,12,21,f,1,3,141.0,27,1,high,5 + 9 - 1 + 1 + 1,15,13,17,15,2310.3286464,2312.3562669000003,2313.871485400001,2318.889420200001,2320.1178294,2320.117834300001,2321.6340967,2322.6510266999994,e,15.0,1.2284091999990778,1,+10,764,-4.49524145954754,0.05973803471075545,0.10294605377430921,2309563.0,0.03780293823302294,-1.3789057919021186,-0.4136876740122166,2313097.0,,,,,2313.8682736910005,2310.3342736910004,
150,12,21,f,1,3,142.0,28,4,high,4 + 7 - 8 + 9 - 3,9,11,8,9,2324.1677880000007,2326.1918074999994,2327.7069962999994,2332.7261746000004,2333.981837700001,2333.981843900001,2335.498354200001,2336.5155668000007,e,9.0,1.2556631000006746,1,+10,774,15.927141786895906,-0.692955593461364,0.07007853914467699,2323399.0,9.682676373971251,0.30704047803332735,21.241172849754538,2326933.0,,,,,2327.7042736910003,2324.170273691,
151,12,21,f,1,3,143.0,29,2,high,9 + 1 + 6 + 7 + 1,24,24,25,23,2338.032544900001,2340.0560343,2341.5712767999994,2346.5894188,2347.4699198,2347.4699251,2348.9861217,2350.0031500999994,q,24.0,0.88050099999964,1,+10,784,11.418485241801184,0.3358890772820784,0.14192101112781064,2337263.0,11.678608604379724,0.3321683774323212,-0.2469447070704507,2340796.0,,,,,2341.567273691,2338.034273691,
152,12,21,f,1,3,144.0,30,3,low,3 + 1 + 8 - 5 + 6,13,14,15,13,2351.5198939,2353.548063,2355.0632315000003,2360.0814577,2361.2858506,2361.2858559,2362.8023061000004,2363.8204914,e,13.0,1.2043928999992204,1,+1,785,-7.709562299513276,1.7031119149974163,1.2906350806659912,2350755.0,1.5914483841349494,0.0065933192288580855,0.0016174635949020022,2354288.0,,,,,2355.0592736910003,2351.5262736910004,
153,12,21,f,1,3,145.0,31,1,low,8 + 1 + 5 + 1 + 1,16,15,16,17,2365.3386192,2367.366369200001,2368.8816147,2373.8994891,2374.7417700999995,2374.7417751,2376.2580082000004,2377.2749205,w,16.0,0.8422809999992751,1,+1,786,4.731517432339422,1.1473816660598173,0.17975317111544342,2364573.0,-8.883972518601226,0.8636991608307336,-0.6815014747070149,2368106.0,,,,,2368.8772736910005,2365.344273691,
154,12,21,f,1,3,146.0,32,4,high,4 + 7 + 9 - 5 + 7,22,24,23,22,2378.791635900001,2380.8193453000004,2382.3346340000007,2387.3540156,2389.5417158,2389.541720700001,2391.0583037,2392.0754234,w,23.0,2.1877002000001085,0,+0,786,-4.709028329426106,-0.5447206903896147,-0.17309795813365403,2378026.0,9.411078089870802,-2.8565327210428153,-2.495649120495321,2381561.0,,,,,2382.3322736910004,2378.797273691,
155,12,21,f,1,3,147.0,33,2,low,2 + 9 - 4 + 1 + 1,9,9,8,11,2393.5921174,2395.6198936,2397.1347785,2402.153081500001,2403.549705200001,2403.54971,2405.0661772000003,2406.0833299000005,q,9.0,1.3966237000004185,1,+1,787,16.82386569970831,-0.05228685674340827,-0.11446522831127748,2392827.0,22.512453134780827,0.2755499937927066,-0.4318681023220763,2396360.0,,,,,2397.1312736910004,2393.5982736910005,
156,12,21,f,1,3,148.0,34,3,low,7 - 1 + 8 - 6 + 4,12,12,13,11,2407.6000566,2409.6280947,2411.1431464,2416.161777,2417.237686300001,2417.2376912,2418.7542278,2419.7713299000006,q,12.0,1.0759093000015127,1,+1,788,-3.74253670929113,2.5142944857330107,3.3016251008914397,2406835.0,-26.45040850980894,0.1622881961069167,-0.14967176859646214,2410369.0,,,,,2411.1402736910004,2407.6062736910003,
157,12,21,f,1,3,149.0,35,2,low,3 + 8 - 5 + 1 + 1,8,9,8,6,2421.2882682,2423.316068,2424.8313834,2429.8494116,2432.54177,2432.541775,2434.0584144000004,2435.0753463,w,8.0,2.692358399999648,1,+1,789,8.647925216161163,1.0125944143845498,-0.017052849687783755,2420523.0,43.99711986065134,0.38354235590785546,-0.1845708152367873,2424056.0,,,,,2424.8272736910003,2421.2942736910004,
158,12,21,f,1,3,150.0,36,1,high,7 - 1 + 9 + 1 - 1,15,15,14,13,2436.5923246,2438.6199013999994,2440.1349877,2445.1538273999995,2446.6377901,2446.6377952000003,2448.154381100001,2449.1716409,q,15.0,1.48396270000012,1,+10,799,30.00994776082744,0.9861711170957888,0.17822675043713998,2435827.0,12.850142617706137,0.29421703966063273,-0.042916943838793964,2439360.0,,,,,2440.1312736910004,2436.5982736910005,
159,12,21,f,1,3,151.0,37,1,low,3 + 1 + 9 + 1 - 1,13,12,14,13,2450.6893908,2452.7153899000004,2454.2306417,2459.2488094,2460.4377427,2460.4377477,2461.9542827999994,2462.9723973,e,13.0,1.188933299999917,1,+1,800,-14.011079037329495,2.3053638261142932,1.2636706113499225,2449922.0,12.301967583052704,-4.44544821970522,-2.9559888118315576,2453455.0,,,,,2454.226273691,2450.6932736910003,
160,12,21,f,1,4,152.0,0,1,high,8 + 1 + 1 + 1 - 4,7,5,8,7,2473.0895514000003,2475.115580900001,2476.6309005000003,2481.650119,2482.6216666,2482.6216721,2484.1383018,2485.155638100001,e,7.0,0.9715476000001216,1,+10,810,7.604960371524964,0.35064441441234884,0.5334868381891673,2472322.0,-24.34840621523767,-0.4680490639023729,0.19682769228240016,2475857.0,,,,,2476.6282736910002,2473.0932736910004,
161,12,21,f,1,4,153.0,1,1,low,4 + 7 + 1 - 1 - 1,10,9,10,11,2486.672597700001,2488.699815,2490.2154948000007,2495.2337305,2496.1736748000003,2496.1736803999997,2497.6903373000005,2498.7071720999998,w,10.0,0.9399443000002066,1,+1,811,-10.180861823432867,-0.3704322414514092,-0.3284837538854024,2485906.0,-31.806808281179986,-0.5548126766724266,-1.1051482288154877,2489441.0,,,,,2490.212273691,2486.677273691,
162,12,21,f,1,4,154.0,2,4,low,6 + 9 - 7 + 8 - 5,11,12,11,13,2500.2245411999997,2502.2503708000004,2503.765502800001,2508.7857155,2510.1656733,2510.1656786000003,2511.6823076,2512.6991855,w,11.0,1.3799577999998291,1,+1,812,2.158267849832553,-11.272705076300321,-3.5506630422064074,2499457.0,-23.035646832703723,-4.038205599078176,-3.848646838512125,2502992.0,,,,,2503.7632736910004,2500.228273691,
163,12,21,f,1,4,155.0,3,4,low,7 + 6 - 9 + 8 - 3,9,8,7,9,2514.2153144999997,2516.2404584,2517.7557326999995,2522.7740448000004,2524.1416073,2524.141612200001,2525.6577541000006,2526.6750322000007,e,9.0,1.3675624999996217,1,+1,813,15.157048982275015,-0.2883106896434313,-0.348309716058933,2513447.0,-37.55227321394011,0.007835663511460034,-0.6942832277193656,2516981.0,,,,,2517.7522736910005,2514.2182736910004,
164,12,21,f,1,4,156.0,4,2,high,4 + 1 + 9 + 1 - 6,9,9,8,7,2528.1920439000005,2530.218110400001,2531.7341211000003,2536.7522369,2537.7976423,2537.7976475,2539.314035200001,2540.3309554000007,q,9.0,1.0454054000001634,1,+10,823,2.2534113107144265,0.22880985805667375,0.9351280596553266,2527424.0,-7.0118388238866105,-2.896043374533832,-2.0115368825768734,2530959.0,,,,,2531.730273691,2528.1952736910002,
165,12,21,f,1,4,157.0,5,2,low,3 - 1 + 9 - 5 + 1,7,7,5,6,2541.8475701000007,2543.8749604000004,2545.3908536,2550.4092427,2552.6615643000005,2552.6615692,2554.177917000001,2555.1948267000007,q,7.0,2.252321600000869,1,+1,824,31.994957922197457,-0.7777920891379164,0.200109718160407,2541081.0,6.816669466900311,-0.3079579220663051,0.6213150709746897,2544616.0,,,,,2545.3872736910002,2541.8522736910004,
166,12,21,f,1,4,158.0,6,1,high,6 + 1 + 1 + 9 - 1,16,15,14,16,2556.7114201000004,2558.7372269000007,2560.2525539,2565.2721855,2566.6295384000005,2566.6295436,2568.1459453000007,2569.1630363000004,e,16.0,1.3573529000004785,1,+10,834,-34.800924256557025,-1.374853656617674,-1.3087177654977245,2555943.0,-15.762370025974821,-0.39714402016331896,0.011931275824015763,2559478.0,,,,,2560.2492736910003,2556.7142736910005,
167,12,21,f,1,4,159.0,7,1,low,9 + 1 + 1 + 7 - 1,17,16,17,19,2570.6800275999994,2572.7070658,2574.2224635,2579.2407592,2580.6455461000005,2580.6455511000004,2582.1620459999995,2583.1791075,w,17.0,1.4047869000005448,1,+1,835,-63.70562047471236,1.0966175315259328,1.5583870665134252,2569913.0,10.591631483634334,-1.1182724726743727,-0.2982122896815107,2573447.0,,,,,2574.2182736910004,2570.6842736910003,
168,12,21,f,1,4,160.0,8,2,high,8 + 1 + 7 + 1 - 4,13,14,13,12,2584.6957874,2586.722306900001,2588.2375768,2593.2575620000007,2595.4134950000007,2595.413500000001,2596.930375,2597.9478201,w,13.0,2.1559330000000045,1,+10,845,-14.815055249157698,0.9236213800760398,-0.10943170328194096,2583928.0,-6.298199072145785,-0.5189178439142319,0.10129388822400931,2587464.0,,,,,2588.235273691,2584.699273691,
169,12,21,f,1,4,161.0,9,3,high,9 + 3 - 4 + 6 + 7,21,21,23,22,2599.464471700001,2601.4919470000004,2603.0073661000006,2608.0252162,2609.4055112999995,2609.4055167999995,2610.922354100001,2611.939751600001,q,21.0,1.3802950999997847,1,+10,855,42.67138402613654,0.23320332951582046,0.09534427989444616,2598698.0,7.0805740583594785,0.4880541341940985,1.4526107978509528,2602232.0,,,,,2603.0032736910002,2599.469273691,
170,12,21,f,1,4,162.0,10,1,low,9 + 8 + 1 + 1 - 1,18,17,18,20,2613.456978800001,2615.4839747999995,2617.0000908,2622.0199085000004,2622.8694573,2622.8694620999995,2624.3855169,2625.4025253,w,18.0,0.8495487999989564,1,+1,856,3.435607071380712,0.08716375411360566,0.07303547847034664,2612690.0,-3.2864361120073795,0.8514458105322387,0.12565421147319045,2616225.0,,,,,2616.996273691,2613.4612736910003,
171,12,21,f,1,4,163.0,11,3,low,4 + 1 + 8 + 9 - 5,17,17,18,19,2626.9194979000004,2628.9469016000003,2630.4621388,2635.4806482999998,2636.6054673,2636.605472200001,2638.1221050000004,2639.1394161000007,q,17.0,1.124819000000571,1,+1,857,37.3210185852914,0.6180148576106115,-0.02340822330786896,2626153.0,-7.542766334043321,0.48265745330989596,0.13516518222840612,2629687.0,,,,,2630.458273691,2626.924273691,
172,12,21,f,1,4,164.0,12,2,high,8 + 1 + 1 + 9 - 4,15,16,15,14,2640.6560833000003,2642.683283800001,2644.1982609000006,2649.2153423,2650.7174665,2650.717471600001,2652.233785300001,2653.2510669000003,w,15.0,1.502124200000253,1,+10,867,-20.778708298123284,-0.0837077045314416,-0.4553357063966761,2639889.0,-31.265835479851283,-0.10636311107240637,-0.2975793811432368,2643422.0,,,,,2644.1932736910003,2640.6602736910004,
173,12,21,f,1,4,165.0,13,4,low,8 + 4 - 5 + 7 - 6,8,7,6,8,2654.7678246,2656.7917782000004,2658.3069808,2663.3255666000005,2664.5014257000003,2664.501430800001,2666.017981000001,2667.0345959999995,e,8.0,1.1758590999997978,1,+1,868,-7.798116226014756,-5.704447886362053,-3.578199310763164,2653998.0,37.332064171415695,0.48859368606675435,0.017801363746542176,2657532.0,,,,,2658.3032736910004,2654.7692736910003,
174,12,21,f,1,4,166.0,14,4,low,8 + 3 - 4 + 5 + 9,21,22,23,21,2668.5513685999995,2670.5766412,2672.0924127,2677.110602500001,2678.2134843999997,2678.2134898000004,2679.730026000001,2680.7471826,w,23.0,1.102881899998465,0,+0,868,-31.815204805373387,0.5109190574036724,-0.07701520455803212,2667782.0,6.837354712772704,-0.026520598517689287,-0.014763775898493536,2671317.0,,,,,2672.0882736910003,2668.5532736910004,
175,12,21,f,1,4,167.0,15,2,low,5 + 9 - 8 + 1 + 1,8,8,9,7,2682.263335,2684.2889237,2685.804280800001,2690.8225778,2691.789374600001,2691.7893798999994,2693.3057857000003,2694.3227136999994,q,8.0,0.966796800001248,1,+1,869,-7.592541709860495,0.8304866370486002,0.3281882501471678,2681495.0,22.03557019744506,0.1876172719405984,-0.7214376098939637,2685029.0,,,,,2685.8002736910003,2682.266273691,
176,12,21,f,1,4,168.0,16,2,low,3 + 1 + 8 - 5 - 1,6,7,5,6,2695.839256200001,2697.8626496,2699.3777252,2704.3959362999994,2705.381449300001,2705.3814552000003,2706.8980939,2707.9149344,e,6.0,0.9855130000014468,1,+1,870,18.996598377147258,0.053390137486491795,0.19085007489700168,2695068.0,26.882404035564086,0.927451580390561,-0.465178255465319,2698602.0,,,,,2699.373273691,2695.8392736910005,
177,12,21,f,1,4,169.0,17,3,high,7 - 6 + 8 + 1 + 7,17,15,17,16,2709.4316813999994,2711.4559634,2712.9712402000005,2717.991516100001,2721.0374422999994,2721.0374476,2722.5540956999994,2723.5714590000007,q,15.0,3.045926199998576,0,+0,870,-7.604440741878996,1.285273813407767,0.15548025551766953,2708662.0,-34.48326983060322,0.10703048528502457,-0.031070854912520485,2712197.0,,,,,2712.9682736910004,2709.433273691,
178,12,21,f,1,4,170.0,18,1,low,4 + 1 + 1 + 7 - 1,12,13,14,12,2725.0873767,2727.1148808,2728.630059000001,2733.6486872000005,2734.5893333000004,2734.5893383,2736.1060469999998,2737.1230493000003,e,12.0,0.9406460999998671,1,+1,871,13.605442920532814,-0.23804955897694224,-0.0001508902981504079,2724320.0,-14.182025464324823,-0.32603601176254937,-0.09434773579735012,2727854.0,,,,,2728.625273691,2725.0912736910004,
179,12,21,f,1,4,171.0,19,1,low,4 + 8 + 1 - 1 - 1,11,9,13,11,2738.6398396000004,2740.6649254000004,2742.1802941000005,2747.1984682,2748.1654544,2748.1654595,2749.6825112000006,2750.6995640000005,e,11.0,0.9669861999991554,1,+1,872,26.669057047482028,1.6506859923884765,0.25289187805861957,2737871.0,-2.8753712245816025,-2.268351112120718,-1.4464124852058342,2741404.0,,,,,2742.1752736910003,2738.6422736910004,
180,12,21,f,1,4,172.0,20,1,low,3 + 1 + 8 + 1 + 1,14,14,16,13,2752.2163058999995,2754.2434221000003,2755.7584019999995,2760.7768561,2762.4133331,2762.4133392000003,2763.9296509,2764.9464995,q,14.0,1.6364770000000135,1,+1,873,-7.610535897052312,-0.260001623563479,0.06240670909495716,2751449.0,-48.34749247609717,-0.9369150137064786,-0.40474520585688856,2754982.0,,,,,2755.7532736910002,2752.2202736910003,
181,12,21,f,1,4,173.0,21,4,high,5 + 7 - 4 - 6 + 9,11,13,11,12,2766.4633238999995,2768.4920735,2770.0073895999994,2775.0259202,2776.4693991999998,2776.4694045,2777.9862651000003,2779.0036096000003,w,11.0,1.44347899999957,1,+10,883,3.3473659935040154,0.784969447461811,0.022477654468387787,2765698.0,3.1480672621690324,0.2443267687147337,1.0009593589321515,2769231.0,,,,,2770.0022736910005,2766.469273691,
182,12,21,f,1,4,174.0,22,4,high,4 + 7 + 8 - 3 + 9,25,26,25,24,2780.5203762,2782.5429442000004,2784.0581833,2789.0773678999994,2791.101299600001,2791.1013043000003,2792.6177407,2793.6348137999994,q,26.0,2.0239317000014125,0,+0,883,-14.421823250235656,1.301696038150232,1.7975511353880962,2779749.0,-7.139044094456747,-0.4313772100699653,-0.07310420784755678,2783282.0,,,,,2784.0532736910004,2780.520273691,
183,12,21,f,1,4,175.0,23,1,high,9 + 8 + 1 + 1 - 1,18,19,17,18,2795.1512002,2797.174181300001,2798.6892867999995,2803.708514600001,2804.301337000001,2804.3013426,2805.817964600001,2806.8346662000004,e,18.0,0.5928223999999318,1,+10,893,7.227427831152111,-0.04433294114287545,0.23541804421237145,2794379.0,16.1722574102982,0.0847367332241502,0.23746322116773322,2797913.0,,,,,2798.6842736910003,2795.150273691,
184,12,21,f,1,4,176.0,24,3,high,3 + 8 - 7 + 1 + 9,14,12,13,14,2808.351318000001,2810.376782200001,2811.8920789999997,2816.9107718,2820.1493427000005,2820.1493477999998,2821.6664055,2822.6832067,e,14.0,3.238570900000923,1,+10,903,-0.03545361844133055,-8.277847980851952,-4.403440135194444,2807582.0,2.8525390438956997,-0.919805469859579,-1.0132638703764871,2811116.0,,,,,2811.8872736910002,2808.353273691,
185,12,21,f,1,4,177.0,25,1,low,3 + 1 + 8 - 1 + 1,12,12,13,10,2824.2000480999995,2826.2278969,2827.7431277,2832.761311100001,2833.9092784000004,2833.9092834000003,2835.4267709,2836.443996600001,q,12.0,1.1479672999994364,1,+1,904,-10.991274470903274,0.11862112987532658,0.29982130155647346,2823434.0,-10.953303380011599,-0.8002913353568211,-0.5008180588980506,2826967.0,,,,,2827.7382736910004,2824.2052736910005,
186,12,21,f,1,4,178.0,26,2,high,7 + 1 + 9 - 1 - 8,8,6,7,8,2837.9609616,2839.9878804,2841.5030955,2846.5216070999995,2847.5733132000005,2847.5733186,2849.0898643,2850.1073450999997,e,8.0,1.0517061000009562,1,+10,914,5.112221072008702,1.2792263107109125,-0.10041075524820187,2837193.0,-17.51685108340615,-0.6945115833374214,-0.21325643049547605,2840727.0,,,,,2841.498273691,2837.9642736910005,
187,12,21,f,1,4,179.0,27,3,low,4 + 8 - 9 + 1 + 7,11,13,9,11,2851.6240304000003,2853.6499115000006,2855.1651464000006,2860.1835959,2861.3492573000003,2861.3492633999995,2862.8658817,2863.8828744,e,11.0,1.1656614000003174,1,+1,915,-37.80054295591404,0.2832030208034153,0.13580284629116735,2850855.0,11.56291370359395,-0.16987167928602087,-1.1278873676192327,2854389.0,,,,,2855.1602736910004,2851.6262736910003,
188,12,21,f,1,4,180.0,28,3,low,7 - 1 + 8 - 6 + 4,12,12,13,11,2865.3998742000003,2867.4243537,2868.9396739999997,2873.9581444,2874.9491696000005,2874.9491746000003,2876.4655853000004,2877.4825808000005,q,12.0,0.9910252000008768,1,+1,916,10.841626582232546,-0.6953067056933957,-0.5018772423892179,2864630.0,-18.44093854090872,-0.20943167053410416,-0.10943171595942891,2868163.0,,,,,2868.9342736910003,2865.4012736910004,
189,12,21,f,1,4,181.0,29,2,high,3 + 8 + 1 - 5 + 1,8,8,9,6,2878.9985073000007,2881.026858700001,2882.5425522999994,2887.5606657000008,2889.7172539000003,2889.7172592000006,2891.2330297000008,2892.250332400001,q,8.0,2.1565881999995327,1,+10,926,3.6125210932750775,-0.2494249164098381,-0.14279331512315663,2878231.0,7.033893680815565,0.0702825986447877,-0.07407868741337542,2881766.0,,,,,2882.5372736910003,2879.0022736910005,
190,12,21,f,1,4,182.0,30,2,low,9 + 6 + 1 + 7 + 1,24,25,23,24,2893.766905800001,2895.7960808000007,2897.3114494,2902.3295173000006,2903.6212209000005,2903.6212259000004,2905.1375388,2906.1545893,e,24.0,1.2917035999998916,1,+1,927,-59.15476255262266,0.6902501113734116,-0.13882472252939326,2893001.0,4.048905998112426,0.43419284910142686,-0.06892142603042917,2896535.0,,,,,2897.306273691,2893.7722736910005,
191,12,21,f,1,4,183.0,31,1,high,6 + 1 + 1 + 7 - 1,14,12,13,14,2907.6716314000005,2909.6974945,2911.212436400001,2916.230845,2917.6771195,2917.677124400001,2919.194282500001,2920.211648800001,e,14.0,1.4462745000000723,1,+10,937,12.249712813223066,0.16521661403783572,-0.010378064459223957,2906903.0,-24.287749757636025,0.39504492122732504,-0.15752918130517335,2910436.0,,,,,2911.2072736910004,2907.674273691,
192,12,21,f,1,4,184.0,32,1,high,2 + 1 + 9 + 1 - 1,12,12,13,11,2921.728495200001,2923.754434500001,2925.2695461000003,2930.2875859,2931.3572109,2931.357216100001,2932.8749031000007,2933.8925376000007,q,12.0,1.069625000000087,1,+10,947,-16.118293663771603,-0.901241197098078,-0.49676347452621883,2920959.0,10.266925093084083,-1.3310149466107477,0.7372753193499308,2924493.0,,,,,2925.264273691,2921.730273691,
193,12,21,f,1,4,185.0,33,3,high,8 + 5 + 1 - 7 + 9,16,14,17,16,2935.409484400001,2937.4341798000005,2938.9490874000003,2943.9682202999998,2945.557106,2945.5571112,2947.0736689000005,2948.0905707,e,16.0,1.5888857000009011,1,+10,957,-19.542031973278743,0.43438855630149664,0.25563623913111044,2934639.0,7.373967693863335,-0.15593955943867321,0.027723970301103407,2938173.0,,,,,2938.944273691,2935.4102736910004,
194,12,21,f,1,4,186.0,34,1,low,3 + 1 + 1 + 8 - 1,12,12,13,14,2949.607191000001,2951.635226800001,2953.1505946,2958.169031900001,2959.2291054,2959.2291104,2960.7453685,2961.7621057,q,12.0,1.0600734999989072,1,+1,958,-10.399629907988992,0.68997930556508,-0.1175459738121234,2948840.0,6.383284569665128,-0.8288767518214568,-0.07205496324534821,2952374.0,,,,,2953.145273691,2949.6112736910004,
195,12,21,f,1,4,187.0,35,1,low,3 + 1 + 8 + 1 + 1,14,12,13,14,2963.2788392,2965.3022902,2966.8175453000003,2971.8355121000004,2973.181057,2973.1810625,2974.6975834999994,2975.7145729999997,e,14.0,1.3455448999993678,1,+1,959,-8.90092223096083,0.0030706394483814847,-0.4371799057308321,2962507.0,-27.152513881030476,-0.1997794472582557,-0.13175170990489038,2966041.0,,,,,2966.8122736910004,2963.2782736910003,
196,12,21,f,1,4,188.0,36,2,low,6 + 1 + 8 + 5 - 1,19,18,17,19,2977.2313933999994,2979.2598751000005,2980.7749196000004,2985.793354200001,2986.7730303000008,2986.7730352,2988.289772600001,2989.3066280000003,e,19.0,0.9796760999997788,1,+1,960,12.142056348639343,1.030681785837321,0.12013538396979806,2976465.0,-48.51059470874553,-0.8502887833291135,0.04990091833905641,2979998.0,,,,,2980.7692736910003,2977.2362736910004,
197,12,21,f,1,4,189.0,37,1,low,7 + 1 + 4 + 1 - 1,12,12,13,11,2990.8234477000005,2992.849572700001,2994.3648011999994,2999.383160700001,3000.4370887000005,3000.4370942000005,3001.9536305,3002.9706124000004,q,12.0,1.0539279999993596,1,+1,961,24.264780310824825,0.8502191091731106,-0.8857487172198493,2990054.0,-34.68385484536698,-0.8650292293550113,-0.5899533335353153,2993588.0,,,,,2994.3592736910005,2990.8252736910003,
198,12,21,f,1,5,190.0,0,4,low,7 + 6 - 4 + 9 - 5,13,13,12,14,3020.5685533,3022.5949312,3024.110384,3029.130774700001,3029.9490272000003,3029.949032300001,3031.4654173,3032.4823271000005,q,13.0,0.8182524999992893,1,+1,962,6.09023632401518,-4.393469562255959,-1.8365872424801024,3019800.0,21.683659809632303,0.7747782421639595,-0.6741235197788908,3023335.0,,,,,3024.1062736910003,3020.5712736910004,
199,12,21,f,1,5,191.0,1,4,high,8 + 5 - 4 + 7 + 9,25,24,25,26,3033.9993627000003,3036.0261109000003,3037.5412350000006,3042.559733,3043.5651872,3043.5651923000005,3045.0818348,3046.0993094000005,w,25.0,1.0054541999998037,1,+10,972,11.636680478080077,0.6292573772342793,-0.03206894596294596,3033231.0,0.7995076972665771,0.10953754955933181,-0.23710465871167008,3036764.0,,,,,3037.5352736910004,3034.0022736910005,
