,id,age,sex,cued,block,trial,trialinblock,efflev,rewlev,calc,corAns,option1,option2,option3,tstart,ITI1Time,probTime,respTime,selectTime,ITI2Time,fbTime,ITI3Time,key_press,chosenAns,RT,acc,feedback,total_points,cuescr,cuecor,cuezyg,cuetime,probscr,probcor,probzyg,probtime,fbscr,fbcor,fbzyg,fbtime,probtime_c,cuetime_c,fbtime_c
0,13,22,f,0,Practice,,0,1,0,4 + 1 + 9 + 1 + 1,16,15,14,16,516.5345701999995,,516.5345723999999,521.5628044000005,525.4748366000003,525.4748467000009,526.9920497000003,528.0129820000002,e,16.0,3.912032199999885,1,Correct,0,,,,,-51.22443464858501,-0.03268397521679578,0.05941547189817342,51439.0,21.799967354754585,-0.9646566154133058,0.022059490016452354,61889.0,516.5487795040007,,526.9987795040006
1,13,22,f,0,Practice,,1,1,0,3 + 1 + 1 + 8 - 1,12,11,12,10,529.5298956999995,,529.5298987000006,534.5507553000007,535.706685000001,535.7066907999997,537.2236427000007,538.2438495000006,q,11.0,1.1559297000003426,0,Incorrect,0,,,,,42.56460623115072,0.3611802803433646,-0.026553990704121233,64427.0,7.48487055089291,-0.09579523586404282,-0.8359185410619085,72120.0,529.5367795040006,,537.2297795040006
2,13,22,f,0,Practice,,2,2,0,8 + 1 + 6 + 1 - 4,12,11,10,12,539.7616736,,539.7616792999997,544.7830396999998,546.0268333999993,546.0268397,547.5437113999997,548.5624312,e,12.0,1.2437936999995145,1,Correct,0,,,,,14.838930212761085,-0.42358434972417314,0.6595148676576317,74658.0,45.667548007720086,0.44416712448292994,0.5043160985640114,82438.0,539.7677795040006,,547.5477795040007
3,13,22,f,0,Practice,,3,2,0,9 + 4 - 6 + 1 - 1,7,7,5,6,550.0800899000005,,550.0800927,555.1003980999994,556.7705793999994,556.7705853000007,558.2871374999995,559.3042808999999,q,7.0,1.6701812999999677,1,Correct,0,,,,,5.090938028325236,-0.29392498045910553,-0.15447712869259078,84976.0,13.778800688777363,-0.6808622260986255,-0.19330187243314922,93180.0,550.0857795040006,,558.2897795040006
4,13,22,f,0,Practice,,4,3,0,9 + 3 - 5 + 6 + 7,20,21,20,22,560.8210906000004,,560.8210935000006,565.8404300000002,566.9707959999996,566.9708021999995,568.487513,569.5048872000007,w,20.0,1.1303659999994125,1,Correct,0,,,,,0.832920741499688,0.18602648350234396,0.4165979965589739,95716.0,15.97573735655077,-0.05549277595695479,-0.14452123485406654,103381.0,560.8257795040006,,568.4907795040007
5,13,22,f,0,Practice,,5,3,0,2 + 1 + 9 - 7 + 6,11,9,11,10,571.0218927999995,,571.0218958999994,576.0416731999994,579.2427912000003,579.2427972999994,580.7601037000004,581.7778803000001,w,11.0,3.2011180000008608,1,Correct,0,,,,,-4.708741201479793,0.4618740830033117,0.6251031391359501,105917.0,49.06476309585457,0.5596927064413393,-0.2042286373479767,115654.0,571.0267795040006,,580.7637795040007
6,13,22,f,0,Practice,,6,4,0,4 + 8 + 5 - 3 + 7,21,23,22,21,583.2950935999997,,583.2950965,588.315996700001,592.9867365000009,592.9867422000007,594.5037685999996,595.5219359000002,q,23.0,4.670739799999865,0,Incorrect,0,,,,,10.52969827711321,0.32966479900372114,-0.13903583971810551,118192.0,-6.401326273646504,-0.700168431619602,0.2372754628553313,129398.0,583.3017795040006,,594.5077795040006
7,13,22,f,0,Practice,,7,4,0,5 + 8 - 4 + 6 + 9,24,24,23,22,597.0393829999994,,597.0393858999996,602.0593382999996,605.8585942000009,605.8586004000008,607.3752165000005,608.3933326000006,w,23.0,3.799255900001299,0,Incorrect,0,,,,,14.516115558858434,-0.4695875555724802,0.37715571508317725,131935.0,8.36015227211775,-0.4054545832615508,0.10935191191101978,142269.0,597.0447795040006,,607.3787795040007
8,13,22,f,1,0,0.0,0,1,low,6 + 1 + 8 + 1 + 1,17,16,17,15,744.9761517000006,747.0022924000004,748.5180075000007,753.5367611000001,754.5840970999998,754.5841022000004,756.1007695999997,757.1185648999999,w,17.0,1.047335999999632,1,+1,1,6.272362346597484,0.22997452173056754,-0.5651923298407384,279878.0,16.88179056244815,1.3161683939530864,-0.14579945744767198,283412.0,-10.009896897909927,0.9097757424803721,0.007978939794137219,2843078.0,748.5217795040006,744.9877795040006,3308.1877795040004
9,13,22,f,1,0,1.0,1,4,high,6 + 9 - 7 + 8 - 5,11,11,13,12,758.6362953000007,760.662208400001,762.1774934999994,767.1964616999994,768.0481744999997,768.0481796999993,769.5647872000009,770.5822172000007,q,11.0,0.851712800000314,1,+10,11,3.105421792738003,0.008242535397949169,-0.08027174593541453,293537.0,4.244200763985365,-1.0280851691381194,-0.12556980972599074,297072.0,-12.818097435469124,-1.9447270449354823,2.642229630972089,577536.0,762.1817795040006,758.6467795040006,1042.6457795040005
10,13,22,f,1,0,2.0,2,1,high,5 + 9 - 1 + 1 + 1,15,15,13,17,772.0989855999997,774.1235780999996,775.6389632999999,780.6570350000002,781.4161024000005,781.4161074000003,782.9326770999996,783.9500418999996,q,15.0,0.7590674000002764,1,+10,21,-2.1894860112527823,0.25584232069436474,0.0001469850772850556,306999.0,-9.587794728240098,-0.21011621756068077,-0.10886961864387201,310532.0,,,,,775.6417795040006,772.1087795040007,
11,13,22,f,1,0,3.0,3,3,low,3 + 1 + 8 - 5 + 9,16,16,15,17,785.4667492000008,787.493015,789.0083202000005,794.0266623999996,796.0000596999998,796.0000646999997,797.5165813999993,798.5338683000009,e,17.0,1.9733973000002152,0,+0,21,-23.013072920936786,-0.8231439040975133,-0.13102479196731132,320368.0,4.608882500008637,0.09843842821632354,-0.1352267429336238,323902.0,-12.665885534009089,0.7615143337902,-0.1592839998149942,332409.0,789.0117795040006,785.4777795040006,797.5187795040006
12,13,22,f,1,0,4.0,4,2,low,6 + 1 + 1 + 8 - 9,7,7,9,5,800.0503948999994,802.0771729999997,803.5922253000008,808.6110597000006,809.3760705999994,809.3760757,810.8926867000009,811.9096819999995,q,7.0,0.7650108999987424,1,+1,22,-15.91188689768827,0.11528947854087157,0.018873322243486257,334952.0,14.968217103891913,0.11490749119673538,0.17503529100044357,338486.0,-70.95880093230708,-0.888419338273966,4.095700939814056,1162726.0,803.5957795040006,800.0617795040007,1627.8357795040008
13,13,22,f,1,0,5.0,5,3,high,5 + 6 - 4 - 1 + 8,14,14,16,15,813.4261841999996,815.4521545999996,816.9675800000005,821.9871050000002,824.4641403000005,824.4641451999996,825.9808329999996,826.9982435000002,q,14.0,2.4770353000003524,1,+10,32,10.443383988219185,0.12031251348796967,-0.03948418680802135,348327.0,-2.529721262992929,0.8152270805508266,-0.34052897002580673,351862.0,2.1092066879145612,-0.476684548044628,1.7774006110682916,967655.0,816.9717795040007,813.4367795040007,1432.7647795040007
14,13,22,f,1,0,6.0,6,3,low,6 - 1 + 7 - 8 + 9,13,11,13,12,828.5147228999995,830.5362683000003,832.0515496000007,837.0701917999995,837.7760954999994,837.7761006000001,839.292822200001,840.3096805999994,w,13.0,0.705903699999908,1,+1,33,-46.25210203272029,-0.12392003232939164,0.021032118402827038,363412.0,-26.956355963080135,-0.016866557212379618,2.1072975660231203,366946.0,13.77293278352402,0.28506493412593503,0.36682494265287513,1231565.0,832.0557795040006,828.5217795040006,1696.6747795040008
15,13,22,f,1,0,7.0,7,3,high,2 + 1 + 9 - 4 + 6,14,16,15,14,841.8265092000001,843.8481554000009,845.3632725999996,850.3813331000001,851.1040579,851.1040630000007,852.6208494000002,853.6381751000008,e,14.0,0.7227247999999236,1,+10,43,-33.018338996066795,-1.0339737031489067,-0.13446829181334286,376723.0,-57.13137493300187,0.6579592421052869,-0.19618806241294884,380256.0,-51.32051988490882,-0.6060454444191459,2.428643551417352,1763555.0,845.3657795040006,841.8327795040007,2228.6647795040008
16,13,22,f,1,0,8.0,8,3,low,7 - 1 + 8 - 6 + 4,12,12,11,13,855.1548951999994,857.1798244000001,858.6951157999993,863.7139222000005,864.6960369000008,864.6960416000002,866.2125359000001,867.2294536999998,q,12.0,0.9821147000002384,1,+1,44,-38.19065486863123,0.873946376121026,-0.00651616436673752,390055.0,-14.962531939567636,0.1920626169621764,-0.2472723268320336,393589.0,13.5925013360668,0.46226034137834393,0.48251186630790954,2296744.0,858.6987795040006,855.1647795040006,2761.8537795040006
17,13,22,f,1,0,9.0,9,3,low,5 + 1 + 7 - 8 + 6,11,13,9,11,868.7461650999994,870.7721560000009,872.2874296999998,877.3080236999995,878.1680054000008,878.1680102000009,879.6839447000002,880.7007926000006,e,11.0,0.859981700001299,1,+1,45,-11.446241405037936,-1.1346160879832992,0.03111450469747634,403647.0,-10.406729259394856,1.0941578199733266,0.3351281969106026,407183.0,,,,,872.2927795040007,868.7567795040006,
18,13,22,f,1,0,10.0,10,4,high,3 + 9 - 5 + 6 + 8,21,22,23,21,882.2173426999998,884.2433992999995,885.7587734000008,890.7769547999997,892.0159942999999,892.0159991,893.5326320000004,894.5499342000003,e,21.0,1.2390395000002172,1,+10,55,4.34685832608546,-0.44327826754777977,-0.13186946280902578,417118.0,-9.458301771830325,0.2764181089420896,0.21434243772708772,420652.0,-29.619416666675903,-1.2796088383295512,0.8073338879571064,1079854.0,885.7617795040006,882.2277795040006,1544.9637795040007
19,13,22,f,1,0,11.0,11,4,high,5 + 6 - 4 + 7 + 9,23,24,25,23,896.0670719000009,898.0930728000003,899.6081257000005,904.6279949,907.9120573,907.9120624999996,909.4290560999998,910.4464628000004,e,23.0,3.284062400000039,1,+10,65,-56.26469502515102,1.1608215278539182,-0.12376467403169622,430968.0,-43.72939180529998,-0.35367502655805527,0.0889566577064258,434503.0,8.164550056458854,-0.44938297218266143,0.14913516531649496,1215581.0,899.6127795040006,896.0777795040007,1680.6907795040006
20,13,22,f,1,0,12.0,12,3,high,7 + 5 + 9 + 1 - 6,16,15,16,14,911.9634361999996,913.9897383000008,915.5050534000002,920.5244423999992,921.1119387,921.1119433999992,922.6291316999996,923.646521300001,w,16.0,0.5874963000005664,1,+10,75,-1.9948321014022188,-0.339799277498841,0.2188537725706765,446865.0,-2.2017310002281576,-0.10480700808463439,-0.01222626227452217,450400.0,,,,,915.5097795040006,911.9747795040007,
21,13,22,f,1,0,13.0,13,3,low,3 + 8 - 7 - 1 + 9,12,14,12,13,925.1630404999996,927.1883216999996,928.7035584999994,933.7222332,937.5918935999998,937.5918985999996,939.107947800001,940.124802100001,w,12.0,3.8696603999997023,1,+1,76,-13.848111228948959,0.8417516336997535,-0.08832370215751606,460063.0,35.334025475021576,-0.49418497467389955,-0.2555991399975084,463597.0,,,,,928.7067795040007,925.1727795040006,
22,13,22,f,1,0,14.0,14,4,high,3 + 8 - 4 + 9 + 6,22,21,22,23,941.6421904,943.6680011000008,945.1832083000008,950.2027087000006,951.7759238,951.7759287999996,953.2925042999996,954.3095691,w,22.0,1.5732150999992882,1,+10,86,-39.289086279386616,0.6902454937091234,-1.073562012289119,476543.0,19.81266685308917,-1.396237543064065,1.9867092892233358,480077.0,28.357201030612245,0.4893086534207036,0.20881835713798758,1260637.0,945.1867795040007,941.6527795040006,1725.7467795040006
23,13,22,f,1,0,15.0,15,2,high,9 + 4 + 5 + 1 - 1,18,17,19,18,955.8263604999992,957.8534433999994,959.3682009999992,964.3863383000008,965.1199207000008,965.119925500001,966.6359859999992,967.6529107999996,e,18.0,0.7335824000001594,1,+10,96,-36.67261652277723,0.02250610455395563,-0.1305934240611033,490728.0,-22.439636460044817,-1.2247547105289929,-0.009652796055569457,494261.0,-65.57767561171117,-0.8200237875535636,0.19787129966208905,2312521.0,959.3707795040007,955.8377795040007,2777.6307795040007
24,13,22,f,1,0,16.0,16,3,high,2 + 1 + 9 - 7 + 6,11,13,12,11,969.1696945999992,971.1973010000002,972.7128271,977.7333347000005,979.9758973000008,979.9759021000008,981.4926405999996,982.5093643,e,11.0,2.242562600000383,1,+10,106,4.594894045675048,0.7243015754303022,-0.3175959931817123,504072.0,-19.77897893680113,-0.37098671981913967,0.32208737481243865,507608.0,,,,,972.7177795040006,969.1817795040006,
25,13,22,f,1,0,17.0,17,4,high,4 + 7 + 8 - 3 + 9,25,25,24,26,984.0262304000008,986.0512292000004,987.5660886999996,992.5848358000004,997.6031146999994,997.603117300001,999.1198875000008,1000.1423945000006,,,,0,Too Slow!,106,-54.76226484533127,-0.306591588903971,-0.199184990641466,518926.0,13.898086780993204,0.22109101407538923,0.17696508612899287,522460.0,-4.696123802895858,-1.5894133696963735,0.21746310484953923,534017.0,987.5697795040007,984.0357795040006,999.1267795040008
26,13,22,f,1,0,18.0,18,1,high,3 + 1 + 9 + 1 - 1,13,13,14,12,1001.6596639,1003.6846177000008,1005.1996404,1010.2186397999994,1010.8479444999994,1010.8479492999996,1012.3647861000009,1013.3828185000002,q,13.0,0.6293046999999206,1,+10,116,5.901186681960942,0.32527910413402417,0.17993932041733007,536559.0,7.587941948798379,-0.6699495906936273,-0.25825967998267974,540094.0,-35.95425755569529,-0.7965144801481854,-0.060356092696307595,595162.0,1005.2037795040007,1001.6687795040007,1060.2717795040007
27,13,22,f,1,0,19.0,19,1,low,7 - 1 + 8 + 1 - 1,14,14,13,12,1014.9000214000008,1016.9267645,1018.4418387000004,1023.4614679999996,1024.1837661999998,1024.183771,1025.7008212,1026.7178196999994,q,14.0,0.7222982000002958,1,+1,117,-12.876064017759656,0.11491848941904337,0.1222648047495083,549801.0,4.201196821511319,0.016383749324935692,-0.2415191182970995,553336.0,,,,,1018.4457795040007,1014.9107795040006,
28,13,22,f,1,0,20.0,20,4,high,3 + 8 - 4 + 9 + 7,23,22,24,23,1028.2344716000007,1030.2582791999994,1031.7734751000007,1036.791907500001,1041.1278235999998,1041.1278287000005,1042.6443450000006,1043.6610330999993,q,22.0,4.33591609999894,0,+0,117,-29.403708111475154,0.35925115109291195,0.0070872590301300775,563133.0,17.125657045948365,-0.25926966213296065,-0.053565594509309644,566667.0,,,,,1031.7767795040006,1028.2427795040007,
29,13,22,f,1,0,21.0,21,4,low,7 + 8 - 4 + 6 + 5,22,22,21,23,1045.1781573999997,1047.2020424000002,1048.7171526000002,1053.7366156999997,1058.7521441999995,1058.7521469000003,1060.2688223000005,1061.2867425999991,,,,0,Too Slow!,117,4.859046463732422,1.2971410993849988,-0.7133031612629486,580076.0,-5.9902671520984185,-0.9612690047413155,2.3692096347697564,583611.0,,,,,1048.7207795040006,1045.1857795040007,
30,13,22,f,1,0,22.0,22,3,low,2 + 1 + 9 - 5 + 6,13,11,13,14,1062.8035412000008,1064.8311553000003,1066.3463407,1071.364856100001,1071.8397628000002,1071.8397679999998,1073.3558692999995,1074.3728933000002,w,13.0,0.4749066999993374,1,+1,118,10.355960029651332,0.46237312955541654,0.2183438571029832,597706.0,27.234559703436382,-0.26299794110611163,1.9458236541543386,601239.0,,,,,1066.3487795040007,1062.8157795040006,
31,13,22,f,1,0,23.0,23,1,low,7 + 1 + 4 + 1 - 1,12,14,12,13,1075.8900150000009,1077.9161889999996,1079.4315165999997,1084.4504128000008,1084.9998274999998,1084.9998324000007,1086.5165436999996,1087.5335479000005,w,12.0,0.5494146999990335,1,+1,119,-17.713652768032542,-0.6007152696492559,0.6710720797056644,610791.0,-0.4504793485536496,-0.0907146497547835,0.20523161280808866,614324.0,,,,,1079.4337795040005,1075.9007795040006,
32,13,22,f,1,0,24.0,24,4,high,2 + 9 - 3 + 5 + 8,21,23,22,21,1089.0503759000003,1091.0768152,1092.591954200001,1097.6102322999996,1098.1758150999997,1098.1758198999996,1099.6926151999996,1100.7099899000004,e,21.0,0.5655827999999019,1,+10,129,-53.34561909063298,0.017793990206811827,-0.2598198591039296,623951.0,-44.804459293196345,1.1693713188625816,0.08715634032252151,627485.0,,,,,1092.5947795040006,1089.0607795040007,
33,13,22,f,1,0,25.0,25,1,high,8 + 1 + 1 + 1 - 3,8,6,8,9,1102.226600600001,1104.2508235999994,1105.7660393000006,1110.7841941999995,1111.3516915,1111.3516963000002,1112.868192100001,1113.8856118000003,w,8.0,0.5674973000004684,1,+10,139,6.25234200002183,0.7576235674967755,0.017394720437386102,637125.0,34.679661602337575,0.03720441090816795,0.03828397913423842,640659.0,,,,,1105.7687795040006,1102.2347795040007,
34,13,22,f,1,0,26.0,26,1,low,8 - 1 + 1 + 6 + 1,15,15,14,16,1115.402418400001,1117.4291386999994,1118.9443826999996,1123.9631511999996,1124.5277117000005,1124.5277164,1126.0442638000004,1127.0611960999995,q,15.0,0.56456050000088,1,+1,140,16.762333527502957,0.704971007726316,0.24639124703652993,650303.0,-12.456668132090467,0.02991022095634044,0.03730375250648521,653837.0,,,,,1118.9467795040007,1115.4127795040006,
35,13,22,f,1,0,27.0,27,4,low,7 + 6 + 8 - 4 + 5,22,22,23,21,1128.5783819999997,1130.6040811000005,1132.1201110000002,1137.1391036000005,1137.7997527999996,1137.7997577999995,1139.3165735000002,1140.3336555000003,q,22.0,0.6606491999991704,1,+1,141,14.034327540057166,-0.0726685033912684,-0.2847518791785375,663478.0,-8.9016116597608,0.6640522760885537,0.14505114446766942,667013.0,,,,,1132.1227795040006,1128.5877795040005,
36,13,22,f,1,0,28.0,28,1,high,8 + 1 + 5 + 1 + 1,16,16,17,15,1141.8505865999996,1143.8770839999995,1145.392361100001,1150.4113773000008,1151.0717748999996,1151.071780599999,1152.5879303000002,1153.6052285999997,q,16.0,0.6603975999987597,1,+10,151,0.5444772231983421,1.302947161043429,0.13043872361703102,676751.0,3.077807692565095,0.3608611165414173,0.09768810192157229,680286.0,,,,,1145.3957795040005,1141.8607795040007,
37,13,22,f,1,0,29.0,29,2,high,5 - 1 + 1 + 8 + 9,22,22,21,23,1155.1220811000003,1157.1475599000005,1158.6628557000004,1163.6809895000006,1166.9916512,1166.991656100001,1168.5080223999994,1169.5253659999998,q,22.0,3.3106616999994003,1,+10,161,3.6875038635878052,0.5693554034309525,0.165825312636374,690022.0,-3.4387416668884043,-0.4223439075265176,0.025290939813402247,693555.0,,,,,1158.6647795040005,1155.1317795040006,
38,13,22,f,1,0,30.0,30,4,high,4 + 7 + 9 - 5 + 7,22,24,22,23,1171.0421714999993,1173.068714000001,1174.5837675000002,1179.6022869999997,1180.1997238999993,1180.199729,1181.7160619999995,1182.7334711999993,w,22.0,0.5974368999995932,1,+10,171,2.1489705998235027,-0.6562686541923641,0.05834414963261336,705943.0,11.336464032406088,-0.5984475901506006,-0.11771622156805206,709476.0,,,,,1174.5857795040006,1171.0527795040007,
39,13,22,f,1,0,31.0,31,1,high,4 + 8 + 1 - 1 - 1,11,9,11,13,1184.2500664,1186.2747051000006,1187.7899942999993,1192.8081708000009,1195.6076909000003,1195.6076973,1197.1243543,1198.1417469000007,w,11.0,2.7995200999994267,1,+10,181,6.167085131061842,-0.6534820270185033,3.754230175211011,719149.0,-10.194658351054633,0.5155812334929282,0.03826662957613891,722683.0,,,,,1187.7927795040007,1184.2587795040006,
40,13,22,f,1,0,32.0,32,3,high,4 + 1 + 8 + 9 - 5,17,18,17,19,1199.6578339000007,1201.6827807999998,1203.1979257000005,1208.215912900001,1208.6956198000007,1208.6956245,1210.2127770999996,1211.2301136000003,w,17.0,0.4797068999996554,1,+10,191,-67.82853074566206,-0.31184832255007233,-0.25508290391238786,734557.0,-15.163339317086011,-0.42427826043520955,0.2000634325212789,738090.0,,,,,1203.1997795040006,1199.6667795040007,
41,13,22,f,1,0,33.0,33,4,low,5 + 7 - 4 - 6 + 9,11,13,12,11,1212.7466380999997,1214.7731877999995,1216.2885143000003,1221.3070177999998,1221.9276289999998,1221.9276341999994,1223.444009500001,1224.4611624999998,e,11.0,0.6206111999999848,1,+1,192,7.466940675604612,-0.2494764491402739,0.19932729481933054,747648.0,3.6560693594945253,-0.3094457057525508,0.18561297351194828,751181.0,,,,,1216.2907795040007,1212.7577795040006,
42,13,22,f,1,0,34.0,34,3,high,3 + 8 - 7 + 1 + 9,14,12,13,14,1225.9782046,1228.0034729,1229.5180333999997,1234.5374494000007,1235.3836561000007,1235.3836611999996,1236.9004373999996,1237.9178794,e,14.0,0.8462067000000388,1,+10,202,41.52681626196893,-0.11637674030010459,0.016707298409377902,760877.0,15.206906441938221,-0.1735684408649627,0.34083325259509234,764411.0,,,,,1229.5207795040005,1225.9867795040007,
43,13,22,f,1,0,35.0,35,1,high,6 + 9 + 1 + 1 - 1,16,16,15,14,1239.4346710999998,1241.4598164,1242.9749016000003,1247.9926299,1248.6155851999993,1248.6155904000009,1250.1322808000004,1251.1494504000002,q,16.0,0.6229552999993757,1,+10,212,22.165162671267638,-0.327843201981481,0.2461671197974482,774334.0,24.646228953663574,0.03881408958160826,0.388211412077077,777867.0,,,,,1242.9767795040007,1239.4437795040005,
44,13,22,f,1,0,36.0,36,1,high,2 + 1 + 9 + 1 + 1,14,14,13,12,1252.6671017000008,1254.6918203999994,1256.206980500001,1261.2249078000004,1261.7436285000003,1261.7436335000002,1263.2601185000003,1264.2774666000005,q,14.0,0.5187206999999034,1,+10,222,-2.046160323044816,0.22705385786915855,0.027343830004440406,787566.0,37.68956158215057,0.29426548570534994,0.03323085145347093,791099.0,,,,,1256.2087795040006,1252.6757795040007,
45,13,22,f,1,0,37.0,37,2,high,4 + 8 + 1 + 1 - 6,8,8,9,7,1265.7941763,1267.8189846000005,1269.3339348000009,1274.3521277,1274.8956182000002,1274.8956230999993,1276.4122666000003,1277.429354,q,8.0,0.5434905000001891,1,+10,232,-6.287746744700412,0.5755377798208405,0.6156587121357577,800693.0,-15.937761089747966,-0.15729874150055156,-2.052902311040352,804226.0,,,,,1269.3357795040006,1265.8027795040007,
46,13,22,f,1,1,38.0,0,1,high,9 + 1 + 1 + 7 - 1,17,16,17,19,1286.5713216000004,1288.5971733999995,1290.112405,1295.1320821000008,1295.6395443,1295.6395494999997,1297.1564051000005,1298.1740434999992,w,17.0,0.5074621999992814,1,+10,242,1.7237303462413642,0.2715996149381388,0.1791985795266111,821471.0,-23.17561672399449,0.039741036984085376,-0.18961037304824702,825006.0,,,,,1290.1157795040006,1286.5807795040007,
47,13,22,f,1,1,39.0,1,1,high,7 + 1 + 4 + 1 - 1,12,11,12,13,1299.691097500001,1301.7145543999995,1303.2297094999994,1308.2496124000008,1308.8716206000008,1308.8716258000004,1310.3885303999996,1311.4061349000003,w,12.0,0.622008199999982,1,+10,252,40.23415766233873,-0.3316685394874055,-0.27476876846663156,834589.0,-7.308294484514911,0.4726305278683993,-0.026254170349368167,838123.0,,,,,1303.2327795040007,1299.6987795040006,
48,13,22,f,1,1,40.0,2,3,low,4 + 7 - 3 + 5 - 1,12,13,11,12,1312.923119000001,1314.9462908000005,1316.462365200001,1321.4810244,1322.6474510000007,1322.6474562999992,1324.1644651000006,1325.1820692,e,12.0,1.1664266000007046,1,+1,253,-17.82532385168283,-0.0601625649483033,0.13981762551626797,847820.0,-6.070131077908842,0.8276634516830033,-0.22224817556720344,851355.0,,,,,1316.4647795040007,1312.9297795040006,
49,13,22,f,1,1,41.0,3,1,low,8 + 1 + 1 - 1 - 4,5,6,5,3,1326.6998884999994,1328.7248457000003,1330.2398544999996,1335.2578484999997,1335.7274823000007,1335.7274873000006,1337.2441823999998,1338.2612664999997,w,5.0,0.4696338000012474,1,+1,254,35.476367402592196,0.7155049911306408,-0.1442461329308391,861599.0,-7.507427385872411,-0.441691343118225,0.05677514878271106,865132.0,,,,,1330.2417795040005,1326.7087795040006,
50,13,22,f,1,1,42.0,4,1,low,8 + 1 + 4 + 1 + 1,15,15,14,16,1339.7780196000003,1341.8011960999993,1343.3164992000002,1348.3352529000003,1349.7035376999993,1349.703542900001,1351.2200586,1352.2369041000002,q,15.0,1.3682847999989465,1,+1,255,-2.306449832805411,-0.5247732074713616,0.04543287171839472,874675.0,12.501826752137514,-0.04084861559177533,0.32604527155983876,878209.0,,,,,1343.3187795040005,1339.7847795040007,
51,13,22,f,1,1,43.0,5,3,low,4 + 8 - 3 + 5 - 1,13,12,13,14,1353.753923599999,1355.780895,1357.2961768999994,1362.3153330000005,1362.7914753000005,1362.7914803000003,1364.3090045000008,1365.3260621999998,w,13.0,0.4761422999999922,1,+1,256,-2.771830750595349,-0.07322004411507432,-0.007000756212271586,888655.0,22.227753347684942,-1.0557653366274184,0.16032089854686582,892189.0,,,,,1357.2987795040005,1353.7647795040007,
52,13,22,f,1,1,44.0,6,1,low,6 + 1 + 8 + 1 - 1,15,14,13,15,1366.8432076000008,1368.8709806999996,1370.3862977000008,1375.4046823999995,1375.9354440999996,1375.9354490999997,1377.452005000001,1378.4689450000003,e,15.0,0.5307616999998572,1,+1,257,5.85288064124842,0.5586247128177764,-0.14506546514207397,901744.0,12.920967849245429,-0.32056546626182314,-0.2831557236149682,905278.0,,,,,1370.3877795040007,1366.8537795040006,
53,13,22,f,1,1,45.0,7,4,low,3 + 8 - 5 + 9 - 7,8,7,6,8,1379.9857300000003,1382.0133091999996,1383.5284833000003,1388.5471823000007,1390.1034825000006,1390.1034879,1391.6201022999994,1392.6371746000004,e,8.0,1.556300199999896,1,+1,258,-36.5823569725291,-0.1540027066247216,-0.018883064351483902,914887.0,16.52556874799756,0.2567826553711461,0.02419717427641599,918421.0,,,,,1383.5307795040007,1379.9967795040006,
54,13,22,f,1,1,46.0,8,1,high,6 + 9 + 1 + 1 - 1,16,14,16,15,1394.153814700001,1396.1813512999995,1397.6969989999998,1402.7147686000008,1403.2394017000006,1403.2394065999997,1404.7560291999998,1405.7727295000004,w,16.0,0.5246330999998463,1,+10,268,-23.922140299523086,0.4772671570870548,-0.0888836972225131,929054.0,9.480808496926382,0.4675634687373673,0.15582649774054724,932588.0,,,,,1397.6977795040007,1394.1637795040006,
55,13,22,f,1,1,47.0,9,1,high,7 + 1 + 5 + 1 - 1,13,12,14,13,1407.2896459999993,1409.3145000999991,1410.8290682000006,1415.847458100001,1416.4153465,1416.4153516000006,1417.9319118000003,1418.9499072,e,13.0,0.5678883999989921,1,+10,278,7.288874317063044,-0.02206245398172335,0.28905495624279487,942188.0,-5.209760499539815,0.8906615219705429,0.1799805729912345,945721.0,,,,,1410.8307795040007,1407.2977795040006,
56,13,22,f,1,1,48.0,10,3,high,6 + 8 + 7 + 1 - 9,13,13,14,15,1420.4669207999996,1422.4915942999996,1424.0069617000008,1429.0265125999997,1431.2474533999994,1431.2474588999994,1432.7642011000007,1433.781653600001,w,14.0,2.2209407999998803,0,+0,278,45.892869209690076,0.003213064823313516,0.1548736549199079,955365.0,-32.6129274177474,-0.6944948137585687,0.014686730472251774,958900.0,,,,,1424.0097795040006,1420.4747795040007,
57,13,22,f,1,1,49.0,11,2,low,6 + 1 + 8 + 7 - 1,21,21,23,19,1435.2984183000008,1437.325616,1438.839628400001,1443.8586773999996,1447.2393274000003,1447.2393327999998,1448.756062099999,1449.7725494000006,q,21.0,3.380650000000969,1,+1,279,-32.52832960687134,0.30896934320799385,0.5794911358125998,970199.0,30.316691232324416,0.5266793958195484,-0.9905576076554281,973732.0,,,,,1438.8417795040007,1435.3087795040005,
58,13,22,f,1,1,50.0,12,4,low,8 + 4 + 7 - 5 - 6,8,6,8,9,1451.2892066000004,1453.3146966000004,1454.8299277999995,1459.8485660999995,1460.9833104000008,1460.9833156000004,1462.5002292999998,1463.5172392999991,w,8.0,1.13474430000133,1,+1,280,3.1848755191909657,0.671680622505324,0.4818739118576585,986188.0,45.085924981595554,-0.21095532312733045,-0.129263670501516,989722.0,,,,,1454.8317795040007,1451.2977795040006,
59,13,22,f,1,1,51.0,13,1,high,6 + 1 + 1 + 9 - 1,16,16,15,14,1465.0341451000004,1467.0611035000002,1468.5763953999997,1473.595501400001,1474.2233584000005,1474.223363200001,1475.739971500001,1476.757462900001,q,16.0,0.6278569999994943,1,+10,290,-1.6755687326382152,0.642838880373346,-0.075295299576287,999934.0,22.196750325585064,0.8020311249427658,-0.32312581223689163,1003469.0,,,,,1468.5787795040007,1465.0437795040007,
60,13,22,f,1,1,52.0,14,1,low,9 + 7 + 1 + 1 + 1,19,20,18,19,1478.2750013000004,1480.302501600001,1481.817664100001,1486.8358372000002,1487.4875269000004,1487.4875322000007,1489.0039947999994,1490.0213984000002,e,19.0,0.6516897000001336,1,+1,291,67.07495335328835,0.613709054643409,-3.2492079568825156,1013176.0,31.25704150819169,0.8871358783465224,0.21326391541454814,1016709.0,,,,,1481.8187795040005,1478.2857795040006,
61,13,22,f,1,1,53.0,15,3,low,9 - 1 + 5 - 6 + 8,15,14,17,15,1491.5382446000003,1493.564390900001,1495.0793087000002,1500.0987084999997,1501.5353787999993,1501.5353840000007,1503.0519492000003,1504.0691129000006,e,15.0,1.436670299999605,1,+1,292,-7.276365783599516,-0.25720892880412194,0.16808452803602592,1026437.0,6.5082410805494355,0.8779886225423565,0.33540012255181484,1029972.0,,,,,1495.0817795040007,1491.5467795040006,
62,13,22,f,1,1,54.0,16,1,low,4 + 9 + 1 - 1 - 1,12,11,12,13,1505.5860646,1507.6134242999997,1509.1286705000002,1514.1466965,1514.679247,1514.6792518000002,1516.1960522999998,1517.2130624,w,12.0,0.5325505000000703,1,+1,293,2.822661969085722,-1.475218440571342,-0.11089978048349147,1040486.0,13.62443966787967,0.012335904987042845,-0.18642976669142453,1044020.0,,,,,1509.1297795040007,1505.5957795040008,
63,13,22,f,1,1,55.0,17,2,low,5 + 1 + 7 - 6 + 1,8,8,7,6,1518.7301110999997,1520.7564801000008,1522.2719613000008,1527.2919290999998,1527.9032905999993,1527.9032957,1529.4198400000005,1530.436526900001,q,8.0,0.6113614999994752,1,+1,294,-12.087780673246623,0.12264088816812002,-0.0010329490500287086,1053629.0,-0.6409956001209753,-0.08023411732441588,0.13710418492987353,1057165.0,,,,,1522.2747795040007,1518.7387795040006,
64,13,22,f,1,1,56.0,18,4,low,5 + 7 - 4 + 6 + 9,23,25,23,24,1531.9539330000007,1533.9819867999995,1535.4973831999996,1540.5163274999995,1543.4472542000003,1543.447259300001,1544.963886900001,1545.981347500001,e,24.0,2.930926700000782,0,+0,294,-19.289300211687973,0.1756705348439711,-0.3770798187753637,1066854.0,-44.887601835402094,0.25443617152453335,-0.15638536654042623,1070389.0,,,,,1535.4987795040006,1531.9637795040007,
65,13,22,f,1,1,57.0,19,1,high,7 - 1 + 9 + 1 - 1,15,14,15,13,1547.4981047,1549.5251042,1551.0404901000002,1556.0590608000002,1556.8312243,1556.8312291000002,1558.3477801000008,1559.3652327,w,15.0,0.7721634999998059,1,+10,304,-10.626303985637387,0.1614200710578153,-0.18772407943873715,1082398.0,-25.454393495546004,0.998893641703809,0.22761572371923977,1085932.0,,,,,1551.0417795040007,1547.5077795040006,
66,13,22,f,1,1,58.0,20,4,high,6 + 5 - 7 + 8 - 9,3,5,3,4,1560.8820651999995,1562.9056619000005,1564.4209654000006,1569.4396185000005,1571.2232623,1571.2232674000006,1572.7399306999996,1573.757333900001,w,3.0,1.7836437999994814,1,+10,314,-15.634900504407554,-0.030886072382975804,-0.03532381593936673,1095779.0,11.474197118087524,-0.7293407891738628,-0.12630427367133423,1099313.0,,,,,1564.4227795040008,1560.8887795040007,
67,13,22,f,1,1,59.0,21,3,high,2 + 9 - 3 + 4 + 1,13,14,11,13,1575.2743807000006,1577.2989287,1578.8144063,1583.8326564,1584.8471590000008,1584.8471640000007,1586.3635457,1587.3805453000004,e,13.0,1.0145026000009238,1,+10,324,0.9577392497234483,0.6223406597757233,-0.008926370325131217,1110172.0,-16.76789416481946,-0.7585015358997653,0.34531164384943613,1113706.0,,,,,1578.8157795040006,1575.2817795040007,
68,13,22,f,1,1,60.0,22,2,high,4 + 8 + 1 + 1 - 5,9,9,11,8,1588.8969101000002,1590.9240086999998,1592.4391830999994,1597.4572905000005,1597.9752520000002,1597.9752571000008,1599.4919907000003,1600.5092779999995,q,9.0,0.5179614999997284,1,+10,334,16.253260083574155,0.9435740959475902,-0.18945935335737785,1123797.0,-15.453478721219902,-0.08571980996529582,0.24251063242768822,1127330.0,,,,,1592.4397795040006,1588.9067795040007,
69,13,22,f,1,1,61.0,23,1,low,2 + 1 + 1 + 9 - 1,12,12,13,11,1602.0261615,1604.0523298999997,1605.5671280000006,1610.5863998999994,1611.1831294999993,1611.1831344000002,1612.699333300001,1613.7164445,q,12.0,0.5967295999998896,1,+1,335,-14.864162208605434,0.6159342505026562,-0.013522846509461228,1136925.0,-24.750123308723097,0.21785715151078655,-0.845531111821229,1140459.0,,,,,1605.5687795040008,1602.0347795040007,
70,13,22,f,1,1,62.0,24,2,high,7 + 5 + 1 + 9 + 1,23,23,21,22,1615.2331794000002,1617.2607908999998,1618.77585,1623.794033600001,1626.3191349999995,1626.319139900001,1627.8358833000002,1628.8530269000005,e,22.0,2.5251013999986758,0,+0,335,16.323175406875038,-0.8834167212799375,-0.3246837703783001,1150133.0,-10.42420338181266,-1.3070615362772742,0.2027181162052405,1153667.0,,,,,1618.7767795040006,1615.2427795040007,
71,13,22,f,1,1,63.0,25,2,low,9 + 6 + 1 + 7 + 1,24,24,23,25,1630.3695965000006,1632.3972594999996,1633.9124126000006,1638.9313382,1639.6632042,1639.6632093000007,1641.1796722,1642.1968269999998,q,24.0,0.7318660000000818,1,+1,336,-17.637736258354757,-0.3938942767167406,-1.641769912306585,1165270.0,7.306291233840194,-0.2811054178102994,-0.32482262790263583,1168804.0,,,,,1633.9137795040008,1630.3797795040007,
72,13,22,f,1,1,64.0,26,3,high,2 - 4 + 9 + 7 + 1,15,13,16,15,1643.7138429000006,1645.7397316999995,1647.2549586000005,1652.273482300001,1652.839175499999,1652.8391807000007,1654.3557296,1655.3725625999996,e,15.0,0.5656931999983499,1,+10,346,24.455408477665394,0.9969426647325426,0.47547555552218457,1178612.0,-4.6261975213663895,0.44639667067877387,-0.020002157277942523,1182146.0,,,,,1647.2557795040007,1643.7217795040008,
73,13,22,f,1,1,65.0,27,1,low,7 + 1 + 4 + 1 - 1,12,13,11,12,1656.8892938000008,1658.9155800000008,1660.4309881999998,1665.4507852000006,1666.0473385000005,1666.0473438000008,1667.5641152999997,1668.5810005000003,e,12.0,0.5965532999998686,1,+1,347,-12.45806387811318,0.2694657986021136,0.19017992062244637,1191788.0,-11.832200431315933,-0.3061252294986172,-0.37252588822965027,1195323.0,,,,,1660.4327795040008,1656.8977795040007,
74,13,22,f,1,1,66.0,28,4,high,6 + 7 + 9 - 3 + 5,24,24,23,22,1670.0977184999992,1672.1228689,1673.6381347000006,1678.6579053999994,1679.1750288000003,1679.1750336000005,1680.6915860000008,1681.7087864000005,e,22.0,0.5171234000008553,0,+0,347,2.058841490820763,-0.22544432780979573,0.5800678936809343,1204995.0,72.52436540115926,0.11606899188126718,0.21879779539158317,1208531.0,,,,,1673.6407795040006,1670.1047795040006,
75,13,22,f,1,1,67.0,29,3,low,4 + 7 + 1 + 9 - 5,16,17,18,16,1683.225478100001,1685.2478257000002,1686.7630016000005,1691.7822847999996,1695.1591559000008,1695.1591621999996,1696.6757612,1697.6930023999994,w,18.0,3.376871100001153,0,+0,347,-12.787031083959864,0.9832086811424512,-0.8948552958622731,1218120.0,3.3363227807449007,1.6558418038591824,-0.3586869448238126,1221654.0,,,,,1686.7637795040007,1683.2297795040006,
76,13,22,f,1,1,68.0,30,2,high,4 + 9 - 7 + 1 - 1,6,5,6,8,1699.209833500001,1701.2364798,1702.7509386000002,1707.7691570999996,1708.2150497000002,1708.2150543999996,1709.7317445000008,1710.7491661000004,w,6.0,0.4458926000006613,1,+10,357,-13.379565082743852,-0.7107741132632244,-0.24265678857164463,1234109.0,33.78873241042364,-0.8300374473355001,-1.8078335569466164,1237642.0,,,,,1702.7517795040008,1699.2187795040006,
77,13,22,f,1,1,69.0,31,4,high,9 + 3 - 5 + 8 + 6,21,21,23,19,1712.2659177999994,1714.2907271000004,1715.8062382999997,1720.8243215000002,1724.2310436000007,1724.2310491000007,1725.7475811000004,1726.7638626999997,w,23.0,3.4067221000004797,0,+0,357,-29.406981480682106,0.365642384360477,0.2480978292890521,1247164.0,31.83940230808203,0.252114990248665,0.14838599723433887,1250697.0,,,,,1715.8067795040006,1712.2737795040007,
78,13,22,f,1,1,70.0,32,4,high,8 + 4 + 7 - 5 - 6,8,9,8,7,1728.2807047000006,1730.3034650999998,1731.8184536999995,1736.8374808000008,1737.3271225000008,1737.3271272000002,1738.8438523000004,1739.8610991000005,w,8.0,0.4896416999999928,1,+10,367,-2.5414333942920244,0.28789666649631585,0.15115041157545583,1263176.0,26.334855187380718,-0.4553404532753875,-0.20683254792430095,1266710.0,,,,,1731.8197795040007,1728.2857795040006,
79,13,22,f,1,1,71.0,33,3,low,8 + 5 + 1 - 7 + 9,16,16,17,14,1741.3777965000008,1743.400027400001,1744.9152990000002,1749.9338222000006,1750.6630514000008,1750.6630564999996,1752.179937700001,1753.1975223000009,q,16.0,0.7292292000001908,1,+1,368,15.600440465731145,0.5810772197680221,0.3862468572497679,1276273.0,-17.54345456251051,0.7401635857487721,0.026684192891083036,1279806.0,,,,,1744.9157795040007,1741.3827795040006,
80,13,22,f,1,1,72.0,34,2,high,6 + 1 + 1 + 7 - 9,6,4,6,8,1754.7143551999998,1756.7389199999998,1758.2541027000009,1763.2726136,1763.8790124999996,1763.8790176000002,1765.3951309000004,1766.4122957,w,6.0,0.6063988999994763,1,+10,378,20.58754922123101,-0.08822568528828256,0.3741717514835119,1289610.0,-6.107099919519451,0.5850083730359144,0.41899268723987726,1293145.0,,,,,1758.2547795040007,1754.7197795040006,
81,13,22,f,1,1,73.0,35,1,low,4 + 1 + 1 + 7 - 1,12,12,13,14,1767.9290817,1769.9552027000009,1771.4695529,1776.487761800001,1777.1029724,1777.1029774,1778.6194777,1779.6366190000008,q,12.0,0.6152105999990454,1,+1,379,-25.254688122540657,0.2072679718659156,0.055146917970092524,1302827.0,-19.82247400112989,0.14034882296904883,-0.1284781438001943,1306360.0,,,,,1771.4697795040006,1767.9367795040007,
82,13,22,f,1,1,74.0,36,2,low,7 + 8 + 1 + 9 + 1,26,26,24,25,1781.1539914000005,1783.1801087000003,1784.6953056000002,1789.7138789,1790.2630989999998,1790.2631043,1791.7798571999992,1792.7967485000008,q,26.0,0.5492200999997294,1,+1,380,30.779346712023315,0.3779644807764706,0.0779495638756611,1316052.0,-24.071965569549015,0.3748295348802442,-0.38054140710679984,1319586.0,,,,,1784.6957795040007,1781.1617795040006,
83,13,22,f,1,1,75.0,37,1,high,6 + 1 + 1 + 7 - 1,14,14,12,13,1794.3137846000009,1796.3396802000009,1797.8550655,1802.8749988,1803.3669154,1803.3669205000008,1804.8834773,1805.900674300001,q,14.0,0.4919165999999677,1,+10,390,-11.255156383895008,-0.40773223314896345,-0.15992533837291845,1329212.0,-5.776011204801428,1.0698889382860255,-0.3377479284088034,1332747.0,,,,,1797.8567795040008,1794.3217795040007,
84,13,22,f,1,2,76.0,0,3,low,3 + 1 + 6 - 8 + 9,11,11,12,13,1817.8113192,1819.8360426,1821.3510480999996,1826.3704443000008,1827.4549291999992,1827.4549346000003,1828.9715452,1829.9884114,q,11.0,1.0844848999986425,1,+1,391,16.434172727596025,0.31355158177491393,-0.3453181523944515,1352708.0,1.0731133467672596,1.2407923706990145,-0.4071333608963359,1356242.0,,,,,1821.3517795040007,1817.8177795040008,
85,13,22,f,1,2,77.0,1,3,low,3 - 7 + 5 + 1 + 9,11,12,13,11,1831.5052355000007,1833.5308246999996,1835.0459305999996,1840.0643482,1840.5910089000008,1840.5910141000004,1842.1077270999997,1843.1249279000003,e,11.0,0.52666070000123,1,+1,392,-15.271993390903642,-0.2909976841581008,0.3915313433171974,1366402.0,-1.4102422656953664,0.30297768845446615,0.1637166970975903,1369936.0,,,,,1835.0457795040006,1831.5117795040007,
86,13,22,f,1,2,78.0,2,3,high,7 - 6 + 8 + 1 + 7,17,17,15,16,1844.6417925000003,1846.6677313,1848.1829951,1853.2018583000008,1853.8069466,1853.8069520000008,1855.3237413000008,1856.3411135999995,q,17.0,0.6050882999988971,1,+10,402,18.731968876093493,0.10174144055812029,-0.18862193154855422,1379540.0,-25.606544355680363,0.8502039196890179,-0.3495898387373506,1383074.0,,,,,1848.1837795040008,1844.6497795040007,
87,13,22,f,1,2,79.0,3,2,low,9 + 1 + 6 + 7 + 1,24,25,24,23,1857.8579317999995,1859.8849886000007,1861.399668600001,1866.4178112000009,1866.9028677000008,1866.9028726,1868.4189326,1869.4356007000008,w,24.0,0.4850564999997004,1,+1,403,3.419528565296657,-1.5641566474174207,0.32375887372616274,1392757.0,3.3237610071800687,0.4938685448565119,-0.7152093450456771,1396290.0,,,,,1861.3997795040007,1857.8667795040008,
88,13,22,f,1,2,80.0,4,2,low,8 + 1 + 4 - 7 + 1,7,7,6,5,1870.9523991000003,1872.9751939,1874.4904337000007,1879.5088853,1880.1749831,1880.1749882999995,1881.6915973,1882.7085116,q,7.0,0.6660977999999886,1,+1,404,4.621432384856895,-0.11087862164992046,0.3712315034698923,1405847.0,3.1451433933288584,-0.12034280989877466,0.09391743196964963,1409381.0,,,,,1874.4907795040008,1870.9567795040007,
89,13,22,f,1,2,81.0,5,1,low,2 + 9 + 1 + 1 + 1,14,13,14,12,1884.2247267,1886.2481917000005,1887.7635577,1892.7815396999997,1893.2949074000007,1893.2949126999997,1894.812913600001,1895.8294465,w,14.0,0.513367700001254,1,+1,405,-19.480188525989686,0.13002058311538534,-0.1357406086255608,1419120.0,13.211681235397613,-0.3331448590843884,0.5111430957638792,1422653.0,,,,,1887.7627795040007,1884.2297795040006,
90,13,22,f,1,2,82.0,6,2,low,2 + 1 + 9 - 4 + 1,9,9,11,8,1897.3461664999995,1899.3745574999996,1900.889873600001,1905.9079745,1906.4548741,1906.4548794,1907.9719096000008,1908.9892647,q,9.0,0.5468995999999606,1,+1,406,2.498942955821852,0.2678331420169062,0.453474926705284,1432246.0,-8.220042829370545,0.2215582206758162,0.055530250541022674,1435780.0,,,,,1900.8897795040007,1897.3557795040008,
91,13,22,f,1,2,83.0,7,1,low,9 + 8 + 1 + 1 - 1,18,20,17,18,1910.5057474999996,1912.5317231000008,1914.0470607000009,1919.0667254,1919.7508082000004,1919.7508132000005,1921.2670433000003,1922.2840766000008,e,18.0,0.6840828000003967,1,+1,407,13.947129093759024,0.6862945513211551,0.12197226536981987,1445403.0,31.937963151773154,-0.7905097420995117,0.29827878132450536,1448938.0,,,,,1914.0477795040008,1910.5127795040007,
92,13,22,f,1,2,84.0,8,4,low,7 + 6 - 9 + 8 - 3,9,8,7,9,1923.8008101,1925.8285916000004,1927.3445200999995,1932.3632688,1935.118799,1935.1188082000008,1936.635282700001,1937.6523887000003,e,9.0,2.7555302000000665,1,+1,408,2.8351605579691617,1.9555773338911466,-0.26853086542273985,1458700.0,-10.956997163567802,-0.03951394075509107,-0.12282395563746018,1462235.0,,,,,1927.3447795040006,1923.8097795040007,
93,13,22,f,1,2,85.0,9,2,low,7 + 5 + 1 - 1 - 8,4,4,2,3,1939.1694088999996,1941.1965734999997,1942.7118417,1947.731719200001,1948.3587508,1948.3587561000004,1949.8755130000009,1950.8923799000004,q,4.0,0.6270315999990999,1,+1,409,10.894254351898295,0.8929058756795394,-0.24243508638145084,1474068.0,14.850877670453933,-0.7616132569020628,0.5352371817379096,1477603.0,,,,,1942.7127795040008,1939.1777795040007,
94,13,22,f,1,2,86.0,10,4,low,8 + 3 - 4 + 5 + 9,21,23,21,22,1952.4093957000005,1954.4363349,1955.9522025999995,1960.9707252000007,1961.6547993000004,1961.654804400001,1963.171265500001,1964.1881792000004,w,21.0,0.6840740999996342,1,+1,410,-13.615998691505652,0.6318195526217423,0.20080253938185777,1487308.0,20.06834212015994,-1.6533742706748153,-0.027603928699082125,1490842.0,,,,,1955.9517795040008,1952.4177795040007,
95,13,22,f,1,2,87.0,11,2,low,6 + 1 + 1 + 7 - 9,6,8,4,6,1965.7050175000004,1967.7322485000004,1969.2472784,1974.2662956999995,1977.0307651000005,1977.0307704000008,1978.5472704999995,1979.5642616999996,e,6.0,2.764469400000962,1,+1,411,-31.084365225817734,-1.2640580158889643,0.04241542221110706,1500604.0,11.779799277248054,0.01772089503132257,-0.34125562188238145,1504138.0,,,,,1969.2477795040006,1965.7137795040007,
96,13,22,f,1,2,88.0,12,4,low,3 + 9 - 5 + 8 - 7,8,8,7,9,1981.0814941000008,1983.1078171000008,1984.6228840000003,1989.6410311,1990.3748094,1990.3748145000009,1991.8913205000008,1992.9084337000004,q,8.0,0.7337783000002673,1,+1,412,48.88837521198962,0.9130962095267181,0.2035972264444359,1515979.0,4.923498844547602,0.19483122169826306,0.23000833612373395,1519513.0,,,,,1984.6227795040006,1981.0887795040007,
97,13,22,f,1,2,89.0,13,2,high,4 + 9 + 1 - 7 - 1,6,8,5,6,1994.4252025000003,1996.4496010000005,1997.9653615000009,2002.9835597,2006.9668021,2006.9668074,2008.4846246,2009.5022224000004,e,6.0,3.9832423999996536,1,+10,422,5.069875858177497,-0.040262301035356884,0.05139865122875786,1529321.0,14.741359168949227,1.242432906806978,0.5621619454207485,1532855.0,,,,,1997.9647795040007,1994.4307795040006,
98,13,22,f,1,2,90.0,14,3,low,5 + 6 + 7 - 1 - 9,8,7,9,8,2011.0191720000005,2013.045768,2014.560964,2019.5808959999997,2020.150705600001,2020.1507107,2021.6676504000009,2022.684551100001,e,8.0,0.569809600001463,1,+1,423,-2.724279061640914,-0.17155941029680033,-0.32966785373529284,1545917.0,-7.359878762006566,-0.29657694822062997,-0.11926153492512093,1549452.0,,,,,2014.5617795040007,2011.0267795040006,
99,13,22,f,1,2,91.0,15,4,high,4 + 7 - 8 + 9 - 3,9,9,11,8,2024.200632600001,2026.224251900001,2027.7393580000007,2032.7582948,2035.0627378000008,2035.0627430000004,2036.5794373000008,2037.5966708,w,11.0,2.304443000000901,0,+0,423,4.411601698053661,-0.1346558287101427,-0.896588171543466,1559096.0,22.00392785013698,-0.5127493995919519,-0.23803478701718905,1562630.0,,,,,2027.7397795040008,2024.2057795040007,
100,13,22,f,1,2,92.0,16,3,low,6 - 1 + 7 - 8 + 9,13,12,13,11,2039.1134731,2041.1403044,2042.655455,2047.6742562,2048.2706641999994,2048.2706693,2049.7873967,2050.8043013000006,w,13.0,0.5964079999994283,1,+1,424,-2.4515489913654847,0.32558612207434035,-0.20334845689717262,1574012.0,-57.301334800491375,-0.5780103020006813,-0.09881220063961571,1577546.0,,,,,2042.6557795040007,2039.1217795040006,
101,13,22,f,1,2,93.0,17,2,high,7 + 6 + 1 + 8 + 1,23,22,21,23,2052.3208792999994,2054.3463067,2055.8617324000006,2060.8814672000008,2061.5746311000003,2061.5746359999994,2063.0908206000004,2064.1077897,e,23.0,0.6931638999994902,1,+10,434,-19.656451712792446,-0.1295588598212154,-0.10258714078993014,1587218.0,-79.29484705218891,0.3390194295978137,-0.007445323232029288,1590753.0,,,,,2055.8627795040006,2052.327779504001,
102,13,22,f,1,2,94.0,18,4,low,9 + 7 - 5 + 8 + 6,25,24,27,25,2065.6246379000004,2067.648088600001,2069.1633179,2074.181747300001,2076.2627071000006,2076.2627121999994,2077.7792875,2078.7967388,q,24.0,2.0809597999996186,0,+0,434,2.7145560374625606,-0.32683317795177835,-0.20127971935669686,1600519.0,-40.127186383493594,0.7852026691074201,-0.18950137330683514,1604053.0,,,,,2069.162779504001,2065.6287795040007,
103,13,22,f,1,2,95.0,19,3,low,7 - 1 + 8 - 6 + 4,12,11,12,13,2080.3135127000005,2082.3403931,2083.8561391000003,2088.8744356000007,2089.3745843,2089.3745891,2090.8912036,2091.9081341,w,12.0,0.5001486999990448,1,+1,435,8.852614836492654,0.2893751370067692,0.24172811584295317,1615211.0,-18.08733343796602,0.46788289620085965,-1.0056578379813357,1618746.0,,,,,2083.8557795040006,2080.3207795040007,
104,13,22,f,1,2,96.0,20,4,high,5 + 7 - 4 + 8 + 6,22,22,24,23,2093.4254007,2095.448206000001,2096.962612700001,2101.9813644999995,2105.710701600001,2105.7107068000005,2107.2272691,2108.2446086,q,22.0,3.7293371000014304,1,+10,445,24.47277747617123,-0.5428153366965649,0.05636613186708361,1628319.0,-23.04451059012239,0.07773699244484344,0.576754912066352,1631852.0,,,,,2096.961779504001,2093.4287795040004,
105,13,22,f,1,2,97.0,21,1,high,5 + 8 - 1 + 1 + 1,14,12,14,16,2109.7616837999994,2111.7874765,2113.3026216,2118.3207057,2118.7825262999995,2118.7825312999994,2120.2991366999995,2121.3154619,w,14.0,0.4618205999995552,1,+10,455,-43.669248092669086,-1.3527213874142605,-0.03060678570259867,1644658.0,-1.8432602687797086,0.06268842917248385,-0.2357858970232316,1648192.0,,,,,2113.3017795040005,2109.7677795040004,
106,13,22,f,1,2,98.0,22,2,low,9 + 6 + 1 + 7 + 1,24,23,25,24,2122.83246,2124.8578529000006,2126.3731413999994,2131.3913371,2131.8785227000008,2131.8785281,2133.3952389999995,2134.4121239,e,24.0,0.4871856000008847,1,+1,456,14.50220218244083,1.4960846766486808,0.34714033456968885,1657729.0,1.7215596984902664,-0.6058009247644058,0.028589845323760077,1661262.0,,,,,2126.3717795040006,2122.8387795040007,
107,13,22,f,1,2,99.0,23,4,high,5 + 7 - 4 - 6 + 9,11,12,11,13,2135.9294023,2137.955325000001,2139.4706656,2144.4907418000003,2144.8625732,2144.8625782,2146.3788428000007,2147.396243000001,w,11.0,0.3718313999997917,1,+10,466,-7.895216542618157,-0.12345034433935087,0.04752966314743334,1670826.0,37.74472307779256,0.29709285249901196,-0.238046883086648,1674362.0,,,,,2139.4717795040006,2135.9357795040005,
108,13,22,f,1,2,100.0,24,1,high,5 + 6 + 1 + 1 + 1,14,15,16,14,2148.9129281000005,2150.9365400999995,2152.4522153,2157.4701576000007,2157.9665382000003,2157.9665430999994,2159.483076300001,2160.500422900001,e,14.0,0.4963805999996111,1,+10,476,-50.497011686602995,-1.608128312424646,0.07271013748576216,1683808.0,30.59284510628234,-1.6398167658927632,0.3887062282657596,1687341.0,,,,,2152.4507795040004,2148.9177795040005,
109,13,22,f,1,2,101.0,25,1,high,2 + 1 + 9 + 1 - 1,12,11,12,13,2162.0178503000006,2164.0432435,2165.5585792,2170.5766765000008,2171.030557,2171.030561900001,2172.5469068,2173.5640415,w,12.0,0.4538804999992862,1,+10,486,-18.645075690888362,-0.4284493258835198,0.08011164061656295,1696913.0,-47.57952985941537,0.8137694973700595,0.10591726115618139,1700448.0,,,,,2165.557779504001,2162.0227795040005,
110,13,22,f,1,2,102.0,26,3,high,7 + 1 + 9 + 5 - 6,16,15,16,14,2175.0811221000004,2177.106591,2178.6217371,2183.6406750999995,2184.4304804999992,2184.4304857000006,2185.946742300001,2186.9636040999994,w,16.0,0.7898053999997501,1,+10,496,9.367388242209287,1.7427815072828086,-5.387660513068379,1709977.0,24.384068039620512,0.6240079376987859,-0.1834888333655047,1713511.0,,,,,2178.6207795040004,2175.086779504001,
111,13,22,f,1,2,103.0,27,3,low,8 + 6 - 7 + 1 - 4,4,4,5,3,2188.4802766,2190.505325600001,2192.020631900001,2197.039250100001,2197.5344638000006,2197.5344692,2199.050996600001,2200.0677905,q,4.0,0.4952137000000221,1,+1,497,22.095762434007423,0.2309546610717943,-0.14813342870109203,1723376.0,-30.93813750492664,0.13650154213094456,0.259182952096626,1726910.0,,,,,2192.019779504001,2188.4857795040007,
112,13,22,f,1,2,104.0,28,4,high,5 + 9 - 4 + 7 + 6,23,25,24,23,2201.5840503,2203.6087451999992,2205.1239137,2210.142412700001,2210.78255,2210.782555,2212.299265900001,2213.316506700001,e,23.0,0.640137299998969,1,+10,507,-30.331862129788185,-1.0699627359608748,-0.13279514776233503,1736480.0,72.09423498144444,0.893158452255645,-0.23565140710855648,1740013.0,,,,,2205.1227795040004,2201.5897795040005,
113,13,22,f,1,2,105.0,29,3,high,8 + 4 + 1 - 7 + 9,15,15,16,13,2214.8334644000006,2216.8585953,2218.3736902,2223.391793500001,2227.150574400001,2227.150579700001,2228.6672575,2229.6842331000007,e,13.0,3.758780899999692,0,+0,507,18.35904715407506,-0.30730935567944684,-0.3413966418761425,1749729.0,2.2552356647484135,-0.32043514502674153,0.06740743166048802,1753263.0,,,,,2218.3727795040004,2214.8387795040007,
114,13,22,f,1,2,106.0,30,1,low,3 + 1 + 1 + 9 - 1,13,14,12,13,2231.2010708,2233.2269524000003,2234.742254700001,2239.7615625,2240.3425095,2240.3425148999995,2241.8595803000007,2242.8766023000007,e,13.0,0.5809470000003785,1,+1,508,-7.072458356943919,-0.45434960463611596,-2.5592140739856015,1766098.0,-17.442974929940736,0.9224331501185894,1.350223824916296,1769632.0,,,,,2234.7417795040005,2231.2077795040004,
115,13,22,f,1,2,107.0,31,1,low,9 + 8 + 1 + 1 - 1,18,18,17,19,2244.3932910000003,2246.4170481,2247.9328394000004,2252.9507474,2253.478447200001,2253.478452200001,2254.9949506,2256.0119058,q,18.0,0.5276998000008462,1,+1,509,-13.401351189186503,0.25723949833025817,1.0943311760661416,1779288.0,-9.743786127784919,0.9113759258007565,-1.4372768611566018,1782822.0,,,,,2247.9317795040006,2244.3977795040005,
116,13,22,f,1,2,108.0,32,2,low,9 + 4 - 6 + 1 - 1,7,7,9,8,2257.528907600001,2259.556676,2261.0713983000005,2266.0896049000003,2266.9664529,2266.966458500001,2268.4828894,2269.5001572,q,7.0,0.8768479999998817,1,+1,510,20.200314449054254,-0.43434645858302723,-0.14719046317090356,1792427.0,-8.486163625479447,-0.08395784483785729,-0.01855804863061783,1795960.0,,,,,2261.0697795040005,2257.5367795040006,
117,13,22,f,1,2,109.0,33,3,high,5 + 7 + 1 - 4 + 6,15,15,13,17,2271.0169062000004,2273.041977500001,2274.557342600001,2279.5758257,2280.0703952000003,2280.0704000000005,2281.5862130999994,2282.6032122,q,15.0,0.4945695000005798,1,+10,520,8.705757858244787,0.3089319440998892,0.3287431493822255,1805913.0,29.761258709999236,-0.16922071630846336,0.21620893972650634,1809446.0,,,,,2274.5557795040004,2271.0227795040005,
118,13,22,f,1,2,110.0,34,4,low,4 + 8 + 9 - 3 + 7,25,26,24,25,2284.1198499,2286.1467023999994,2287.661938200001,2292.6805272,2293.3024594,2293.3024642,2294.819247200001,2295.836629900001,e,25.0,0.6219321999997192,1,+1,521,7.362140081575232,-0.6178214008732521,0.11262909697605039,1819017.0,34.67249103412204,-0.04375007543774334,0.30721892413534446,1822551.0,,,,,2287.6607795040004,2284.1267795040008,
119,13,22,f,1,2,111.0,35,4,low,7 + 6 - 9 + 8 - 3,9,8,7,9,2297.3533952,2299.3781892000006,2300.892941100001,2305.9116023999995,2306.4943368000004,2306.4943422,2308.0108339,2309.0276209999997,e,9.0,0.5827344000008452,1,+1,522,0.6803045396772927,0.23618124529301454,0.08558168252512921,1832249.0,-5.44576918715626,-0.7699126218467098,-0.033886340858237496,1835782.0,,,,,2300.8917795040006,2297.3587795040007,
120,13,22,f,1,2,112.0,36,4,high,5 + 8 - 6 + 7 + 4,18,17,19,18,2310.5445688,2312.5717577,2314.0877696000007,2319.106673100001,2319.710366400001,2319.7103714999994,2321.226865300001,2322.2442154,e,18.0,0.603693299999577,1,+10,532,22.202604142095566,-0.6649313781680029,0.02599150185727961,1845442.0,4.781809186384267,-1.1848505140865617,0.3187278251196406,1848977.0,,,,,2314.086779504001,2310.5517795040005,
121,13,22,f,1,2,113.0,37,3,low,4 + 5 - 3 + 7 - 1,12,12,11,13,2323.7613609,2325.785619100001,2327.3005957000005,2332.319325800001,2332.8543346999995,2332.85434,2334.370796700001,2335.3876647,q,12.0,0.5350088999985019,1,+1,533,-14.853383882566622,-0.12392808281422507,-0.5736442522433816,1858656.0,-2.589001329677778,0.8024412774471212,0.1445294293836734,1862190.0,,,,,2327.2997795040005,2323.7657795040004,
122,13,22,f,1,3,114.0,0,3,low,6 - 1 + 7 - 8 + 9,13,12,13,11,2344.5219474999994,2346.5486574000006,2348.063812800001,2353.0833836,2353.5583236,2353.5583285,2355.0751311999998,2356.0920943,w,13.0,0.4749400000000605,1,+1,534,4.54207108237069,0.2572125245284891,2.8864281129943445,1879419.0,19.739371981418728,-0.5628723146626919,-0.08570490959470245,1882954.0,,,,,2348.0637795040006,2344.528779504001,
123,13,22,f,1,3,115.0,1,4,low,4 + 7 - 8 + 9 - 4,8,7,9,8,2357.6089051,2359.6351373,2361.1504202,2366.1698177,2369.3824208000005,2369.3824263000006,2370.8993649999998,2371.916515500001,w,9.0,3.212603100000706,0,+0,534,3.7081000155368757,-0.534906772088827,0.03620543033364676,1892505.0,-3.699629520522876,1.6703623316400273,-0.2688918448615705,1896040.0,,,,,2361.1497795040004,2357.6147795040006,
124,13,22,f,1,3,116.0,2,3,low,6 + 7 + 8 + 1 - 9,13,14,15,13,2373.4338033999998,2375.4605904,2376.9748710999997,2381.9939309,2382.6062896000003,2382.606295,2384.123694,2385.1411565,e,13.0,0.6123587000001862,1,+1,535,-23.16544987325345,-0.6893806537802192,0.014633246688605439,1908331.0,10.618159905923243,1.5699540175803843,-0.14773216327880156,1911864.0,,,,,2376.9737795040005,2373.4407795040006,
125,13,22,f,1,3,117.0,3,4,high,3 + 9 - 4 + 7 + 6,21,19,21,20,2386.657519300001,2388.6818829999997,2390.1972227999995,2395.2156081,2397.8543441,2397.854350400001,2399.3710134,2400.3881532,e,20.0,2.6387360000007902,0,+0,535,-41.026735138971326,1.367594766254543,-0.10690258945752529,1921552.0,-32.532015494254026,0.8818184984781325,-0.07253314626809182,1925086.0,,,,,2390.1957795040007,2386.6617795040006,
126,13,22,f,1,3,118.0,4,2,high,8 + 1 + 1 + 9 - 4,15,15,16,14,2401.9046587,2403.931893500001,2405.4472976,2410.4655803999995,2411.0463422,2411.0463482,2412.5627442000005,2413.5800727999995,q,15.0,0.5807617999998911,1,+10,545,30.383618030494965,-0.7460328705435648,2.7702424245810056,1936802.0,23.64354587432948,0.9158631060833144,0.2449539555696818,1940336.0,,,,,2405.4457795040007,2401.9117795040006,
127,13,22,f,1,3,119.0,5,1,low,3 + 1 + 8 + 1 + 1,14,16,13,14,2415.0967774,2417.125048,2418.6404982000004,2423.6589915000004,2424.1982399000008,2424.1982451999997,2425.714801100001,2426.7318491000005,e,14.0,0.5392484000003606,1,+1,546,26.01793532603154,0.31640172172435754,0.1466233687529641,1949995.0,17.700930361873176,-0.57015512516797,0.3337499439474829,1953529.0,,,,,2418.6387795040005,2415.1047795040004,
128,13,22,f,1,3,120.0,6,2,high,2 + 9 - 4 + 1 + 1,9,9,8,11,2428.2486749,2430.2743186000007,2431.7893502000006,2436.808842800001,2437.334243,2437.3342477999995,2438.8507446000003,2439.8679185,q,9.0,0.5254001999983302,1,+10,556,8.21129203440664,0.03217332362864678,-0.22624394730483122,1963144.0,18.64237395418113,1.1944346093410916,-0.5092283861967082,1966679.0,,,,,2431.7887795040006,2428.2537795040007,
129,13,22,f,1,3,121.0,7,3,low,2 + 9 + 1 - 5 + 7,14,15,14,12,2441.3847878,2443.410237,2444.9254765999995,2449.9439346,2450.678226,2450.678230900001,2452.1948008,2453.2116707999994,w,14.0,0.7342914000000746,1,+1,557,-16.691550308157773,0.6715136643430712,-0.5000253468407556,1976280.0,-6.105881305138929,0.17032267860731043,0.3969597478618141,1979814.0,,,,,2444.923779504001,2441.3897795040007,
130,13,22,f,1,3,122.0,8,3,low,8 - 1 + 6 - 7 + 5,11,13,11,12,2454.728655000001,2456.7521918,2458.2674534,2463.2860294,2463.806332100001,2463.8063372,2465.3227552000008,2466.3398541999995,w,11.0,0.5203027000006841,1,+1,558,-16.13967144589166,0.05427452079238826,-0.19734140858619886,1989623.0,5.544183288074887,2.0102044941252046,0.12835846480637914,1993156.0,,,,,2458.2657795040004,2454.7327795040005,
131,13,22,f,1,3,123.0,9,1,high,3 + 1 + 8 - 1 + 1,12,12,13,10,2467.857171,2469.8804034000004,2471.3956734999992,2476.4137740999995,2476.9421251999997,2476.9421304000007,2478.4587594000004,2479.4758566,q,12.0,0.5283510999997816,1,+10,568,-25.18580830208947,1.2260911369525855,0.06670320225615178,2002751.0,16.841646891242846,1.6666439164522515,-0.06482819078506896,2006284.0,,,,,2471.3937795040006,2467.8607795040007,
132,13,22,f,1,3,124.0,10,1,low,7 - 1 + 1 + 9 - 1,15,14,13,15,2480.9925862,2483.0180316999995,2484.5334757,2489.5525295000007,2490.0862136,2490.0862190000007,2491.603242000001,2492.6201327,e,15.0,0.5336840999989363,1,+1,569,11.365202775998517,-0.6412924742879138,0.03133834462009988,2015888.0,-16.901377281290124,0.6423546774907338,0.059161992628636195,2019422.0,,,,,2484.5317795040005,2480.9977795040004,
133,13,22,f,1,3,125.0,11,4,low,6 + 9 + 7 - 3 - 5,14,14,13,12,2494.1369694000005,2496.1626940999995,2497.6779535000005,2502.6966501000006,2505.9181470999997,2505.9181525000004,2507.434630400001,2508.4514333000006,q,14.0,3.221496999998635,1,+1,570,-24.349793326376044,0.3196493487168519,1.6643313406166982,2029032.0,-14.117160318213095,-0.10445957940458417,0.013640935223871331,2032567.0,,,,,2497.6767795040005,2494.1417795040006,
134,13,22,f,1,3,126.0,12,2,low,7 + 1 + 9 - 1 - 8,8,7,6,8,2509.9683332000004,2511.9929842,2513.5080801000004,2518.526862500001,2519.4462091999994,2519.4462143,2520.9628009000007,2521.9796855000004,e,8.0,0.9193466999986412,1,+1,571,31.84676801960596,0.7058261056406732,0.3648728520127964,2044863.0,9.794369398433048,-0.3537553448411055,-0.18337715704022628,2048397.0,,,,,2513.5067795040004,2509.9727795040008,
135,13,22,f,1,3,127.0,13,3,high,5 - 1 - 4 + 6 + 7,13,15,14,13,2523.496599600001,2525.522866200001,2527.0383305,2532.0568595000004,2532.6140756000004,2532.6140803,2534.1305438,2535.147630200001,e,13.0,0.5572161000000051,1,+10,581,41.89970360686651,0.947508206186015,0.06473263152515418,2058393.0,-23.03533074877192,-0.8335029149042086,0.23714030633392813,2061927.0,,,,,2527.0367795040006,2523.5027795040005,
136,13,22,f,1,3,128.0,14,4,low,6 + 9 + 7 - 3 - 5,14,15,13,14,2536.6647719,2538.6937211000004,2540.2090725,2545.2292806000005,2546.8781643,2546.8781698000003,2548.3948611,2549.4118884,e,14.0,1.6488836999997147,1,+1,582,18.652759272642808,-0.6355846664676266,0.49462615720007497,2071563.0,-8.347588141114215,-0.04172164271246359,-0.0878417925245496,2075099.0,,,,,2540.2087795040006,2536.6727795040006,
137,13,22,f,1,3,129.0,15,2,low,2 + 9 + 1 + 1 - 5,8,8,6,7,2550.9286882,2552.9552208999994,2554.4702087000005,2559.4884179,2559.9180706000006,2559.918075400001,2561.434762500001,2562.4519743,q,8.0,0.4296527000005881,1,+1,583,-7.42878274076401,-0.28256119160072934,0.05166210844750907,2085825.0,5.9441711617947135,0.09475541509443364,-0.17370977994917203,2089358.0,,,,,2554.4677795040006,2550.9347795040003,
138,13,22,f,1,3,130.0,16,2,high,4 + 7 + 1 + 1 - 8,5,4,5,7,2563.9689562000003,2565.9961527,2567.5114546999994,2572.5319678,2572.934105800001,2572.9341110999994,2574.4512190000005,2575.4683700000005,w,5.0,0.4021380000012868,1,+10,593,-8.907728030363984,0.19189685964804415,0.10650228280381402,2098866.0,14.880311696259648,0.3252825257686167,0.2908934238826193,2102401.0,,,,,2567.5107795040003,2563.9757795040005,
139,13,22,f,1,3,131.0,17,3,high,4 + 1 + 8 + 9 - 5,17,18,19,17,2576.9849108,2579.0116547,2580.5268443999994,2585.5449517,2586.2220007,2586.2220055,2587.738327000001,2588.7556246999998,e,17.0,0.6770489999998972,1,+10,603,14.12478971158914,-0.48199931221548287,0.08271293610868069,2111881.0,-1.0396439294275979,0.1534886327770444,0.17465513050890458,2115415.0,,,,,2580.5247795040004,2576.9907795040003,
140,13,22,f,1,3,132.0,18,3,high,3 + 1 + 8 - 5 + 6,13,15,14,13,2590.2725275,2592.295057700001,2593.8103487000008,2598.8285473,2599.4780494000006,2599.4780543,2600.9949424999995,2602.0128134999995,e,13.0,0.6495021000009729,1,+10,613,-34.0170388562693,-0.2218352123310865,0.14760000279706365,2125165.0,16.726864608377703,-0.44740241244156387,0.27231087515881613,2128698.0,,,,,2593.8077795040003,2590.2747795040004,
141,13,22,f,1,3,133.0,19,3,high,9 - 5 - 1 - 6 + 8,5,7,5,4,2603.5303779000005,2605.553108600001,2607.0684126,2612.0867617000004,2614.5100045,2614.5100095,2616.0264885,2617.0434343,w,5.0,2.4232427999995707,1,+10,623,-2.689147805308831,0.7086221318518016,-0.0773047390292314,2138423.0,-4.468203474290549,1.1462772068945322,0.14272869164809698,2141956.0,,,,,2607.0657795040006,2603.5327795040002,
142,13,22,f,1,3,134.0,20,2,low,2 + 1 + 9 - 4 + 1,9,11,8,9,2618.5602667000003,2620.587162400001,2622.102088900001,2627.1201558,2627.8780663,2627.8780719000006,2629.3949322000008,2630.411623600001,e,9.0,0.7579105000004347,1,+1,624,-4.221449212984659,0.23678544200419083,0.06591317995489643,2153457.0,6.3147558973651226,-0.16137869531427462,0.18095346584164984,2156990.0,,,,,2622.0997795040003,2618.5667795040004,
143,13,22,f,1,3,135.0,21,4,low,7 + 8 - 4 + 6 - 5,12,11,13,12,2631.928410300001,2633.9549711,2635.470209900001,2640.4889625,2641.1980016,2641.1980068,2642.714492000001,2643.7320069,e,12.0,0.7090391000001546,1,+1,625,-0.07661934404174886,-0.6819322771263714,0.28367325114821806,2166824.0,10.296117433965497,-0.09975457601544946,-0.09025755818918979,2170358.0,,,,,2635.4677795040006,2631.9337795040005,
144,13,22,f,1,3,136.0,22,4,high,4 + 9 - 7 + 8 + 5,19,19,20,21,2645.2486966,2647.2750189,2648.7901096000005,2653.8091227000004,2654.334060700001,2654.334065700001,2655.850417400001,2656.8678666,q,19.0,0.5249380000004749,1,+10,635,13.133267437813625,-0.3344365885034293,0.08108612977334317,2180145.0,25.843330668753218,-0.38475816264942253,-0.12547745139735955,2183678.0,,,,,2648.7877795040004,2645.2547795040005,
145,13,22,f,1,3,137.0,23,1,low,3 + 1 + 8 + 1 + 1,14,13,12,14,2658.384632400001,2660.412432900001,2661.927649200001,2666.9454062999994,2667.454034800001,2667.4540399,2668.9707598000005,2669.9879214,e,14.0,0.5086285000015778,1,+1,636,27.317972768982482,-1.3203230048454468,-0.04950328087859557,2193282.0,28.280691939981953,-1.0386381703127068,0.11919559089694731,2196815.0,,,,,2661.9247795040005,2658.3917795040006,
146,13,22,f,1,3,138.0,24,4,low,8 + 4 - 5 + 7 - 6,8,7,8,6,2671.5041175000006,2673.530883200001,2675.0461789,2680.065359800001,2680.6298945,2680.6298995,2682.1471015000006,2683.1639818999997,w,8.0,0.5645346999990579,1,+1,637,9.651395638348303,0.011626452031533674,0.007045939726350259,2206400.0,7.7248019082390025,0.2432635786061752,0.04107083192018601,2209935.0,,,,,2675.0447795040004,2671.5097795040006,
147,13,22,f,1,3,139.0,25,4,low,8 + 4 + 7 - 5 - 6,8,6,8,9,2684.6805843,2686.7049948999997,2688.2202261,2693.2387536999995,2693.869956300001,2693.8699614,2695.3867033000006,2696.4034979000007,w,8.0,0.6312026000014157,1,+1,638,58.05720826043786,0.20533870632287332,-0.06753184131081102,2219574.0,-6.1286925442823295,0.09339270149154544,-0.2382643525656558,2223108.0,,,,,2688.2177795040006,2684.6837795040005,
148,13,22,f,1,3,140.0,26,2,high,3 + 1 + 8 - 5 - 1,6,7,6,5,2697.9201775,2699.9455402000003,2701.460764200001,2706.4799246,2706.9260034,2706.9260089,2708.4435429999994,2709.4608305,w,6.0,0.4460787999996682,1,+10,648,-3.597861270065934,0.9090181850393098,0.0945472822615181,2232814.0,6.079014856337168,-0.37816030684749613,0.19625392249035922,2236348.0,,,,,2701.4577795040004,2697.9237795040003,
149,13,22,f,1,3,141.0,27,1,high,4 + 7 + 1 - 1 - 1,10,9,10,11,2710.9775253000007,2713.003804,2714.519024200001,2719.5380883,2719.9338657000008,2719.9338706,2721.4503342000007,2722.4675174000004,w,10.0,0.3957774000009522,1,+10,658,41.27015724560954,-0.8791314045660421,-0.18261633454221338,2245873.0,3.5390488153303057,-0.3591926588102261,-0.23092774465748223,2249407.0,,,,,2714.5167795040006,2710.9827795040005,
150,13,22,f,1,3,142.0,28,1,low,5 + 1 + 1 + 9 + 1,17,17,19,16,2723.9850327000004,2726.0105638999994,2727.5258034,2732.5440373,2733.0698999,2733.0699052,2734.5864503,2735.6036312,q,17.0,0.5258625999995274,1,+1,659,12.784749473443574,-1.1372727607443949,0.05948618098588998,2258880.0,0.12981759920850067,0.4728789789518526,0.13358693203336758,2262413.0,,,,,2727.5227795040005,2723.9897795040006,
151,13,22,f,1,3,143.0,29,3,high,7 - 1 + 9 - 5 + 4,14,14,15,13,2737.1197981999994,2739.1450422,2740.6601168,2745.6785777999994,2746.2218433,2746.2218483,2747.738404400001,2748.7559925999994,q,14.0,0.5432655000004161,1,+10,669,-21.289289843032527,0.2570929296182829,0.03254569092357684,2272014.0,5.7944248024659295,0.6344761742187579,-0.0647920961406192,2275548.0,,,,,2740.6577795040002,2737.1237795040006,
152,13,22,f,1,3,144.0,30,3,high,7 - 5 + 9 + 1 - 4,8,8,7,9,2750.2723872000006,2752.2965922999992,2753.8118763,2758.8303510999995,2760.3418122000003,2760.341817300001,2761.8582018,2762.8751068,w,7.0,1.5114611000008151,0,+0,669,9.840315279255115,0.12464169121499236,-0.08649778567847566,2285166.0,27.45621692292007,-0.18393325540400163,-0.08980382121329988,2288699.0,,,,,2753.8087795040005,2750.2757795040006,
153,13,22,f,1,3,145.0,31,2,high,8 + 1 + 9 + 1 - 5,14,14,13,15,2764.3919599,2766.4166332000004,2767.9319337,2772.9507338000003,2776.1179851,2776.117990500001,2777.6347191000004,2778.6514102,w,13.0,3.167251299999407,0,+0,669,-11.92049015033256,-0.24065549279517917,-0.1374713968858119,2299286.0,-9.768006744361308,1.5583666772990439,0.19119041277140747,2302819.0,,,,,2767.9287795040004,2764.3957795040005,
154,13,22,f,1,3,146.0,32,3,high,9 + 3 - 4 + 6 + 7,21,23,22,21,2780.168503000001,2782.1933076999994,2783.7085167000005,2788.7270272000005,2792.6138441000003,2792.6138495,2794.1299803,2795.146793,e,21.0,3.886816899999758,1,+10,679,6.3768545168261035,0.30578668210594984,-0.02417050948673971,2315063.0,2.60883393386678,0.13438214151433314,0.051370432991052706,2318596.0,,,,,2783.7057795040005,2780.1727795040006,
155,13,22,f,1,3,147.0,33,4,high,7 + 6 - 4 + 9 - 5,13,12,13,14,2796.6635258999995,2798.6885694,2800.2038687000004,2805.2220758999997,2807.7821406000003,2807.782146,2809.2986602,2810.3159545,w,13.0,2.5600647000010213,1,+10,689,30.93676573347164,-0.4490016213551957,-0.48862445877397054,2331557.0,-43.82962608579135,1.3645714724151556,-0.2784803221632468,2335091.0,,,,,2800.2007795040004,2796.6667795040003,
156,13,22,f,1,3,148.0,34,2,high,7 + 6 + 1 - 1 - 8,5,3,4,5,2811.8326899000003,2813.8590750999992,2815.3742105,2820.394420300001,2820.8537896,2820.853794300001,2822.3698716,2823.3873662999995,e,5.0,0.4593692999987979,1,+10,699,-3.2141677646886286,0.7439758756773287,0.12980216607013562,2346728.0,7.9284787550707065,-1.1788328038669853,0.11569400326391843,2350263.0,,,,,2815.3727795040004,2811.8377795040005,
157,13,22,f,1,3,149.0,35,2,low,6 + 1 + 7 - 8 - 1,5,4,7,5,2824.904050000001,2826.9296240000003,2828.4449167,2833.4636562,2833.9898037000003,2833.9898085000004,2835.5066157,2836.5234934,e,5.0,0.5261475000006612,1,+1,700,-4.254464846303641,0.48803949515030176,-0.0027717893796670445,2359798.0,4.60604556158818,0.378455967294391,-0.025233108303487572,2363333.0,,,,,2828.4427795040006,2824.9077795040002,
158,13,22,f,1,3,150.0,36,2,high,3 - 1 + 9 - 5 + 1,7,7,5,6,2838.040360500001,2840.0670580999995,2841.5823273999995,2846.6004727,2847.1419000999995,2847.1419051,2848.658289500001,2849.6755677,q,7.0,0.5414273999995203,1,+10,710,11.009618487075203,-0.6411075469902414,0.23688709275623188,2372936.0,34.025727875722,0.8092568862955298,-0.1212679652753903,2376469.0,,,,,2841.5787795040005,2838.0457795040006,
159,13,22,f,1,3,151.0,37,2,low,9 + 5 - 6 + 1 - 1,8,8,9,7,2851.1925152999997,2853.221540300001,2854.736602000001,2859.7550742000003,2860.349725600001,2860.3497303000004,2861.866445,2862.8832578,q,8.0,0.5946514000006573,1,+1,711,-21.18714039653775,-0.18258049443495317,-0.23335908558676133,2386090.0,3.6434624862516096,-0.7853782586310629,0.04453323948972354,2389624.0,,,,,2854.7337795040003,2851.1997795040006,
160,13,22,f,1,4,152.0,0,3,low,6 + 1 + 8 + 7 - 9,13,15,13,14,2878.5457104,2880.5711785999997,2882.0855002000008,2887.1057785,2887.5577274000007,2887.557732200001,2889.0745823,2890.091503,w,13.0,0.4519489000012981,1,+1,712,-1.3965812043937227,2.0535730159511214,0.2064111682775902,2413440.0,11.081284324666028,-0.33488543486690503,0.291526581634336,2416975.0,,,,,2882.0847795040004,2878.5497795040005,
161,13,22,f,1,4,153.0,1,4,low,9 + 4 - 6 + 8 + 7,22,22,24,21,2891.608330700001,2893.6355029000006,2895.1508336000006,2900.1711880000003,2901.7656559000006,2901.7656613,2903.2830882,2904.3000887,q,22.0,1.5944679000003816,1,+1,713,8.281933889024305,-0.12842833157219147,-0.3101464845496942,2426504.0,14.951112350052515,-0.6134054618564964,0.04074832861842337,2430039.0,,,,,2895.1487795040007,2891.6137795040004,
162,13,22,f,1,4,154.0,2,4,low,8 + 7 - 4 + 5 + 9,25,26,25,24,2905.8169609,2907.841809900001,2909.3567592,2914.375405500001,2914.9576741,2914.9576789,2916.4740907,2917.4909972999994,w,25.0,0.5822685999992245,1,+1,714,-0.457500703090568,0.14005474003857188,-0.6461622532070459,2440710.0,-48.528994420853714,0.8768747924527673,0.2135107439004451,2444244.0,,,,,2909.3537795040006,2905.8197795040005,
163,13,22,f,1,4,155.0,3,2,low,3 + 8 - 5 + 1 + 1,8,9,6,8,2919.0071934000007,2921.0343673000007,2922.5493315999997,2927.5673738000005,2928.069771300001,2928.0697765999994,2929.586314100001,2930.6036754,e,8.0,0.5023975000003702,1,+1,715,5.453614136389671,-0.2867026044477381,0.17658585576050445,2453903.0,-0.4017576816524837,-0.14226261319243605,-0.08240317068804659,2457436.0,,,,,2922.5457795040006,2919.0127795040003,
164,13,22,f,1,4,156.0,4,2,high,4 + 9 - 7 + 1 - 1,6,8,5,6,2932.1204326000006,2934.148253900001,2935.663469000001,2940.6817389000007,2941.1816575,2941.1816627000007,2942.6974649999997,2943.7151259,e,6.0,0.4999185999986366,1,+10,725,2.952985675409245,1.0443792347266516,-0.009641615102508272,2467017.0,-8.640523279585107,0.7818909142174171,-0.08143981368891229,2470550.0,,,,,2935.6597795040007,2932.1267795040003,
165,13,22,f,1,4,157.0,5,1,low,3 + 1 + 9 + 1 + 1,15,14,15,17,2945.2318035000008,2947.2596553999992,2948.7748446999994,2953.7932194000005,2954.2857060999995,2954.2857114,2955.8031489000005,2956.8200485,w,15.0,0.4924866999990627,1,+1,726,26.382505643982505,0.5224906477686453,-4.860550290689271,2480128.0,16.7568531513652,-0.8935656854653491,-0.07357180933802576,2483662.0,,,,,2948.7717795040003,2945.2377795040006,
166,13,22,f,1,4,158.0,6,1,low,2 + 1 + 9 + 1 - 1,12,13,11,12,2958.3367696999994,2960.3621855,2961.8774748,2966.8952472,2967.5577435,2967.557749,2969.0745606,2970.0913824,e,12.0,0.662496299999475,1,+1,727,-13.091381702810809,-0.655589301330318,-0.05403509306876719,2493231.0,-47.79907630709909,0.6126834244773143,0.16814902741389526,2496764.0,,,,,2961.8737795040006,2958.3407795040007,
167,13,22,f,1,4,159.0,7,3,low,3 + 8 + 1 + 5 - 9,8,8,7,9,2971.6088397999997,2973.6369288000005,2975.1527155999997,2980.170445,2980.6936232000007,2980.6936282999995,2982.2101581000006,2983.226780500001,q,8.0,0.5231782000009844,1,+1,728,-3.206806055827453,-1.1445983090025171,-0.2584859302332805,2506505.0,18.46354130023752,-0.23595842296266056,0.3501368863584755,2510039.0,,,,,2975.1487795040007,2971.6147795040006,
168,13,22,f,1,4,160.0,8,4,low,2 + 9 - 6 + 8 - 4,9,11,9,7,2984.7435549,2986.7712429000003,2988.2864845000004,2993.304724400001,2993.8455622,2993.8455674,2995.362066,2996.3788704,w,9.0,0.5408377999992808,1,+1,729,-22.835994550693282,0.640271061035004,1.7460636771872426,2519640.0,-4.308204329819956,0.7212787271695742,-0.10213797936693592,2523173.0,,,,,2988.2827795040002,2984.7497795040003,
169,13,22,f,1,4,161.0,9,1,low,7 + 1 + 6 + 1 + 1,16,17,18,16,2997.895624700001,2999.923267100001,3001.4381250999995,3006.4560408,3007.4695914000004,3007.4695966,3008.9861175000005,3010.0030726999994,e,16.0,1.013550600000599,1,+1,730,-26.85084583610023,1.980699124858596,0.024843835671530812,2532792.0,-4.16773242004613,0.7741712094809206,0.06566565053790718,2536325.0,,,,,3001.4347795040003,2997.9017795040004,
170,13,22,f,1,4,162.0,10,4,high,9 + 8 - 5 - 7 + 6,11,10,11,13,3011.5197601,3013.5480522,3015.063317100001,3020.082777600001,3020.5256179000007,3020.5256229999995,3022.0426344000007,3023.0604872999997,w,11.0,0.4428403000001708,1,+10,740,38.42999609750497,-0.7938393819946583,-0.3831133465992398,2546416.0,3.1956429419863683,0.011688766629260883,0.061103018706460954,2549951.0,,,,,3015.0607795040005,3011.5257795040006,
171,13,22,f,1,4,163.0,11,1,high,2 + 9 + 1 + 1 + 1,14,13,14,12,3024.5771257,3026.602345,3028.1176856,3033.135690700001,3033.5656005,3033.5656057,3035.082658700001,3036.0999027,w,14.0,0.4299097999992227,1,+10,750,-5.953128131828853,-0.14478230225733668,-0.07597119472230496,2559471.0,38.064551044518275,0.35397668709698316,-0.1177787321072481,2563004.0,,,,,3028.1137795040004,3024.5807795040005,
172,13,22,f,1,4,164.0,12,2,high,6 + 8 + 1 + 1 - 7,9,8,9,11,3037.616610700001,3039.6440569999995,3041.1592401,3046.1775978999995,3046.7735023000005,3046.7735077,3048.290277600001,3049.3074264000006,w,9.0,0.5959044000010181,1,+10,760,-40.99651707597272,0.011367096549166789,0.18981313066557126,2572513.0,-21.870746113105533,-0.17290427437182387,-0.10481070612404997,2576046.0,,,,,3041.1557795040003,3037.6227795040004,
173,13,22,f,1,4,165.0,13,1,high,6 + 9 + 1 + 1 - 1,16,16,14,15,3050.824096800001,3052.8491495,3054.364451900001,3059.3838089,3059.9494834,3059.9494890000005,3061.4661987,3062.4832348,q,16.0,0.565674499999659,1,+10,770,-26.049456275447827,-0.9922169771608127,0.10241793792377818,2585718.0,-25.065750582906233,0.8485877174226424,-1.9952154464077143,2589252.0,,,,,3054.3617795040004,3050.8277795040003,
174,13,22,f,1,4,166.0,14,4,high,2 + 5 - 3 + 9 + 8,21,21,22,19,3063.999960000001,3066.0234170999997,3067.5386450999995,3072.5578246000005,3075.2296711,3075.2296762999995,3076.7461781,3077.763836,q,21.0,2.6718464999994467,1,+10,780,-2.924957874066754,0.1333164283996915,0.3359645893583778,2598892.0,6.251016618575811,0.08790095106993334,0.22672654781834956,2602426.0,,,,,3067.5357795040004,3064.0017795040003,
175,13,22,f,1,4,167.0,15,1,high,3 + 1 + 1 + 8 - 1,12,14,13,12,3079.2812619,3081.3079774,3082.8229094,3087.8412645000008,3088.413541,3088.4135461000005,3089.9301517000004,3090.9473791,e,12.0,0.5722764999991341,1,+10,790,20.939019855229486,-0.36553356872776543,-0.09236041426309116,2614176.0,-57.71695888418847,-0.1324294748351491,-0.02404007128428054,2617709.0,,,,,3082.8187795040003,3079.2857795040004,
176,13,22,f,1,4,168.0,16,1,low,8 + 1 + 1 + 1 - 4,7,7,5,8,3092.4635882,3094.491207000001,3096.0063665,3101.0245849000003,3101.581521,3101.5815263000004,3103.0981309,3104.1158080999994,q,7.0,0.5569360999998025,1,+1,791,12.846756780477229,0.2378834483541521,0.01245592142592944,2627359.0,6.991892298777655,-0.15115989576388245,-0.17244082035583075,2630893.0,,,,,3096.0027795040005,3092.4687795040004,
177,13,22,f,1,4,169.0,17,3,high,5 + 6 - 4 - 1 + 7,13,14,13,15,3105.6328615,3107.6599461000005,3109.1757525,3114.194889300001,3114.8214056,3114.8214106,3116.3379117000004,3117.3551946000007,w,13.0,0.6265162999989116,1,+10,801,-0.44130760517834844,0.6470879185784746,0.06605372394393028,2640528.0,7.206449952961472,-1.1438075205549572,0.2729568317050304,2644062.0,,,,,3109.1717795040004,3105.6377795040003,
178,13,22,f,1,4,170.0,18,2,low,3 + 8 + 1 - 5 + 1,8,8,9,6,3118.8721929000003,3120.9002808999994,3122.415543900001,3127.4336485999997,3128.0615327,3128.061537900001,3129.578231900001,3130.595126800001,q,8.0,0.6278841000003013,1,+1,802,-16.81727406651903,-0.16127317593810275,-0.26551448599250316,2653768.0,24.902381614613393,-0.9749608472054696,0.06282744981423516,2657302.0,,,,,3122.4117795040006,3118.8777795040005,
179,13,22,f,1,4,171.0,19,2,high,8 + 1 + 7 + 1 - 4,13,13,14,12,3132.1123935,3134.140124,3135.6557892,3140.6743936000003,3141.1734677000004,3141.1734738,3142.6901077,3143.7073557000003,q,13.0,0.4990741000001435,1,+10,812,55.2592573088756,-1.1431928545250791,0.2404122016666128,2667008.0,14.264756461797717,0.422369780320615,0.07588488322873799,2670542.0,,,,,3135.6517795040004,3132.1177795040003,
180,13,22,f,1,4,172.0,20,2,low,5 - 8 + 7 + 1 + 1,6,7,6,8,3145.2242152,3147.2509035000003,3148.7659647,3153.7846082,3157.7574268000008,3157.7574325999994,3159.2737826,3160.2909927,q,7.0,3.972818600001119,0,+0,812,-3.54894767548028,-0.7438781308212485,0.056055953107655654,2680119.0,-3.9202332643267006,0.7702543162741406,0.4105233809220614,2683652.0,,,,,3148.7617795040005,3145.2287795040006,
181,13,22,f,1,4,173.0,21,2,high,3 + 9 + 1 - 5 + 1,9,8,7,9,3161.807743900001,3163.8340150999998,3165.3494331,3170.3675060000005,3171.029472100001,3171.0294772,3172.5462429,3173.5637381,e,9.0,0.6619661000004271,1,+10,822,-11.55550587517919,-0.5491757082038493,0.0463341256747154,2696702.0,14.835229089857691,0.3656519127133251,0.18298126027807848,2700235.0,,,,,3165.3447795040006,3161.8117795040007,
182,13,22,f,1,4,174.0,22,2,low,6 + 1 + 8 + 5 - 1,19,19,18,17,3175.0805404,3177.1081813,3178.623151,3183.6422478000004,3184.2053830000004,3184.2053882,3185.7222349000003,3186.7391661,q,19.0,0.5631352000000334,1,+1,823,-20.598392012459524,-0.013686112884842672,-0.04598923724131598,2709976.0,15.619484279225176,0.2896343601840856,0.09915515627700033,2713509.0,,,,,3178.6187795040005,3175.0857795040006,
183,13,22,f,1,4,175.0,23,2,high,3 + 9 - 1 - 5 + 1,7,6,5,7,3188.2561754,3190.2835118000003,3191.7987289,3196.8175883000004,3197.3174342,3197.3174395999995,3198.8336658000007,3199.8507092,e,7.0,0.4998458999998547,1,+10,833,21.150370590244435,0.7163489478274538,-0.659743735212281,2723151.0,-8.15391188443548,0.3491687626057871,0.08621174691565425,2726685.0,,,,,3191.7947795040004,3188.2607795040003,
184,13,22,f,1,4,176.0,24,2,high,8 + 1 + 9 + 1 - 4,15,16,15,14,3201.3674436,3203.3913771000007,3204.9064136,3209.9243573000003,3213.4373254,3213.437330500001,3214.9540073000007,3215.9712444,e,14.0,3.5129680999998527,0,+0,833,-1.529570224076199,1.2124391723215115,-0.06835274058406915,2736259.0,-17.4266451925935,-1.395027634583018,-0.04132017734780424,2739792.0,,,,,3204.9017795040004,3201.3687795040005,
185,13,22,f,1,4,177.0,25,2,high,5 + 9 - 8 + 1 + 1,8,9,8,7,3217.4879838,3219.5136482,3221.0288917,3226.0472321,3226.6933288,3226.6933341000004,3228.210368600001,3229.2279213,w,8.0,0.6460967000002711,1,+10,843,20.33098613302171,1.06177046681659,0.06551711771225932,2752381.0,-5.214997084835391,-2.5327833111210776,0.0701993682024522,2755915.0,,,,,3221.0247795040004,3217.4907795040003,
186,13,22,f,1,4,178.0,26,2,low,5 + 7 - 8 + 1 + 1,6,8,7,6,3230.7445467,3232.7716277,3234.2867747,3239.305234200001,3240.0373925999997,3240.0373978000007,3241.554013000001,3242.570881,e,6.0,0.7321583999982977,1,+1,844,-29.593817174276147,1.9378286435301444,-0.24051827875781262,2765639.0,0.8685088084168466,-0.4345147240740115,0.07018247676383282,2769173.0,,,,,3234.2827795040002,3230.7487795040006,
187,13,22,f,1,4,179.0,27,2,high,5 + 8 + 1 - 1 + 9,22,22,21,23,3244.0882005000003,3246.1283877999995,3247.6436213,3252.6632826999994,3253.901270800001,3253.9012760000005,3255.4181042,3256.435457,q,22.0,1.2379881000015305,1,+10,854,-12.475912804012648,-0.12283435343388582,-0.12842062619894135,2778996.0,34.072608797211444,0.21637954218116384,-0.17664536806551956,2782530.0,,,,,3247.6397795040007,3244.1057795040006,
188,13,22,f,1,4,180.0,28,3,high,8 - 7 + 9 + 1 + 4,15,15,14,16,3257.952245300001,3259.9796792,3261.4950253000006,3266.5135152000003,3267.0213547000003,3267.021359800001,3268.5379735000006,3269.5552138000003,q,15.0,0.5078395000000455,1,+10,864,12.452215368260589,0.6455287742002422,-6.811000644080332,2792847.0,14.054972905487148,-0.401316315644209,-0.01665598498996257,2796381.0,,,,,3261.4907795040003,3257.9567795040007,
189,13,22,f,1,4,181.0,29,3,high,4 + 8 - 9 + 1 + 7,11,9,11,13,3271.0720212,3273.0955094,3274.610763300001,3279.631540300001,3280.4213698000003,3280.421374900001,3281.9380392000003,3282.9554868,w,11.0,0.7898294999995414,1,+10,874,-19.3824439917519,0.4278862966691168,-0.02859390878996315,2805963.0,-19.89967683181756,0.9818673478791915,0.05456370326550619,2809498.0,,,,,3274.6077795040005,3271.0727795040007,
190,13,22,f,1,4,182.0,30,4,high,2 + 9 - 4 + 8 + 7,22,21,23,22,3284.472558900001,3286.4978321,3288.0131022000005,3293.0321397000007,3293.557270400001,3293.5572756,3295.073727500001,3296.0909538,e,22.0,0.5251306999998633,1,+10,884,-25.025561256195864,1.452898616029457,-0.08283684438197492,2819365.0,-13.423447078337471,-0.4839365954995767,-0.37572246237807816,2822899.0,,,,,3288.0087795040004,3284.4747795040003,
191,13,22,f,1,4,183.0,31,1,high,5 + 1 + 1 + 6 + 1,14,13,14,16,3297.6075937000005,3299.634139,3301.1493704000004,3306.1670756999997,3306.6772124,3306.6772172,3308.1935384000008,3309.2107276000006,q,13.0,0.5101367000006576,0,+0,884,-10.74863927121113,0.42119230617762327,0.25723276467226475,2832502.0,-13.878119990340311,0.8671274532106192,0.03532247610550643,2836035.0,,,,,3301.1447795040003,3297.6117795040004,
192,13,22,f,1,4,184.0,32,4,low,4 + 7 + 8 - 3 + 9,25,26,25,24,3310.7275921,3312.755533900001,3314.2703848,3319.2894498999995,3322.0932371,3322.0932426,3323.609343,3324.626542,e,24.0,2.8037872000004427,0,+0,884,8.731933167188933,-1.551496062988054,0.28421728096623244,2845623.0,12.464823686738896,0.40810065861887956,0.43138326599440013,2849157.0,,,,,3314.2667795040006,3310.7327795040005,
193,13,22,f,1,4,185.0,33,3,high,8 + 3 + 1 - 7 + 9,14,12,14,15,3326.1429959,3328.1708702,3329.685964100001,3334.7061466,3335.9092865,3335.9092920000003,3337.4259403,3338.4432294,w,14.0,1.2031399000006786,1,+10,894,35.767476743287475,-0.1909783324051002,-0.521473523925903,2861038.0,11.924218498604416,0.0815219397943574,0.08829065464314034,2864573.0,,,,,3329.6827795040003,3326.1477795040005,
194,13,22,f,1,4,186.0,34,2,low,4 + 1 + 9 + 1 - 6,9,8,9,7,3339.9599003000003,3341.9878807000005,3343.502330700001,3348.5202886000006,3350.9412992,3350.9413048999995,3352.4583315,3353.4752702000005,w,9.0,2.421010599999136,1,+1,895,66.26330255480411,-0.1625659231074419,-0.09273245472169167,2874855.0,-6.423148591287315,-1.0067293893556712,0.33092419979889387,2878388.0,,,,,3343.4977795040004,3339.9647795040005,
195,13,22,f,1,4,187.0,35,2,low,6 + 1 + 7 + 5 - 1,18,16,18,17,3354.9921321,3357.0159809,3358.531100800001,3363.5497573,3363.9732573,3363.9732623,3365.4899164,3366.5068453000004,w,18.0,0.4235000000007858,1,+1,896,15.738683642323991,0.28815554163161927,-0.0019103840109484516,2889884.0,-2.369845584169357,0.9181772660135268,0.11114620562312805,2893417.0,,,,,3358.5267795040004,3354.9937795040005,
196,13,22,f,1,4,188.0,36,1,high,5 + 6 + 1 + 1 + 1,14,13,14,16,3368.0235611000007,3370.0479297,3371.5626557,3376.5805342000003,3378.1891745,3378.1891794000003,3379.7056042000004,3380.7232122000005,w,14.0,1.608640299999024,1,+10,906,25.481587054360812,1.0455053574658084,0.07943111780222001,2902915.0,0.5096089371835211,-0.7528066504577415,0.25046247730919147,2906448.0,,,,,3371.5577795040003,3368.0247795040004,
197,13,22,f,1,4,189.0,37,4,low,3 + 8 - 7 + 9 - 5,8,8,7,9,3382.2399506,3384.2684205000005,3385.7835675999995,3390.8023950000006,3391.3650949000003,3391.3650997000004,3392.8821161,3393.899682200001,q,8.0,0.5626998999996431,1,+1,907,-3.519354021945558,0.5627471080452358,0.4618756458192612,2917136.0,10.062969178906084,0.648416396146005,-0.11366207194429823,2920669.0,,,,,3385.7787795040003,3382.2457795040004,
198,13,22,f,1,5,190.0,0,4,high,8 + 5 - 4 + 7 + 9,25,24,25,26,3413.120906300001,3415.1477405999995,3416.662741100001,3421.6829571,3422.1011201,3422.1011253,3423.6173385,3424.6340980999994,w,25.0,0.4181630000002769,1,+10,917,16.141892784851066,0.6450398763563427,-0.0005610798025239561,2948015.0,-0.547514668549951,1.4115172339790565,-0.39912867715959743,2951550.0,,,,,3416.6597795040007,3413.1247795040003,
199,13,22,f,1,5,191.0,1,4,low,5 + 8 - 4 - 6 + 9,12,14,12,13,3426.1507642,3428.1778619,3429.6930209,3434.7111372,3435.6050613000007,3435.6050662,3437.1214849000007,3438.1383981,w,12.0,0.8939241000007314,1,+1,918,-5.321272225006524,0.08476421724618355,0.09211027025504537,2961045.0,24.356954394316343,0.29370593195175854,0.22998098761946695,2964578.0,,,,,3429.6877795040004,3426.1547795040005,
