,id,age,sex,cued,block,trial,trialinblock,efflev,rewlev,calc,corAns,option1,option2,option3,tstart,ITI1Time,probTime,respTime,selectTime,ITI2Time,fbTime,ITI3Time,key_press,chosenAns,RT,acc,feedback,total_points,cuescr,cuecor,cuezyg,cuetime,probscr,probcor,probzyg,probtime,fbscr,fbcor,fbzyg,fbtime,probtime_c,cuetime_c,fbtime_c
0,15,22,F,0,Practice,,0,1,0,4 + 1 + 9 + 1 + 1,16,14,15,16,79.79686500001117,,79.79686720001337,84.90377660001104,94.00904550000269,94.00905200000852,95.52646180000738,96.5486712000129,e,16.0,9.105268899991644,1,Correct,0,,,,,29.191453505606347,0.47190076107530476,0.23562114538680845,78417.0,-18.08716624183763,0.3318723608229375,-0.4250586290878804,94062.0,79.88942705150691,,95.53442705150691
1,15,22,F,0,Practice,,1,1,0,3 + 1 + 1 + 8 - 1,12,12,11,10,98.06683060000069,,98.06683350000822,103.10393910000856,104.32109650000348,104.32110290000855,105.83801700000186,106.85618120001163,q,12.0,1.2171573999949032,1,Correct,0,,,,,1.00583906614661,0.6154067033331327,7.200987794271898,96618.0,-34.48764675012161,-0.05488163813306057,0.4736155326140956,104370.0,98.09042705150691,,105.84242705150692
2,15,22,F,0,Practice,,2,2,0,8 + 1 + 6 + 1 - 4,12,11,10,12,108.37392720000936,,108.3739329000091,113.39423960000568,116.56910510000309,116.56911100000434,118.08648240000184,119.10467570000036,e,12.0,3.174865499997395,1,Correct,0,,,,,-22.00685702598653,-2.47168823468191,-1.8361062118186382,106908.0,-6.846002470811683,0.3353678841668619,1.62362868928964,116618.0,108.38042705150691,,118.09042705150691
3,15,22,F,0,Practice,,3,2,0,9 + 4 - 6 + 1 - 1,7,7,6,5,120.62171800000942,,120.62172100000316,125.64079140000104,133.93686810000509,133.93687420000788,135.4536245000054,136.4713683000009,q,7.0,8.29607670000405,1,Correct,0,,,,,1.580819581051708,0.4382873053681018,0.29523322609587765,119155.0,-35.37217097520208,0.21852718332844367,0.3391870936919372,133985.0,120.62742705150691,,135.45742705150693
4,15,22,F,0,Practice,,4,3,0,9 + 3 - 5 + 6 + 7,20,22,20,21,137.9886633000133,,137.98866630000705,143.00962840000284,150.4089445999998,150.40895140000794,151.92590820000623,152.94485670000722,w,20.0,7.399316199996974,1,Correct,0,,,,,-27.444818849908938,1.556795441474525,3.921353465334736,136523.0,-49.34235761861977,0.6417482506364349,0.5120033167453286,150458.0,137.9954270515069,,151.9304270515069
5,15,22,F,0,Practice,,5,3,0,2 + 1 + 9 - 7 + 6,11,9,11,10,154.46255540000857,,154.46255830000155,159.48226450000948,162.5608823000075,162.56088870001258,164.07770750000782,165.0958387999999,w,11.0,3.078617799998028,1,Correct,0,,,,,-0.42116063414607474,-1.1021938647128513,-0.05654261427564666,152996.0,15.731817221364683,-0.060003713029720185,0.05551362768819246,162609.0,154.46842705150692,,164.08142705150692
6,15,22,F,0,Practice,,6,4,0,4 + 8 + 5 - 3 + 7,21,21,22,23,166.6128996000043,,166.61290270001336,171.63337790001242,177.28892990000895,177.28893570000946,178.80598080001073,179.82708950000233,w,22.0,5.655551999996533,0,Incorrect,0,,,,,-16.412726493230036,0.24621058174387622,0.09646014383733537,165147.0,0.7135906095871807,0.6296230778938623,0.29628030877970524,177340.0,166.6194270515069,,178.81242705150692
7,15,22,F,0,Practice,,7,4,0,5 + 8 - 4 + 6 + 9,24,23,24,22,181.344167400006,,181.34417050000047,186.3634233000048,193.1609551000001,193.1609618000075,194.67800960000025,195.69589960000303,q,23.0,6.79753179999534,0,Incorrect,0,,,,,1.1914281921616272,-0.24086409150757015,-0.40276797364469763,179877.0,-46.41364022762892,0.5310192841381589,-2.2297735696403516,193209.0,181.34942705150692,,194.68142705150692
8,15,22,F,1,0,0.0,0,3,high,8 + 4 + 1 - 7 + 9,15,13,15,16,347.67841160000535,349.709874600012,351.2251727000112,356.2438416000077,361.26172940000833,361.26173180001206,362.7782236000057,363.8006794000103,,,,0,Too Slow!,0,-1.8395920511631685,0.031505083143539725,-2.8991729316489634,346223.0,-6.870392511141722,0.13200802887187768,1.2549632303055764,349757.0,5.916153983685662,0.06830683868599507,0.525117724349446,361314.0,351.2294270515069,347.6954270515069,362.7864270515069
9,15,22,F,1,0,1.0,1,4,high,9 + 8 - 5 - 7 + 6,11,11,10,13,365.3183759000094,367.3555196000089,368.8729508000106,373.891506800006,378.91110650000337,378.9111090000079,380.4280559000035,381.447965600004,,,,0,Too Slow!,0,-5.513592487631875,0.1953715802997995,0.3537519150884645,363869.0,-2.8088800730563057,0.264389085290877,0.21369587339649554,367404.0,-7.972942824905289,0.5408867620235045,-0.6346169730946176,378961.0,368.8764270515069,365.3414270515069,380.4334270515069
10,15,22,F,1,0,2.0,2,3,high,5 + 6 - 4 - 1 + 7,13,14,13,15,382.96488930001215,384.9868153999996,386.5021293000027,391.5219230000075,393.9903384000063,393.99034360000223,395.5075360000046,396.5249646000011,w,13.0,2.468415399998776,1,+10,10,11.672520128013046,0.7417166266555937,0.40611522782541876,381500.0,10.517619910784402,0.0643289947238852,0.3240267907964789,385035.0,-6.235013486428958,0.4977187095582276,0.34257164343512114,426083.0,386.5074270515069,382.9724270515069,427.5554270515069
11,15,22,F,1,0,3.0,3,1,high,2 + 1 + 1 + 9 - 1,12,13,11,12,398.0418611000059,400.0818282000109,401.5960469000129,406.6140712000051,408.3982357000059,408.3982405000133,409.9143042000069,410.93153830000665,e,12.0,1.7841645000007702,1,+10,20,-20.04506607181331,0.23789620240602605,-0.4289089398592032,396595.0,7.691065311875086,0.2719335651594552,0.21382343881921173,400127.0,-12.461237437416873,0.3631863945101692,-0.11725658072382217,2922040.0,401.5994270515069,398.0674270515069,2923.512427051507
12,15,22,F,1,0,4.0,4,3,low,7 + 5 + 9 + 1 - 6,16,15,16,14,412.44910230000096,414.4843805000128,415.9995629000041,421.01817180000944,426.03547160000016,426.0354744000069,427.5520650000108,428.570996200011,,,,0,Too Slow!,20,-5.110328775143506,1.0246134257428698,2.5698729988544264,410997.0,-44.24840677534349,0.3294022331339115,0.12163707059097639,414531.0,,,,,416.0034270515069,412.4694270515069,
13,15,22,F,1,0,5.0,5,1,low,4 + 1 + 1 + 7 - 1,12,13,12,14,430.08789130000514,432.1156430000119,433.6308194000012,438.6507916000119,443.1662316000002,443.1662372000137,444.6829507000075,445.69990060001146,w,12.0,4.515439999988303,1,+1,21,36.21035034851603,0.4777617800449425,0.0858178339705522,428628.0,-36.27888622935211,0.2233341267842186,-0.27969528333398985,432164.0,,,,,433.63642705150687,430.10042705150687,
14,15,22,F,1,0,6.0,6,1,low,3 + 1 + 8 + 1 + 1,14,14,13,12,447.2166494000121,449.2427596000052,450.75818220000656,455.7761995000037,456.7983277000021,456.7983329000126,458.3155150000093,459.3322251000063,q,14.0,1.0221281999984058,1,+1,22,-20.09446318562359,0.5217878203849451,-0.03162631399650939,445755.0,8.485697800181,-0.37996654330288204,0.006247697880344294,449289.0,,,,,450.76142705150687,447.2274270515069,
15,15,22,F,1,0,7.0,7,1,low,4 + 8 + 1 - 1 - 1,11,11,13,9,460.8488467999996,462.8750507000077,464.3906340000103,469.40870660000655,470.3582752000075,470.35828030000266,471.8751054000022,472.8919920000044,q,11.0,0.94956860000093,1,+1,23,6.8707604636316715,0.29193414445846577,0.47466494103000256,459388.0,24.732738126253953,-0.34389763820423913,0.017537580278503828,462922.0,,,,,464.3944270515069,460.86042705150686,
16,15,22,F,1,0,8.0,8,2,low,4 + 7 + 1 + 1 - 8,5,5,7,4,474.4089071000053,476.4413156000082,477.95630320000055,482.9763494000072,484.5741723000101,484.5741773000045,486.0908119000087,487.10831770001096,q,5.0,1.5978229000029387,1,+1,24,-1.8152051851654,-2.5036828549357577,-3.6695116848995486,472954.0,-1.7269428690658621,0.00633069806741382,-0.25778461218757265,476489.0,,,,,477.96142705150686,474.4264270515069,
17,15,22,F,1,0,9.0,9,1,low,7 + 1 + 4 + 1 - 1,12,12,11,13,488.62516790001246,490.6498974999995,492.16424880000704,497.1843451000023,500.3981876000034,500.39819280001393,501.914823900006,502.9319897000096,e,13.0,3.213842500001192,0,+0,24,-0.41634139908872836,0.521899801341202,1.467659958334313,487163.0,12.654527348137462,0.40303964540525405,-0.039997013622698585,490697.0,,,,,492.1694270515069,488.6354270515069,
18,15,22,F,1,0,10.0,10,1,high,7 + 1 + 4 + 1 - 1,12,11,13,12,504.44893969999976,506.47562900000776,507.99088300000585,513.0094343000092,515.5101899000001,515.5101957000006,517.0270239000092,518.0450189000112,e,12.0,2.5007555999909528,1,+10,34,4.905464161755276,1.4155245148322848,-0.03582149760492692,502988.0,-12.431093880239608,0.24249506727847958,-0.03898706782522421,506522.0,,,,,507.9944270515069,504.4604270515069,
19,15,22,F,1,0,11.0,11,4,high,5 + 7 - 4 + 6 + 9,23,25,23,24,519.5617006000102,521.5865757000138,523.101762300008,528.120404900008,529.1261762000067,529.1261814000027,530.6422230000026,531.6590468000068,w,23.0,1.0057712999987416,1,+10,44,2.637773587883928,-0.2091563708554891,-1.9205769674569853,518099.0,2.555793828927012,0.424196589241018,0.20577483950718767,521633.0,,,,,523.1054270515069,519.5714270515069,
20,15,22,F,1,0,12.0,12,4,low,8 + 4 + 7 - 5 - 6,8,9,8,7,533.175601400013,535.2089176000009,536.7242012000061,541.7432128000073,546.2862070000119,546.2862122000079,547.8029580000002,548.8197822000075,w,8.0,4.542994200004614,1,+1,45,-8.201376879254324,0.005637396996374999,-1.9377444202333542,531721.0,16.550435009347247,0.11020139277461061,0.24231589677599752,535256.0,,,,,536.7284270515069,533.1934270515069,
21,15,22,F,1,0,13.0,13,3,high,5 + 6 - 4 - 1 + 8,14,16,14,15,550.3365077000053,552.3630944000033,553.878423400005,558.8976672000135,563.4782203000068,563.4782269999996,564.9950256000011,566.0126624000113,e,15.0,4.580553099993267,0,+0,45,30.17324623573836,1.4103670778186101,1.4493097823169752,548875.0,-15.446539358039319,0.25210495666152166,-4.927601139143079,552410.0,,,,,553.8824270515069,550.3474270515069,
22,15,22,F,1,0,14.0,14,2,high,9 + 6 + 1 + 7 + 1,24,23,24,25,567.5296135000099,569.5651817000034,571.080566900011,576.098802700013,577.1180837000138,577.1180886000075,578.6349241000134,579.6522638000024,w,24.0,1.019281000000774,1,+10,55,-4.82824855141741,-1.2404355597866696,-2.784442714682141,566077.0,-5.142628992529554,0.15682737403063784,-0.0012919694865018982,569611.0,,,,,571.0834270515069,567.5494270515069,
23,15,22,F,1,0,15.0,15,3,high,7 - 6 + 8 + 1 + 7,17,17,15,16,581.1692523000092,583.1952679000096,584.7105484000058,589.7294992000097,590.5181999000051,590.5182048000133,592.0343345000001,593.051435500005,q,17.0,0.7887006999953883,1,+10,65,-5.483328911003692,2.051417971007453,-0.16168277861180114,579708.0,13.829277842367407,0.04729921475315946,0.07433196115348206,583241.0,,,,,584.7134270515069,581.1804270515069,
24,15,22,F,1,0,16.0,16,1,high,6 + 9 + 1 + 1 - 1,16,16,14,15,594.5681677000102,596.5919936999999,598.1073542000086,603.126459600011,603.9741471000016,603.9741523000121,605.4907867000002,606.5083883000043,q,16.0,0.8476874999905704,1,+10,75,10.217818915460079,0.14012020874196507,-0.28061030397204245,593104.0,4.338974679834628,-0.042433062220296414,-0.15936195592681823,596638.0,,,,,598.1104270515069,594.5764270515069,
25,15,22,F,1,0,17.0,17,2,low,7 + 6 + 1 + 8 + 1,23,22,21,23,608.0251611000131,610.0499415000086,611.565122,616.5836392000056,619.4860424000071,619.4860478000046,621.0025943000073,622.0195315000019,e,23.0,2.9024032000015723,1,+1,76,-8.040351766458404,0.38474421174457385,0.09003665110515957,606562.0,-9.284029377104915,3.8387608753808693,13.494144448103532,610096.0,,,,,611.5684270515069,608.0344270515069,
26,15,22,F,1,0,18.0,18,2,low,7 + 5 + 1 + 9 + 1,23,23,21,22,623.5362153000024,625.5636691000109,627.0787043000018,632.0969522000087,633.1261215000122,633.1261268000089,634.6427383000118,635.6596620000055,q,23.0,1.029169300003559,1,+1,77,-35.49398186884889,-0.007216015649580854,-0.20900751871282175,622076.0,14.075679284440705,0.18846227473339616,0.035215973048515536,625609.0,,,,,627.0814270515069,623.5484270515069,
27,15,22,F,1,0,19.0,19,1,high,2 + 9 + 1 + 1 + 1,14,13,14,12,637.1764825000137,639.203112800009,640.7181628000108,645.7371447000041,646.9979973000009,646.9980020000075,648.5147612000001,649.5315046000032,w,14.0,1.2608525999967242,1,+10,87,-1.5819519215717437,0.528102507185406,-0.014571295700126274,635715.0,14.824415130373573,-0.8363483062269421,-0.7842283581242651,639249.0,,,,,640.7214270515069,637.1874270515069,
28,15,22,F,1,0,20.0,20,4,low,2 + 9 - 6 + 8 - 4,9,7,9,11,651.0482767000067,653.0753869000037,654.5908469000133,659.6091687000007,661.0859827000095,661.0859877000039,662.6033725000016,663.6206691000116,w,9.0,1.4768140000087442,1,+1,88,12.736279441326502,0.2798207037005396,-0.14778757561557887,649588.0,16.026839874412502,0.34316182085765634,0.14556044811327196,653121.0,,,,,654.5934270515069,651.0604270515068,
29,15,22,F,1,0,21.0,21,4,high,9 + 4 - 6 + 8 + 7,22,24,21,22,665.137696500009,667.1636364000005,668.6790464000078,673.6991506000049,676.5420206000126,676.5420258000086,678.0585104000056,679.0756254000007,q,24.0,2.8428700000076788,0,+0,88,-19.00621688643114,0.32980556018520835,2.061152465565128,663676.0,3.8523829675987193,0.9501842764743611,1.9859306923784863,667211.0,,,,,668.6834270515069,665.1484270515069,
30,15,22,F,1,0,22.0,22,4,high,8 + 3 - 4 + 5 + 9,21,22,21,23,680.5923585000128,682.6167819000111,684.1320583000052,689.150824100012,691.917897700012,691.9179028000071,693.4346824000095,694.4519215000037,w,21.0,2.767073600000004,1,+10,98,-26.440142611483086,-0.8654770783392904,-0.09985523002872387,679129.0,2.950238565515802,-0.08144805236074815,0.014198774614362364,682662.0,,,,,684.1344270515069,680.6014270515069,
31,15,22,F,1,0,23.0,23,3,high,9 - 1 + 5 - 6 + 8,15,14,17,15,695.9687062000012,697.9934560000111,699.5086156000034,704.5273679000093,708.4219023000041,708.4219075000001,709.938959600011,710.9568281000102,q,14.0,3.894534399994882,0,+0,98,16.985527691982846,1.2882050111157524,0.1004281096416797,694505.0,-47.44348434183178,-0.007551706248586143,0.22782996752436313,698039.0,,,,,699.5114270515069,695.9774270515069,
32,15,22,F,1,0,24.0,24,1,high,6 + 1 + 8 + 1 + 1,17,15,17,16,712.4735564000002,714.4996571000083,716.0149613000103,721.0342184000037,722.0060020000092,722.0060071000044,723.5223228000104,724.5392527000076,w,17.0,0.9717836000054376,1,+10,108,2.0154418001958874,3.3944843377332394,7.482982920649757,711012.0,4.600174652786816,0.2677895347937642,0.18075114737553033,714546.0,,,,,716.0184270515069,712.4844270515068,
33,15,22,F,1,0,25.0,25,3,low,2 + 1 + 9 - 4 + 6,14,14,16,15,726.0562841000065,728.081002100007,729.5967660000024,734.6158882000018,738.8059731000103,738.805978000004,740.3230962000089,741.3400566000055,q,14.0,4.1900849000085145,1,+1,109,-10.183000719175503,0.40022003745013013,0.0494552187822217,724593.0,-1.9968406156731984,0.18595068678203774,0.024209032210802395,728128.0,,,,,729.6004270515069,726.0654270515068,
34,15,22,F,1,0,26.0,26,2,low,3 - 1 + 9 - 5 + 1,7,6,7,5,742.8568610000075,744.8848069000087,746.4000978000113,751.4183680000133,754.1499578000075,754.149963200005,755.6667108000111,756.683841200007,w,7.0,2.7315897999942536,1,+1,110,-48.83078481642951,-0.052864637621230504,-0.9104648961516668,741396.0,-1.5695397703740994,0.1269816340425458,-0.2602551638709629,744930.0,,,,,746.4024270515068,742.8684270515068,
35,15,22,F,1,0,27.0,27,2,high,9 + 1 + 6 + 7 + 1,24,23,24,25,758.2006658000028,760.2261975000001,761.7415949000133,766.7605904000084,769.6378626000078,769.6378674000007,771.1540405000123,772.1712422000128,w,24.0,2.8772721999994246,1,+10,120,17.232006607139173,0.41847615945805705,0.31705448347179965,756738.0,11.78954017745895,0.46754794295739344,-0.4058147210954117,760272.0,,,,,761.7444270515069,758.2104270515069,
36,15,22,F,1,0,28.0,28,2,low,9 + 4 - 6 + 1 - 1,7,9,8,7,773.6879924000095,775.7159607000067,777.2311184000137,782.2500297000079,784.4859419000131,784.4859471000091,786.0025595000043,787.0196667000127,w,8.0,2.23591220000526,0,+0,120,12.626233426730769,0.5003404944295629,0.5722666859677692,772228.0,10.525264703899923,0.3942330170504236,0.8498797410163426,775761.0,,,,,777.2334270515069,773.7004270515068,
37,15,22,F,1,0,29.0,29,4,low,7 + 6 + 8 - 4 + 5,22,21,22,23,788.536456700007,790.5628957000008,792.0781286000129,797.0978081000067,799.821901400006,799.821907000005,801.3382824,802.3554890000087,q,21.0,2.7240932999993674,0,+0,120,20.342722184444607,-5.322117001070111,-11.662862493294288,787074.0,6.026288790301473,-0.01230529943765779,0.35490976776270555,790610.0,,,,,792.0824270515069,788.5464270515068,
38,15,22,F,1,0,30.0,30,3,high,8 + 5 + 1 - 7 + 9,16,14,16,17,803.8725154000131,805.9001448000054,807.4144086000015,812.4337515000079,813.3819065000134,813.3819117000094,814.8984760000021,815.9156272000109,w,16.0,0.9481550000054996,1,+10,130,8.400844459740906,0.43611101959519494,0.04976932712941773,802412.0,1.8106711656097112,0.08808189363589936,0.030866055447665186,805944.0,,,,,807.4164270515068,803.8844270515069,
39,15,22,F,1,0,31.0,31,4,high,9 + 3 - 5 + 8 + 6,21,19,23,21,817.4324051000003,819.4565607000113,820.9727505000046,825.9908602000069,829.8137931000092,829.8137982000044,831.3301216000109,832.3470312000136,q,19.0,3.822932900002343,0,+0,130,-0.4482239009192668,0.4248802885323608,-0.4002415795812735,815968.0,26.72640690147953,0.31971594854165586,0.3918676848298137,819503.0,,,,,820.9754270515069,817.4404270515068,
40,15,22,F,1,0,32.0,32,2,low,9 + 6 + 1 + 7 + 1,24,23,25,24,833.8634455000138,835.8904241000128,837.4056263000093,842.4238751000084,843.7257887000014,843.7257937000104,845.2421957000042,846.2591491000057,e,24.0,1.3019135999929858,1,+1,131,-11.193248661339897,0.47782387920101943,0.3974944265344935,832402.0,-16.805723573350516,-0.9161912941835775,-2.350776767411923,835935.0,,,,,837.4074270515068,833.8744270515069,
41,15,22,F,1,0,33.0,33,2,low,5 + 7 - 8 + 1 + 1,6,8,7,6,847.7762008999998,849.80185850001,851.3171239000076,856.335948100008,861.2858265000104,861.285832300011,862.8025073000026,863.8193551000004,e,6.0,4.94987840000249,1,+1,132,-14.389116239698458,0.3279263394066365,0.35135947846174487,846313.0,10.079187108092167,0.9967137579728398,-0.3169891560177871,849847.0,,,,,851.3194270515069,847.7854270515069,
42,15,22,F,1,0,34.0,34,4,low,8 + 4 - 5 + 7 - 6,8,6,8,7,865.3361686000135,867.3622274000081,868.8774675000022,873.897558800003,877.7179947000113,877.7180002000096,879.2344358000119,880.2516083000082,q,6.0,3.820435900008306,0,+0,132,19.45330565789515,-0.283687135386826,0.5302758779309018,863873.0,-30.33608686047811,-0.8093406096991385,0.11576720431190379,867409.0,,,,,868.8814270515069,865.3454270515069,
43,15,22,F,1,0,35.0,35,3,low,8 - 1 + 6 - 7 + 5,11,11,13,12,881.7683853000053,883.7928180000017,885.3080119000078,890.3266478000005,891.2617179000081,891.2617226000002,892.7782501000038,893.7953160000034,q,11.0,0.9350701000075788,1,+1,133,0.5359185277398772,1.9816269442202485,5.724450825282231,880304.0,17.83790440534809,0.5869962032759315,1.7720907640776709,883838.0,,,,,885.3104270515068,881.7764270515069,
44,15,22,F,1,0,36.0,36,1,high,8 - 1 + 1 + 6 + 1,15,15,16,14,895.3121578999999,897.3375498000096,898.8527455000003,903.8710696000052,904.693756800014,904.69376200001,906.2101035000088,907.2264698000072,q,15.0,0.8226872000086587,1,+10,143,-56.867310457874424,0.6866117383880137,0.39260004419624916,893849.0,12.20346382403821,-0.10004724261582054,0.9315375195621107,897382.0,,,,,898.8544270515068,895.3214270515069,
45,15,22,F,1,0,37.0,37,4,low,5 + 8 - 4 - 6 + 9,12,12,13,14,908.7432207000091,910.7674957000128,912.282474800013,917.3017522000008,918.077726500007,918.0777485,919.594014000002,920.6108164000034,q,12.0,0.7759743000060553,1,+1,144,1.4588020282638219,0.07069094288608024,-0.8654645084839534,907279.0,-29.24624416826279,-0.2421045789514844,-0.15544405293192387,910813.0,,,,,912.2854270515069,908.7514270515069,
46,15,22,F,1,1,38.0,0,2,low,7 + 6 + 1 - 1 - 8,5,5,3,4,970.2422904000124,972.2689127000048,973.7840279000084,978.8038753,982.2456387000128,982.2456437000072,983.7627553000056,984.7799490000034,q,5.0,3.44176340001286,1,+1,145,18.47919242314568,0.2679645905004562,-4.38312420425746,968780.0,-6.027041185548445,0.6692705843444855,0.019687699983299556,972315.0,,,,,973.7874270515069,970.2524270515069,
47,15,22,F,1,1,39.0,1,2,high,6 + 1 + 7 + 5 - 1,18,18,16,17,986.2967620000128,988.3239405000058,989.8393252000096,994.8593312000012,996.7095433000068,996.7095482000004,998.2265214000072,999.2442985000088,q,18.0,1.850212100005592,1,+10,155,21.079136241505662,0.7400808275257782,-0.115287548954357,984834.0,13.210514031847882,0.051984317987029405,0.12645926820972253,988370.0,,,,,989.8424270515069,986.3064270515068,
48,15,22,F,1,1,40.0,2,1,low,6 + 9 + 1 + 1 - 1,16,14,15,16,1000.7613928000064,1002.787292500012,1004.3025152000046,1009.3206999000104,1011.5336632000108,1011.5336686000082,1013.0510885000112,1014.0682502000128,e,16.0,2.2129633000004105,1,+1,156,29.437324233017826,0.916765358573499,0.0001803386292920095,999298.0,-17.27699274610615,0.1848038858855563,0.24476290384843225,1002832.0,,,,,1004.3044270515069,1000.7704270515069,
49,15,22,F,1,1,41.0,3,1,low,8 + 1 + 1 + 1 - 4,7,8,7,5,1015.5846806000044,1017.6084711000004,1019.1237137000136,1024.1422328000044,1026.8696762000036,1026.869681300013,1028.3864912000136,1029.4037402000104,e,5.0,2.7274433999991743,0,+0,156,4.4826564615592055,0.2798187844102249,0.26014123261244704,1014119.0,-29.123370224575076,-0.24752119365154446,-1.6132186605733798,1017653.0,,,,,1019.1254270515069,1015.5914270515069,
50,15,22,F,1,1,42.0,4,3,low,3 + 1 + 8 - 5 + 6,13,13,14,15,1030.9205817000038,1032.945964100014,1034.4613911000051,1039.480259600008,1042.7336597000103,1042.7336648000055,1044.2501841000048,1045.2673633000086,q,13.0,3.2534001000021817,1,+1,157,9.548557828766924,0.43409224634944255,0.4389071709354231,1029457.0,-32.22391104659681,0.033149287728151844,0.4145711002734185,1032991.0,,,,,1034.4634270515069,1030.929427051507,
51,15,22,F,1,1,43.0,5,2,high,2 + 1 + 9 - 4 + 1,9,8,9,11,1046.7842176000122,1048.8084487000017,1050.3236194000056,1055.341772800006,1059.7734919000068,1059.773497400005,1061.2899423000054,1062.3071984000126,q,8.0,4.431719100000919,0,+0,157,-12.617343725447382,0.38013927178010376,-0.16039085860893953,1045319.0,31.5359406609291,0.08220623734080301,0.05623719392313831,1048852.0,,,,,1050.324427051507,1046.7914270515068,
52,15,22,F,1,1,44.0,6,3,low,3 + 1 + 8 - 5 + 9,16,15,17,16,1063.8240806000103,1065.8490649000014,1067.3642873000065,1072.3845360000123,1076.7095951000083,1076.7096002000037,1078.2266467000009,1079.2435013000068,q,15.0,4.325059099995997,0,+0,157,7.3578940178206835,0.584199700518244,0.36344888696685995,1062360.0,-8.474582545103676,0.26556406158689483,-0.422974737581284,1065894.0,,,,,1067.366427051507,1063.8324270515068,
53,15,22,F,1,1,45.0,7,4,low,5 + 7 - 4 - 6 + 9,11,13,11,12,1080.760324800009,1082.7881812000123,1084.303437300012,1089.324053100005,1090.3335619000136,1090.3335668000072,1091.8500754000124,1092.866932200006,w,11.0,1.0095088000089163,1,+1,158,17.34797328106145,-0.03386875244095022,-0.07012242879659158,1079299.0,5.443745243133682,0.3345695233717454,0.17445873001369483,1082834.0,,,,,1084.306427051507,1080.7714270515069,
54,15,22,F,1,1,46.0,8,4,low,6 + 9 + 7 - 3 - 5,14,15,13,14,1094.3841108000051,1096.4056199000042,1097.9208281000028,1102.93956720001,1105.8294344000024,1105.8294400000011,1107.3458180000016,1108.3624551000105,e,14.0,2.889867199992296,1,+1,159,-6.253883419859424,0.028699504104516382,0.33663609995388155,1092916.0,-2.1632389940944856,0.08329453506676865,-0.10026712350239597,1096450.0,,,,,1097.922427051507,1094.3884270515068,
55,15,22,F,1,1,47.0,9,3,high,7 - 5 + 9 + 1 - 4,8,7,8,9,1109.8792640000029,1111.9069290000043,1113.421243500008,1118.4397762000008,1120.0854775000043,1120.0854829000018,1121.602309000009,1122.6189115000016,w,8.0,1.6457013000035658,1,+10,169,21.771903780141955,0.40594664649697254,-0.1430050232454989,1108417.0,7.189635607399472,0.07153023601646957,0.012736624736654267,1111950.0,,,,,1113.422427051507,1109.8894270515068,
56,15,22,F,1,1,48.0,10,3,high,8 + 6 - 7 + 1 - 4,4,4,5,3,1124.1356898000083,1126.160195400007,1127.675259700001,1132.6938621000008,1133.5414402000024,1133.541444900009,1135.0578692000126,1136.0752275000125,q,4.0,0.8475781000015559,1,+10,179,-6.7940786732258935,0.37242592754387127,0.6597014408401201,1122670.0,-19.3109970109876,-0.21682212335123996,-0.3558151956868527,1126204.0,,,,,1127.6764270515068,1124.142427051507,
57,15,22,F,1,1,49.0,11,2,high,4 + 9 - 7 + 1 - 1,6,6,5,8,1137.593296200008,1139.6203225000063,1141.1352926000109,1146.1539405000076,1149.5415011000005,1149.5415064000117,1151.0577122000104,1152.0749378000037,w,5.0,3.387560599992866,0,+0,179,-2.9721572599870605,0.17435789067023189,0.22210669563533925,1136130.0,-4.725762213800422,0.4982322459213213,0.6917988141171687,1139664.0,,,,,1141.1364270515069,1137.602427051507,
58,15,22,F,1,1,50.0,12,4,low,3 + 8 - 4 + 9 + 6,22,22,23,21,1153.5916305000137,1155.6165674000076,1157.1319080000103,1162.1510509000072,1164.998818100008,1164.9988232000032,1166.5149844000116,1167.5326839000045,e,21.0,2.847767200000817,0,+0,179,-30.45066594557505,0.635467593556645,0.09950860194985367,1152127.0,-4.47469207580763,-0.0023141757598643675,0.6812787916393135,1155660.0,,,,,1157.132427051507,1153.5994270515068,
59,15,22,F,1,1,51.0,13,1,high,2 + 1 + 9 + 1 + 1,14,13,12,14,1169.0496200000052,1171.0755664000026,1172.5905566,1177.6094527000096,1178.6533600000112,1178.65336560001,1180.170093000008,1181.1875727000006,e,14.0,1.0439073000015924,1,+10,189,-22.802785573497115,2.929813079375551,4.756205214243351,1167586.0,-33.288247086299364,0.3261722332067818,0.28904119526236416,1171120.0,,,,,1172.5924270515068,1169.058427051507,
60,15,22,F,1,1,52.0,14,3,low,6 + 7 + 8 + 1 - 9,13,14,15,13,1182.704604300001,1184.730260700002,1186.245661500012,1191.2644676000054,1193.373355600008,1193.3733605000016,1194.8902476000076,1195.9070264000038,e,13.0,2.10888800000248,1,+1,190,9.310310288956984,-0.15524125063982464,0.2947154317731253,1181240.0,-37.09797774699875,0.08533615046445364,0.12614597451782839,1184774.0,,,,,1186.2464270515068,1182.712427051507,
61,15,22,F,1,1,53.0,15,2,high,6 + 1 + 8 + 5 - 1,19,18,17,19,1197.4234646000114,1199.451689700014,1200.9668810000005,1205.985385100008,1209.317389600008,1209.3173947000032,1210.834080600005,1211.850920500001,w,17.0,3.332004500000039,0,+0,190,9.46854817075803,0.2222310537716634,-0.08149023659819798,1195962.0,13.535502733369801,3.3114671196516015,18.617373500300495,1199495.0,,,,,1200.9674270515068,1197.4344270515069,
62,15,22,F,1,1,54.0,16,2,low,3 + 8 - 5 + 1 + 1,8,9,6,8,1213.368405400004,1215.3956400000025,1216.9107973000064,1221.9290925000096,1223.3254610000004,1223.3254662000109,1224.843054900004,1225.8605714000005,e,8.0,1.3963684999907855,1,+1,191,14.36670321315243,-0.6631924506103859,-1.7227841875032803,1211906.0,-31.719667272013737,0.246759601975316,-0.017274042660561317,1215439.0,,,,,1216.911427051507,1213.3784270515068,
63,15,22,F,1,1,55.0,17,3,low,8 - 7 + 9 + 1 + 4,15,15,14,16,1227.3771335000056,1229.4038064000051,1230.9181731999995,1235.9365995000117,1236.781270600011,1236.7812756000058,1238.2979551000026,1239.3160640999995,e,16.0,0.8446710999996867,0,+0,191,-38.400224541494225,0.506639734919152,-2.2921982670718664,1225914.0,-15.175215904232951,0.2314319205597446,1.12209457660144,1229447.0,,,,,1230.9194270515068,1227.3864270515069,
64,15,22,F,1,1,56.0,18,2,high,7 + 1 + 9 - 1 - 8,8,6,7,8,1240.8329235000128,1242.8612075000128,1244.3762862000003,1249.3950473000004,1250.9733243000082,1250.9733291000011,1252.4899219000072,1253.5074849000084,e,8.0,1.5782770000078017,1,+10,201,25.844584694963768,-0.11944526231159758,0.21226320607395666,1239371.0,-5.002058341797479,0.2854954658586395,0.3025724987439111,1242905.0,,,,,1244.3774270515069,1240.843427051507,
65,15,22,F,1,1,57.0,19,3,high,4 + 7 + 1 + 9 - 5,16,18,16,17,1255.024234100012,1257.0509893000126,1258.5659697000085,1263.584079200009,1266.445311500007,1266.4453169000044,1267.961943500006,1268.9790939000086,w,16.0,2.861232299997937,1,+10,211,2.2937117849573756,0.18745172158399148,0.10050225858244444,1253561.0,9.252998712923473,0.5395004089665205,0.2714237447783394,1257094.0,,,,,1258.566427051507,1255.0334270515068,
66,15,22,F,1,1,58.0,20,3,high,3 + 1 + 6 - 8 + 9,11,13,11,12,1270.4958035000018,1272.5201433000038,1274.0355912000086,1279.0539572000123,1279.8453949000104,1279.845399800004,1281.3619254000075,1282.3790827000048,w,11.0,0.791437699997914,1,+10,221,5.799231138411109,0.2698794837482119,0.21376547219085174,1269030.0,16.435546951551043,-0.7681261873924625,0.5204538524315376,1272564.0,,,,,1274.036427051507,1270.5024270515069,
67,15,22,F,1,1,59.0,21,3,low,4 + 8 - 9 + 1 + 7,11,11,9,13,1283.895942800009,1285.9213641000097,1287.4369169000129,1292.4553920000037,1296.0452953000058,1296.045300200014,1297.5613744000002,1298.577998800014,q,11.0,3.5899033000023337,1,+1,222,-2.1494972384158677,0.44536899829883825,0.2524720491395831,1282431.0,22.93918385205857,0.32028191032446474,0.22034450955867646,1285965.0,,,,,1287.4374270515068,1283.903427051507,
68,15,22,F,1,1,60.0,22,2,high,5 + 1 + 7 - 6 + 1,8,7,8,6,1300.09511200001,1302.123199900001,1303.638487200005,1308.6592706000083,1309.749312,1309.7493173000112,1311.265273500001,1312.282304700013,w,8.0,1.0900413999916054,1,+10,232,-21.37912976833057,0.1827290630502616,0.15259204251916403,1298633.0,-28.59496649774953,0.08765417533279818,0.08005361066680594,1302168.0,,,,,1303.6404270515068,1300.105427051507,
69,15,22,F,1,1,61.0,23,2,low,5 - 8 + 7 + 1 + 1,6,6,7,8,1313.7992385000107,1315.8267732000097,1317.3420738000132,1322.361454500002,1325.4692945000131,1325.4692997000093,1326.9860213000063,1328.003185700014,q,6.0,3.1078400000114925,1,+1,233,-37.230098553819744,-0.17836136854749407,-1.453411929474647,1312337.0,37.0433816498764,0.27354425408404737,-0.21631969416500896,1315870.0,,,,,1317.3424270515068,1313.8094270515069,
70,15,22,F,1,1,62.0,24,3,low,2 + 9 + 1 - 5 + 7,14,14,12,15,1329.5201318000036,1331.54571820001,1333.0599946000002,1338.0801179000118,1341.7093411000096,1341.709346500007,1343.2261762000126,1344.243027500008,q,14.0,3.629223199997796,1,+1,234,-36.43554119980087,-0.18742124195349819,0.18758478334419548,1328055.0,-16.989625625189596,0.1473342170342995,-0.10947992712541943,1331590.0,,,,,1333.0624270515068,1329.527427051507,
71,15,22,F,1,1,63.0,25,1,high,4 + 7 + 1 - 1 - 1,10,10,9,11,1345.7598559000037,1347.7848924000136,1349.3001921000105,1354.3190522000075,1355.117239500003,1355.1172444000113,1356.6339758000104,1357.6512186000036,q,10.0,0.7981872999953339,1,+10,244,-15.819608800904133,0.7613168140725002,0.04151463981230785,1344294.0,0.5028045997070052,-2.208931397830809,-0.027416275843395788,1347829.0,,,,,1349.3014270515068,1345.766427051507,
72,15,22,F,1,1,64.0,26,1,low,7 + 1 + 6 + 1 + 1,16,16,18,17,1359.1681454000063,1361.1963122000016,1362.7115258000122,1367.7295807000046,1368.4052482000116,1368.4052531000052,1369.921780500008,1370.9385852000123,q,16.0,0.6756675000069663,1,+1,245,-22.661522720139438,0.7132932528939939,-3.419558106987555,1357706.0,18.7572654132198,-2.7703802937913147,0.15830527064985622,1361239.0,,,,,1362.711427051507,1359.1784270515068,
73,15,22,F,1,1,65.0,27,4,low,4 + 7 + 8 - 3 + 9,25,26,25,24,1372.4553535000014,1374.4812451000034,1375.9961025000084,1381.0161281000037,1382.6851309000049,1382.685135800013,1384.2018272000132,1385.2189254000114,e,24.0,1.6690028000011807,0,+0,245,8.246754818501463,0.08336886547850852,-0.05636549671882474,1370991.0,7.754398700760332,0.08776671840130001,-0.1328445241422651,1374526.0,,,,,1375.998427051507,1372.4634270515069,
74,15,22,F,1,1,66.0,28,2,high,6 + 1 + 1 + 7 - 9,6,8,6,4,1386.7355587000056,1388.760441800012,1390.275446700005,1395.2945013000135,1395.9011460000038,1395.9011511999995,1397.4185020000004,1398.4354427000071,w,6.0,0.6066446999902837,1,+10,255,22.75622772319385,-0.02974254520898789,-7.395562608646931,1385270.0,10.630777704346938,0.27297355536635637,0.5186288476343686,1388804.0,,,,,1390.276427051507,1386.7424270515069,
75,15,22,F,1,1,67.0,29,1,low,3 + 1 + 8 + 1 + 1,14,13,16,14,1399.9524585000036,1401.980222500002,1403.4944908000034,1408.5127733000118,1409.085074100003,1409.0850789000106,1410.601389000003,1411.6182453000074,e,14.0,0.5723007999913534,1,+1,256,25.03509813385203,0.5083445385506129,0.04924962826338586,1398490.0,-3.500338762839494,-0.05957669463789372,-0.19702784172647414,1402022.0,,,,,1403.4944270515068,1399.962427051507,
76,15,22,F,1,1,68.0,30,2,low,3 + 9 + 1 - 5 + 1,9,7,9,8,1413.1359117000102,1415.1633054000122,1416.6786723000114,1421.696905600009,1422.4611738000094,1422.4611788000038,1423.978157000005,1424.994995800007,w,9.0,0.7642682000005152,1,+1,257,-25.631496182262406,0.34149028518020086,-0.17276035095136244,1411673.0,-74.66400300539509,0.17890838420875577,-0.08074248756894686,1415206.0,,,,,1416.6784270515068,1413.1454270515069,
77,15,22,F,1,1,69.0,31,1,low,2 + 9 + 1 + 1 + 1,14,14,13,12,1426.5118127000023,1428.539804700005,1430.0551185000077,1435.0733526000113,1435.6211092000012,1435.6211145000125,1437.137615300002,1438.1544729000016,q,14.0,0.5477565999899525,1,+1,258,-22.27721672232114,1.0595658645982249,0.22423094811594657,1425049.0,22.09090242202997,0.3130408829086042,0.08340998249751275,1428583.0,,,,,1430.055427051507,1426.5214270515069,
78,15,22,F,1,1,70.0,32,3,high,6 - 1 + 7 - 8 + 9,13,12,13,11,1439.6714299000014,1441.6988452000078,1443.2140938000084,1448.232930500002,1450.9571604000084,1450.957165800006,1452.4737553000014,1453.4919261000032,e,11.0,2.7242299000063213,0,+0,258,12.44016914026478,0.2943959149189703,-0.0849257426703498,1438208.0,26.53539973745752,0.13399772866762127,0.2906914440187225,1441742.0,,,,,1443.2144270515068,1439.680427051507,
79,15,22,F,1,1,71.0,33,4,high,4 + 7 + 9 - 5 + 7,22,24,22,23,1455.0087133000052,1457.032965800012,1458.5480742000072,1463.5670272000134,1466.3331513000012,1466.3331567000132,1467.8501818000077,1468.8672793000003,w,22.0,2.766124099987792,1,+10,268,9.439321136009207,0.4549131338491317,0.8970110551712906,1453542.0,0.9323505417999591,-2.886851017428675,-0.048728186816271,1457076.0,,,,,1458.548427051507,1455.0144270515068,
80,15,22,F,1,1,72.0,34,1,high,3 + 1 + 1 + 9 - 1,13,13,12,14,1470.3845949000097,1472.4108682000078,1473.926122300007,1478.9441481000104,1479.549100900011,1479.5491062000074,1481.0658447000023,1482.083181000009,q,13.0,0.6049528000003193,1,+10,278,-4.812995852936513,0.8712426231613337,2.0064745770782224,1468920.0,-16.17778459313649,0.1682502813983624,0.37262914906855205,1472453.0,,,,,1473.9254270515069,1470.392427051507,
81,15,22,F,1,1,73.0,35,4,low,3 + 9 - 5 + 6 + 8,21,22,23,21,1483.6000569000023,1485.6275180000084,1487.142827100004,1492.1611287000123,1495.2129937000136,1495.2129984000055,1496.7296313000115,1497.746547600007,e,21.0,3.0518650000012717,1,+1,279,13.252029860169168,0.8566040950187781,0.05600805021960387,1482137.0,-51.8509812442872,-0.20011458912582203,0.11509070922765074,1485670.0,,,,,1487.142427051507,1483.6094270515068,
82,15,22,F,1,1,74.0,36,1,high,8 + 1 + 5 + 1 + 1,16,15,17,16,1499.2637030000042,1501.2914918000024,1502.8066887000025,1507.8248366000043,1508.4130853000097,1508.413090800008,1509.929765400011,1510.947016500009,e,16.0,0.5882487000053516,1,+10,289,10.921276985702018,0.26001717401579416,0.11541267479010608,1497801.0,-17.224712711178103,0.3348802283459158,0.22481480738022253,1501334.0,,,,,1502.806427051507,1499.2734270515068,
83,15,22,F,1,1,75.0,37,3,low,7 - 1 + 8 - 6 + 4,12,11,13,12,1512.4632991000108,1514.4875704000003,1516.0024706000113,1521.02121430001,1523.668988800011,1523.6689949000138,1525.1856706000108,1526.2020763000037,e,12.0,2.647774500001105,1,+1,290,5.128963201967991,0.775423882242199,0.023674241390517548,1510997.0,-8.597336552640067,0.2928308419155321,0.20172591846605714,1514530.0,,,,,1516.0024270515069,1512.469427051507,
84,15,22,F,1,2,76.0,0,4,high,2 + 9 - 4 + 8 + 7,22,22,21,23,1542.9768333000102,1545.0032347000088,1546.518432300014,1551.538532400009,1554.996962300007,1554.9969671,1556.5143336000035,1557.5304665000003,q,22.0,3.458429899998009,1,+10,300,-3.764627445995993,-0.04273308429666578,2.364845281338015,1541512.0,-9.618661307164704,-0.4181891089528911,0.4754500317686503,1545047.0,,,,,1546.519427051507,1542.9844270515068,
85,15,22,F,1,2,77.0,1,4,high,3 + 8 - 4 + 9 + 7,23,22,24,23,1559.047274100012,1561.0724438000034,1562.5876284000117,1567.6079963000084,1570.5089041000028,1570.508909000011,1572.0253216000128,1573.042936800004,e,23.0,2.9009077999944566,1,+10,310,-18.351825274250672,0.3797359106668865,-0.6136831248433201,1557581.0,-4.852315075318297,0.0931699167660307,0.12592775422810076,1561117.0,,,,,1562.5894270515068,1559.0534270515068,
86,15,22,F,1,2,78.0,2,2,high,6 + 1 + 8 + 7 - 1,21,23,19,21,1574.5594073000102,1576.5856698000134,1578.1012948000134,1583.1199470000138,1585.3488843000086,1585.3488894000038,1586.8653080000076,1587.8827935000008,e,21.0,2.228937299994868,1,+10,320,1.8517399640706902,0.4055261733046429,0.04126122932694054,1573094.0,-7.15027855618016,0.3010490098435217,-0.04876730619450598,1576629.0,,,,,1578.1014270515068,1574.566427051507,
87,15,22,F,1,2,79.0,3,4,low,2 + 9 - 3 + 5 + 8,21,22,21,23,1589.4000075000076,1591.4234836000105,1592.9384592999995,1597.956908200009,1600.2050028000083,1600.2050081000052,1601.7213625000004,1602.7382834000018,w,21.0,2.248094599999604,1,+1,321,-25.82268717769214,0.2921398178432817,0.11266159155652322,1587932.0,0.5107666123375747,0.2882242203757164,0.1096433333410971,1591465.0,,,,,1592.9374270515068,1589.404427051507,
88,15,22,F,1,2,80.0,4,3,high,4 + 1 + 8 + 9 - 5,17,19,18,17,1604.2550929999998,1606.2829548000009,1607.7978617000044,1612.816182200011,1613.4048438000027,1613.4048495000025,1614.9214412,1615.938635700004,e,17.0,0.5886615999916103,1,+10,331,17.520133676985957,0.25717052716063193,-0.44028225537757715,1602792.0,-19.01183469819401,0.2659851899713819,-0.12165179322808539,1606325.0,,,,,1607.797427051507,1604.2644270515068,
89,15,22,F,1,2,81.0,5,4,high,3 + 9 - 4 + 7 + 6,21,20,21,19,1617.4560913000023,1619.4803272000136,1620.9956179,1626.0149578000128,1629.0368862000032,1629.036891300013,1630.5535506000017,1631.5710816000064,e,19.0,3.021928399990429,0,+0,331,18.449083500975572,0.4089340231424208,0.43009730732771256,1615989.0,12.363717317509174,-1.2012312317312817,0.22383971966902516,1619523.0,,,,,1620.9954270515068,1617.461427051507,
90,15,22,F,1,2,82.0,6,3,low,5 - 1 - 4 + 6 + 7,13,14,13,15,1633.087317100013,1635.1110018000036,1636.6264413000026,1641.645049800005,1643.956873400006,1643.9568790000048,1645.4730871000063,1646.4890483000054,w,13.0,2.3118236000009347,1,+1,332,-21.9091760029858,0.2473760695221019,-1.9517915336778495,1631619.0,-0.4140554397908822,0.18380025905301522,0.555230893209,1635154.0,,,,,1636.6264270515069,1633.0914270515068,
91,15,22,F,1,2,83.0,7,4,high,8 + 5 - 4 + 7 + 9,25,24,26,25,1648.0058699000074,1650.0298305000033,1651.5450974000123,1656.5633895000065,1660.6529615000036,1660.6529668000005,1662.1696665000054,1663.1867294000112,w,26.0,4.089571999997133,0,+0,332,5.444777234946125,0.4314418338929302,0.2146628650154252,1646538.0,-45.57294738138055,0.1014491670452462,0.2551023228457905,1650072.0,,,,,1651.5444270515068,1648.010427051507,
92,15,22,F,1,2,84.0,8,4,high,7 + 8 - 4 + 6 + 5,22,21,23,22,1664.703165800005,1666.7280899000034,1668.2430431000105,1673.2628289000131,1674.508894700004,1674.5088999,1676.0255947000114,1677.0429430000077,e,22.0,1.2460657999909015,1,+10,342,13.498753062481734,-0.041079027431834,0.2180748270539956,1663236.0,22.03611776058268,-0.0934937563463385,-0.0016524263001782558,1666771.0,,,,,1668.2434270515068,1664.708427051507,
93,15,22,F,1,2,85.0,9,2,high,3 + 8 + 1 - 5 + 1,8,8,6,9,1678.5601057000022,1680.587967200001,1682.1032214000006,1687.1215334000008,1688.6448337000038,1688.6448388000135,1690.1612775000103,1691.1785646000062,q,8.0,1.5233003000030294,1,+10,352,-27.85506876179454,0.5535303448498172,0.2567636232964339,1677096.0,13.606704577537053,-0.11135505598740325,-1.1777528995543332,1680630.0,,,,,1682.102427051507,1678.568427051507,
94,15,22,F,1,2,86.0,10,1,high,5 + 1 + 1 + 6 + 1,14,13,16,14,1692.694763700012,1694.721536600002,1696.236974000014,1701.2554285000078,1702.1328114000062,1702.1328162000136,1703.649667200007,1704.6665298000007,e,14.0,0.877382899998338,1,+10,362,11.706619666737923,0.5822201493149186,0.04900920452550794,1691230.0,-8.091725382433836,-0.06485661244130725,0.3150472434612115,1694764.0,,,,,1696.2364270515068,1692.702427051507,
95,15,22,F,1,2,87.0,11,4,high,6 + 5 - 7 + 8 - 9,3,5,3,4,1706.183332600005,1708.2074485000048,1709.7226207000058,1714.7423592000123,1717.0927855000043,1717.0927905000135,1718.6091822000017,1719.62634670001,w,3.0,2.3504262999922503,1,+10,372,28.6597868571874,0.012632935883021501,0.042042587825974476,1704716.0,5.651330482232063,0.11087746291712852,0.11744546557361302,1708251.0,,,,,1709.7234270515069,1706.1884270515068,
96,15,22,F,1,2,88.0,12,3,low,3 + 8 - 7 + 1 + 9,14,14,13,12,1721.1429926000128,1723.16590800001,1724.68108200001,1729.6999084000126,1733.5647745000024,1733.564782500005,1735.081534300014,1736.0988167000032,w,13.0,3.86486609998974,0,+0,372,6.269294413946711,0.529609786756315,0.043250520843541196,1719674.0,-0.7937817300187138,-0.08416227725874714,-2.1475207578790005,1723208.0,,,,,1724.680427051507,1721.1464270515069,
97,15,22,F,1,2,89.0,13,4,high,4 + 9 - 7 + 8 + 5,19,21,20,19,1737.6152563000069,1739.640410500011,1741.1556513000105,1746.1738983000105,1749.5567908000085,1749.5567959000036,1751.073384800009,1752.09081780001,q,21.0,3.382892499997979,0,+0,372,38.413553736229446,0.26626413666900217,-0.07417300335282473,1736149.0,-36.44655446742297,0.3127115259220694,0.4787525700932891,1739682.0,,,,,1741.154427051507,1737.6214270515068,
98,15,22,F,1,2,90.0,14,4,high,6 + 9 + 7 - 3 - 5,14,13,14,12,1753.607791900009,1755.6329232999997,1757.1478265000042,1762.1678482000134,1766.0687950000138,1766.0688003000105,1767.585354900002,1768.6028224000038,w,14.0,3.900946800000384,1,+10,382,-43.39908927056241,1.5663814236887277,9.100012061615736,1752141.0,22.315232860367264,0.14307191431237531,0.517147095316822,1755676.0,,,,,1757.1484270515068,1753.613427051507,
99,15,22,F,1,2,91.0,15,4,low,5 + 8 - 6 + 7 + 4,18,19,17,18,1770.119558800012,1772.1474449000088,1773.662718500011,1778.6826689000009,1782.084789600005,1782.0847953000048,1783.6015386000072,1784.6186853000108,w,17.0,3.4021207000041613,0,+0,382,41.5266655521806,-0.3819456390189999,-2.0883404645984456,1768656.0,-4.831922810573703,-0.009628197996222276,0.2059472620725411,1772191.0,,,,,1773.663427051507,1770.1284270515068,
100,15,22,F,1,2,92.0,16,2,high,4 + 9 - 7 + 1 - 1,6,5,6,8,1786.135519100004,1788.1604047,1789.6753942000068,1794.6937807000068,1795.3886569000024,1795.3886619000114,1796.9054732000077,1797.9227229000098,e,8.0,0.6948761999956332,0,+0,382,22.80888721946581,0.7365924995084518,0.39020038725565565,1784668.0,-54.749350172507725,-0.09224064995973968,0.6289239086163505,1788202.0,,,,,1789.6744270515069,1786.1404270515068,
101,15,22,F,1,2,93.0,17,3,high,5 + 6 + 7 - 1 - 9,8,7,9,8,1799.4395005000115,1801.466026400012,1802.9801978000032,1807.9983552000049,1812.2767908000096,1812.2767961000063,1813.7933453000005,1814.809642100008,e,8.0,4.278435600004741,1,+10,392,9.602552795971052,0.6595950732587768,1.5858927789971866,1797974.0,7.995773184397125,0.19299285735723792,-0.258125584893409,1801507.0,,,,,1802.979427051507,1799.4464270515068,
102,15,22,F,1,2,94.0,18,3,high,2 + 1 + 9 - 7 + 6,11,12,13,11,1816.326392200004,1818.3497029000137,1819.8649343,1824.883706000008,1827.4847220000083,1827.484727700008,1829.001346600009,1830.018490500006,e,11.0,2.601016000000527,1,+10,402,1.6671318275451075,-0.2679532162098712,-3.0014150428297692,1814858.0,-9.112494453902361,-0.06159348067463766,-0.4728689654451954,1818392.0,,,,,1819.864427051507,1816.3304270515068,
103,15,22,F,1,2,95.0,19,1,high,5 + 6 + 1 + 1 + 1,14,16,15,14,1831.5350635000068,1833.5577545000124,1835.073070700004,1840.0913314000063,1841.2287210000068,1841.2287262000027,1842.745870800005,1843.7636889000128,e,14.0,1.1373896000004606,1,+10,412,37.46796995478887,0.3804204042474433,0.10057602126761589,1830066.0,13.187309272103446,0.04061959165672757,0.36414839743658023,1833599.0,,,,,1835.0714270515068,1831.538427051507,
104,15,22,F,1,2,96.0,20,4,low,3 + 8 - 7 + 9 - 5,8,8,7,9,1845.2804706000024,1847.30491050001,1848.8201889000047,1853.8391738000064,1854.5087206000023,1854.508725800013,1856.0253709000096,1857.0423685000133,q,8.0,0.6695467999961693,1,+1,413,-2.666458462203427,0.9736737778991977,0.14570462796776207,1843813.0,-29.783418430472874,0.4073652227331148,-0.14711394367081132,1847347.0,,,,,1848.8194270515069,1845.285427051507,
105,15,22,F,1,2,97.0,21,1,high,6 + 9 + 1 + 1 - 1,16,15,16,14,1858.5591961000027,1860.586033,1862.1019991000069,1867.1199565000131,1867.9646124000135,1867.964617900012,1869.4813987000089,1870.4984864,w,16.0,0.8446559000003617,1,+10,423,16.90285542752661,-0.08603382567454432,0.0158887344659564,1857094.0,29.489232560132397,0.332296035665147,0.5669617937750262,1860628.0,,,,,1862.1004270515068,1858.566427051507,
106,15,22,F,1,2,98.0,22,2,low,8 + 1 + 7 + 1 - 4,13,12,14,13,1872.0150364,1874.0442862000052,1875.559586300005,1880.5784409000044,1881.3406115000107,1881.3406164000044,1882.8571031000029,1883.873939700003,e,13.0,0.7621706000063568,1,+1,424,-14.981803441077478,0.9293786827929393,0.20861664041789885,1870552.0,-17.872093415089147,0.11578356381629362,0.9750903886839661,1874086.0,,,,,1875.558427051507,1872.0244270515068,
107,15,22,F,1,2,99.0,23,4,low,8 + 4 + 7 - 5 - 6,8,9,8,6,1885.390363700004,1887.4170193000027,1888.9322200000024,1893.9511190000048,1895.732640000002,1895.7326452000125,1897.2494530000115,1898.2666326000035,w,8.0,1.7815209999971555,1,+1,425,1.9720965755122446,0.12180639033007967,-0.6376452799979884,1883925.0,-2.6340033317989366,-0.013299486833863838,0.03801149855150587,1887459.0,,,,,1888.931427051507,1885.3974270515068,
108,15,22,F,1,2,100.0,24,2,high,2 + 9 - 4 + 1 + 1,9,11,8,9,1899.7833979000131,1901.8104017000005,1903.3256644000064,1908.343603100002,1909.0445410000104,1909.0445462000064,1910.5611019000064,1911.57867670001,e,9.0,0.7009379000082845,1,+10,435,4.830271394042143,0.2813535078510272,-0.030596081160957578,1898318.0,-9.66934257212258,-2.233436002396446,-13.79533888149462,1901852.0,,,,,1903.324427051507,1899.7904270515069,
109,15,22,F,1,2,101.0,25,1,high,3 + 1 + 9 + 1 + 1,15,15,14,17,1913.0953189000136,1915.1226532,1916.6377880000075,1921.6557310000064,1922.3005586000072,1922.300563200013,1923.8173713,1924.8345252,q,15.0,0.6448276000010082,1,+10,445,-40.02484921870901,0.7595687278155654,-0.12095296134184519,1911631.0,21.402006805747803,0.2700116376544255,0.5643742081007956,1915163.0,,,,,1916.635427051507,1913.103427051507,
110,15,22,F,1,2,102.0,26,1,low,9 + 8 + 1 + 1 - 1,18,20,18,17,1926.3511707,1928.3783231000125,1929.893563400008,1934.911817900007,1935.5805790000013,1935.580584200012,1937.0974171000123,1938.1142954000095,w,18.0,0.668761099994299,1,+1,446,-11.917060921909972,0.38441609790900944,-0.33339998014408145,1924886.0,-58.80426142609519,0.44829487004211255,0.4225640110900648,1928420.0,,,,,1929.892427051507,1926.3584270515069,
111,15,22,F,1,2,103.0,27,1,high,2 + 1 + 9 + 1 - 1,12,13,12,11,1939.631745900013,1941.6584992000132,1943.1737593,1948.1931473000004,1950.060521700012,1950.060526400004,1951.578036900013,1952.5949561000016,w,12.0,1.867374400011613,1,+10,456,-5.921127360520371,0.4321730416883609,0.14675502830850817,1938166.0,-19.054215910338545,0.3430492979919153,-0.04270951498271236,1941700.0,,,,,1943.172427051507,1939.6384270515068,
112,15,22,F,1,2,104.0,28,4,low,5 + 6 - 4 + 7 + 9,23,24,23,25,1954.111776500009,1956.138995100002,1957.6538816000104,1962.6726355000137,1963.3165079000028,1963.3165133,1964.8330545000065,1965.8500914000035,w,23.0,0.6438723999890499,1,+1,457,-0.6569692230601962,0.3047469619192158,1.0223187760681367,1952647.0,14.404728910634658,0.42472998712910437,-0.07535812984604595,1956180.0,,,,,1957.652427051507,1954.1194270515068,
113,15,22,F,1,2,105.0,29,1,high,4 + 9 + 1 - 1 - 1,12,12,13,11,1967.366924700007,1969.3931918000017,1970.90909690001,1975.927370800011,1976.5164736000008,1976.5164787000103,1978.033330800012,1979.051131900007,q,12.0,0.5891027999896323,1,+10,467,9.164652997182209,0.17705198505270525,0.06029310851564995,1965901.0,9.450262112449806,-0.26132478924162905,0.19835884346225763,1969435.0,,,,,1970.9074270515068,1967.373427051507,
114,15,22,F,1,2,106.0,30,3,low,3 - 7 + 5 + 1 + 9,11,11,12,13,1980.567786300002,1982.5942165000013,1984.1097439000005,1989.12806670001,1994.044418900012,1994.0444242000085,1995.5620089000004,1996.5788720000128,w,12.0,4.916352200001711,0,+0,467,-17.645174712367048,1.6944191785157652,2.1942241652429235,1979102.0,30.69409388664542,0.26570214354245314,0.24109993720892087,1982636.0,,,,,1984.1084270515069,1980.574427051507,
115,15,22,F,1,2,107.0,31,2,low,4 + 1 + 9 + 1 - 6,9,8,9,7,1998.095849800011,2000.121733800013,2001.6370199000085,2006.656097900006,2008.39647230001,2008.3964813000057,2009.9131339000012,2010.929981600013,w,9.0,1.7403744000039296,1,+1,468,-4.398163803624333,0.41461039813666734,0.33084316328712093,1996629.0,-0.766958040503507,0.19433999195165685,-0.17570668303010528,2000164.0,,,,,2001.6364270515069,1998.1014270515068,
116,15,22,F,1,2,108.0,32,1,low,8 + 1 + 1 - 1 - 4,5,6,3,5,2012.4472363000093,2014.4730130000096,2015.988866,2021.0077413000108,2021.548509100001,2021.5485153000045,2023.064995100009,2024.0818790000048,e,5.0,0.5407677999901352,1,+1,469,-0.6251931547133402,-0.019871543753033016,0.8502442172050522,2010980.0,2.2500938458618522,0.047992088715272274,-0.21641865508816505,2014516.0,,,,,2015.988427051507,2012.452427051507,
117,15,22,F,1,2,109.0,33,3,low,2 - 4 + 9 + 7 + 1,15,13,16,15,2025.599160200014,2027.6264203000028,2029.1417311000116,2034.160802600003,2037.2525546000104,2037.2525597000056,2038.768838200005,2039.7852749000008,q,13.0,3.0917520000075456,0,+0,469,-9.994174825672326,0.18703055516108757,-0.28384459879536994,2024134.0,-5.432054734637598,-0.503349638680878,-0.22352350373631324,2027668.0,,,,,2029.1404270515068,2025.606427051507,
118,15,22,F,1,2,110.0,34,2,high,4 + 8 + 1 + 1 - 5,9,11,8,9,2041.3022892000008,2043.3273464000083,2044.8425522000036,2049.861666800003,2050.3004354000004,2050.30044050001,2051.816825200003,2052.834228000007,e,9.0,0.4387685999972746,1,+10,479,-51.691292541957644,0.2399274775747373,0.2946034438766283,2039835.0,-22.84106961799404,0.07753555561221859,-1.608813013676718,2043369.0,,,,,2044.8414270515068,2041.307427051507,
119,15,22,F,1,2,111.0,35,3,low,7 + 1 + 9 + 5 - 6,16,16,14,15,2054.3507427000004,2056.3782075000054,2057.8936357000057,2062.9123723000084,2067.124395200008,2067.124400200002,2068.640872000004,2069.658570700005,e,15.0,4.212022899999283,0,+0,479,-7.2847454772325975,4.958742145174501,11.482452466930113,2052885.0,-5.834089381373975,-0.21870356794502976,-0.25015011109300644,2056420.0,,,,,2057.892427051507,2054.3574270515073,
120,15,22,F,1,2,112.0,36,4,low,3 + 9 - 5 + 8 - 7,8,9,8,7,2071.175036200002,2073.199814700012,2074.715057300011,2079.7337289000134,2081.444367300006,2081.4443723000004,2082.961370600009,2083.978571,e,7.0,1.7106383999926038,0,+0,479,3.8157784092422844,-12.984188958866957,-20.560825562888375,2069707.0,28.93474740836829,0.32280325237027085,0.011430508338271306,2073241.0,,,,,2074.713427051507,2071.179427051507,
121,15,22,F,1,2,113.0,37,4,high,5 + 7 - 4 + 8 + 6,22,22,23,24,2085.495499200013,2087.522286800013,2089.038084700005,2094.0562512000038,2097.364354800011,2097.36436040001,2098.881047600007,2099.8989235000045,q,22.0,3.3081036000075983,1,+10,489,-38.47036025921851,0.5045345809867567,0.20303057735808228,2084029.0,-8.328125869271762,0.46108184638758587,0.9285594811844016,2087564.0,,,,,2089.036427051507,2085.501427051507,
122,15,22,F,1,3,114.0,0,2,low,4 + 9 + 1 - 7 - 1,6,5,6,8,2136.6325983000133,2138.659652500006,2140.174915200012,2145.194768600006,2148.628307700012,2148.6283130000083,2150.1455005000025,2151.163136300005,e,8.0,3.433539100005873,0,+0,489,-25.56495118051786,-4.783015908516938,-18.2447503005338,2135166.0,-0.6538186068691143,-0.013269175490210783,0.6220859152865743,2138702.0,,,,,2140.1744270515073,2136.6384270515073,
123,15,22,F,1,3,115.0,1,2,high,2 + 1 + 9 - 4 + 1,9,8,11,9,2152.679628800004,2154.704461500005,2156.2196126000053,2161.2379269000085,2164.4442215000017,2164.4442298000067,2165.960929500012,2166.9783897000016,e,9.0,3.206294599993271,1,+10,499,-5.772626553631755,0.4028411971082988,-0.5472182269255637,2151211.0,4.2215383154501485,0.05480082363042493,-0.5739794598661381,2154745.0,,,,,2156.217427051507,2152.683427051507,
124,15,22,F,1,3,116.0,2,2,high,7 + 8 + 1 + 9 + 1,26,26,24,25,2168.4950898000097,2170.519982900005,2172.035245400009,2177.0538797000045,2177.7883601000067,2177.7883841000003,2179.3047783000075,2180.322017600003,q,26.0,0.7344804000022123,1,+10,509,-11.53917350998799,0.46198810546253744,-0.13313874348470023,2167027.0,-2.3600674518559135,0.3645694361372176,-0.07466626783404795,2170561.0,,,,,2172.0334270515073,2168.499427051507,
125,15,22,F,1,3,117.0,3,3,low,2 + 9 - 3 + 4 + 1,13,11,14,13,2181.838746600013,2183.865639800002,2185.3816233000107,2190.4006287000084,2191.0602945000137,2191.0602998000104,2192.5768368000136,2193.5937503000023,e,13.0,0.6596658000053139,1,+1,510,-2.2500126022437215,-0.12135963535482608,0.4242780717173451,2180373.0,4.238991529178762,0.15360623981025467,0.4624736378855192,2183908.0,,,,,2185.380427051507,2181.845427051507,
126,15,22,F,1,3,118.0,4,3,high,6 + 1 + 8 + 7 - 9,13,14,15,13,2195.1105002000118,2197.1349710000068,2198.650198000003,2203.669010100013,2205.868254400004,2205.868259900002,2207.384856600009,2208.4019782000105,w,15.0,2.1992442999908235,0,+0,510,11.562909075195513,0.6362542046910431,-0.09149766583437025,2193642.0,30.074467113927753,0.3427738875603854,0.5227753868365492,2197176.0,,,,,2198.648427051507,2195.114427051507,
127,15,22,F,1,3,119.0,5,2,high,6 + 8 + 1 + 1 - 7,9,9,11,8,2209.9184907000017,2211.944830600012,2213.4600074000045,2218.4786895,2219.1886811000004,2219.1886879000085,2220.705446500011,2221.722648800001,q,9.0,0.7099916000006488,1,+10,520,-3.1997473730610757,1.0435824250753072,-0.15404506735818657,2208452.0,-6.298206788224732,-0.015112888110500933,-1.181528331948856,2211985.0,,,,,2213.4574270515072,2209.9244270515073,
128,15,22,F,1,3,120.0,6,3,low,5 + 7 + 1 - 4 + 6,15,17,13,15,2223.239214400004,2225.2675036,2226.7827443000133,2231.8012320000125,2235.3962661000114,2235.396271100006,2236.9130241000094,2237.929883500008,e,15.0,3.595034099998884,1,+1,521,4.980610308413253,0.038363550503916155,-1.7420862261418644,2221774.0,-5.198548923141534,0.4210877304508376,0.38931315900085917,2225308.0,,,,,2226.780427051507,2223.246427051507,
129,15,22,F,1,3,121.0,7,1,low,2 + 1 + 9 + 1 - 1,12,12,13,11,2239.446644100012,2241.4753266000043,2242.9902323000133,2248.008887400006,2249.332256100009,2249.3322612000047,2250.848910200002,2251.86553190001,q,12.0,1.3233687000029022,1,+1,522,-28.25894645836886,0.4965857361918409,0.6405684235543903,2237982.0,-1.0777000077426209,0.22860614944534174,-0.6742268154916555,2241515.0,,,,,2242.987427051507,2239.454427051507,
130,15,22,F,1,3,122.0,8,2,low,5 - 1 + 1 + 8 + 9,22,22,23,21,2253.382284700012,2255.409973500005,2256.9252787000005,2261.943491900005,2266.340256400013,2266.3402625000017,2267.857741300002,2268.8738501000043,q,22.0,4.39676450000843,1,+1,523,8.951071380866269,-0.07451007854538316,0.9262424934788509,2251917.0,-38.908927338182366,0.20311521670676935,0.5573573240756398,2255450.0,,,,,2256.922427051507,2253.389427051507,
131,15,22,F,1,3,123.0,9,1,low,3 + 1 + 1 + 8 - 1,12,13,14,12,2270.39081170001,2272.4184457000083,2273.933745900009,2278.951648400005,2279.692229600012,2279.6922347000072,2281.208909400011,2282.2258280000096,e,12.0,0.740581200007,1,+1,524,-1.5786019202862605,-1.7390723977138793,-0.8908783366595818,2268925.0,-17.45894322518453,0.3127804503081528,0.3172831291830551,2272458.0,,,,,2273.930427051507,2270.3974270515073,
132,15,22,F,1,3,124.0,10,2,low,9 + 5 - 6 + 1 - 1,8,7,8,9,2283.742669000014,2285.769729700012,2287.285112700003,2292.3043172000034,2294.5962126000086,2294.5962178000045,2296.11284110001,2297.1296773000067,w,8.0,2.29189540000516,1,+1,525,-11.376725216611533,0.25036947553554256,0.2452515024849533,2282276.0,21.026371005876964,0.24599042276122418,0.22652214809794557,2285811.0,,,,,2287.2834270515073,2283.748427051507,
133,15,22,F,1,3,125.0,11,2,low,7 + 5 + 1 - 1 - 8,4,4,3,2,2298.646242200004,2300.6705796000024,2302.1858105000138,2307.2047126000107,2311.2521272000013,2311.252132100009,2312.7686102000007,2313.7858107000066,w,3.0,4.047414599990589,0,+0,525,0.37180323407472216,0.381031988700707,-0.31377218735904266,2297177.0,50.390320233107154,0.5878540523212556,0.6975341509816277,2300711.0,,,,,2302.183427051507,2298.6494270515072,
134,15,22,F,1,3,126.0,12,3,high,4 + 7 - 3 + 5 - 1,12,12,11,13,2315.302528100001,2317.329677800008,2318.8449092000083,2323.864959300001,2327.69215480001,2327.692160900013,2329.2091740000037,2330.2262186000007,w,11.0,3.827195500009111,0,+0,525,-14.528760551114882,-0.18991084483503817,-0.08594150792342203,2313836.0,-7.362763597089023,0.4412229148163951,-0.028323419370350766,2317372.0,,,,,2318.844427051507,2315.308427051507,
135,15,22,F,1,3,127.0,13,1,low,6 + 1 + 1 + 9 - 1,16,14,16,15,2331.7430533000006,2333.769594100013,2335.284463300006,2340.3028173000057,2340.940199600009,2340.940205200008,2342.4575509999995,2343.4747534000053,w,16.0,0.6373823000030825,1,+1,526,1.3354957435248922,0.005230505521033102,-0.2335661266440514,2330276.0,-38.3655454925191,0.14531214592070585,0.01110571630522772,2333809.0,,,,,2335.2814270515073,2331.748427051507,
136,15,22,F,1,3,128.0,14,4,low,3 + 8 - 5 + 9 - 7,8,8,6,7,2344.9913895000063,2347.0170677000133,2348.532323800013,2353.550796200012,2354.740167100012,2354.7401727000106,2356.256784000012,2357.2736693000043,q,8.0,1.1893708999996306,1,+1,527,-16.027260266230535,0.42513764263277687,0.3287534976308599,2343524.0,-9.157818023462239,0.3436633502522537,-3.3915277940439807,2347057.0,,,,,2348.529427051507,2344.996427051507,
137,15,22,F,1,3,129.0,15,1,low,7 - 1 + 9 + 1 - 1,15,15,13,14,2358.7903588000045,2360.8174137000024,2362.3323728000105,2367.350802700006,2371.97214540001,2371.9721504000045,2373.4888260000007,2374.506099800012,q,15.0,4.621342700003879,1,+1,528,22.310816128027636,-0.04211200390843661,0.07109156391661298,2357324.0,-2.459174501076273,0.2488718846336646,0.014715391886237494,2360857.0,,,,,2362.329427051507,2358.796427051507,
138,15,22,F,1,3,130.0,16,4,low,7 + 6 - 9 + 8 - 3,9,8,9,7,2376.023150700013,2378.048231400011,2379.5633024000126,2384.582226900005,2385.6680313000106,2385.6680398000026,2387.1849194000097,2388.2016640000074,w,9.0,1.085804400005145,1,+1,529,8.975760291370516,1.3570904330625129,0.2474022514557075,2374554.0,13.756368732548928,0.25021998170828685,-0.018979613031356646,2378088.0,,,,,2379.5604270515073,2376.026427051507,
139,15,22,F,1,3,131.0,17,1,high,7 - 1 + 8 + 1 - 1,14,14,12,13,2389.718347700007,2391.744907100001,2393.260269300008,2398.2787902000127,2398.796029600009,2398.796034600004,2400.3131849000056,2401.330121900013,q,14.0,0.5172393999964697,1,+10,539,-0.5857125575465929,0.7422489025655106,0.43715947213588446,2388251.0,58.888360608885094,-0.008086914628004038,-0.1547526367269194,2391785.0,,,,,2393.257427051507,2389.7234270515073,
140,15,22,F,1,3,132.0,18,3,high,7 - 1 + 8 - 6 + 4,12,12,13,11,2402.846700000009,2404.8706315000018,2406.3858955000032,2411.4043630000087,2411.88405600001,2411.8840609000035,2413.4008965000103,2414.41809620001,q,12.0,0.4796930000011343,1,+10,549,9.78770529317959,2.0866795253665362,9.953165459003188,2401377.0,4.814618142549865,0.19356835628803148,-0.05344885408374367,2404911.0,,,,,2406.383427051507,2402.849427051507,
141,15,22,F,1,3,133.0,19,2,low,6 + 1 + 1 + 7 - 9,6,6,8,4,2415.9350339000084,2417.9592102000024,2419.4741573000065,2424.4929005000013,2425.3319906000106,2425.3319962000096,2426.8485245000047,2427.865409200007,q,6.0,0.8390901000093436,1,+1,550,6.446906898266377,0.11135537960708475,-0.0880575571560156,2414465.0,-3.8763680176268203,-0.2925632157215281,-0.09423590526123915,2417999.0,,,,,2419.471427051507,2415.9374270515073,
142,15,22,F,1,3,134.0,20,4,low,7 + 6 - 9 + 8 - 3,9,9,7,8,2429.381952900003,2431.409967,2432.925225900006,2437.943858400002,2438.4839812000137,2438.4839861000078,2440.0005466,2441.017777900008,e,8.0,0.5401228000118863,0,+0,550,35.673330468173745,0.24980946539726845,0.034465051786073175,2427916.0,8.421629922693375,0.2817175906089555,0.23079335551821334,2431450.0,,,,,2432.922427051507,2429.3884270515073,
143,15,22,F,1,3,135.0,21,3,high,9 + 3 - 4 + 6 + 7,21,21,23,22,2442.534836200008,2444.5626605,2446.078034300008,2451.0965553999995,2454.1480350000056,2454.1480402000016,2455.6647699000023,2456.6819233000133,q,21.0,3.0514796000061324,1,+10,560,5.465077047928865,-2.278362817525811,-47.82079405444406,2441069.0,3.247938049363924,0.13293244705424212,0.10543488151488756,2444602.0,,,,,2446.074427051507,2442.541427051507,
144,15,22,F,1,3,136.0,22,3,low,3 + 8 + 1 + 5 - 9,8,8,9,7,2458.198968800003,2460.221782100009,2461.7365950000094,2466.754730200002,2468.387907000011,2468.3879120000056,2469.904430300012,2470.921375300008,q,8.0,1.633176800009096,1,+1,561,14.323123424699226,0.0463947751348206,0.26152008215069156,2456728.0,-28.481404600472818,0.38454387464884743,0.018423238385826934,2460261.0,,,,,2461.733427051507,2458.200427051507,
145,15,22,F,1,3,137.0,23,4,high,6 + 9 - 7 + 8 - 5,11,11,13,12,2472.438271600011,2474.461665400013,2475.976975800004,2480.995588900012,2483.3718840000074,2483.371889200004,2484.8881465000013,2485.905362600009,q,11.0,2.376295099995332,1,+10,571,11.286460911800773,0.7533535008987375,0.194401285410712,2470967.0,-5.6077053578468306,-0.2793108847025114,0.0984657036106138,2474502.0,,,,,2475.974427051507,2472.439427051507,
146,15,22,F,1,3,138.0,24,3,low,6 + 8 + 7 + 1 - 9,13,15,13,14,2487.4215394000057,2489.449007800009,2490.9651435000123,2495.983854400009,2500.1559657000034,2500.155970600012,2501.672639200013,2502.6893704000104,w,13.0,4.172111299994867,1,+1,572,35.70765660717267,0.2782534582123781,0.8421094484802398,2485955.0,17.613421308640234,0.2738343207412113,0.13266235282047845,2489490.0,,,,,2490.962427051507,2487.427427051507,
147,15,22,F,1,3,139.0,25,3,high,7 - 1 + 9 - 5 + 4,14,13,15,14,2504.20587830001,2506.232407300005,2507.747541600009,2512.7674224000075,2514.259934200003,2514.259939400013,2515.776642000012,2516.793822800013,e,14.0,1.4925117999955546,1,+10,582,-16.76800574978637,1.007749698747352,0.2205679513218981,2502739.0,-1.0702467035294099,0.223701211857807,-0.40225012261381554,2506273.0,,,,,2507.7454270515072,2504.211427051507,
148,15,22,F,1,3,140.0,26,4,high,8 + 7 - 4 + 5 + 9,25,24,25,26,2518.3107051000115,2520.3364894000115,2521.8519068000023,2526.870629000012,2531.4598744000104,2531.4598804000125,2532.9763167000056,2533.9936266000004,q,24.0,4.589245399998617,0,+0,582,-13.135793177383832,0.8124465171122006,0.17988967727105498,2516842.0,15.63336921940605,0.20602425067642627,-0.4759033388542169,2520376.0,,,,,2521.8484270515073,2518.314427051507,
149,15,22,F,1,3,141.0,27,4,high,4 + 7 - 8 + 9 - 4,8,9,8,7,2535.51032690001,2537.5351848000137,2539.051242500005,2544.0714116000017,2544.627859900007,2544.627865200004,2546.1443160000053,2547.161506500008,w,8.0,0.556448300005286,1,+10,592,-11.35003591438049,7.323124204069215,21.009116945077615,2534041.0,-10.626890556743003,0.07980978138696493,0.12209544473899125,2537577.0,,,,,2539.0494270515073,2535.5134270515073,
150,15,22,F,1,3,142.0,28,2,low,3 + 9 - 1 - 5 + 1,7,7,6,5,2548.677919400012,2550.705992800009,2552.221137600005,2557.239227500002,2557.7477946,2557.747799500008,2559.264369100012,2560.281187900008,q,7.0,0.5085670999978902,1,+1,593,7.702039511495676,0.832777753275697,0.11513947328497398,2547211.0,13.376240124951114,0.18172544729111118,0.12216295169115776,2550745.0,,,,,2552.217427051507,2548.683427051507,
151,15,22,F,1,3,143.0,29,3,low,6 - 1 + 7 - 8 + 9,13,13,11,12,2561.798272900007,2563.825269000008,2565.3402189000044,2570.360619800005,2572.3078313000005,2572.307836700013,2573.8246239,2574.841425400009,q,13.0,1.9472114999953192,1,+1,594,-7.03781683368714,0.03615289992400417,-0.4675460446564408,2560330.0,10.331272159357894,-0.07299064024037194,-0.012388194150651621,2563866.0,,,,,2565.338427051507,2561.802427051507,
152,15,22,F,1,3,144.0,30,2,high,5 + 9 - 8 + 1 + 1,8,8,7,9,2576.358244400006,2578.3860766,2579.9013297000056,2584.919760100005,2586.235766400001,2586.23577140001,2587.7521717000054,2588.769761500007,q,8.0,1.3160062999959337,1,+10,604,26.214569338674384,0.7946693469333472,0.1619361633570513,2574892.0,-56.1641125415771,0.2171820217786753,0.43834504245787276,2578425.0,,,,,2579.8974270515073,2576.364427051507,
153,15,22,F,1,3,145.0,31,2,high,8 + 1 + 4 - 7 + 1,7,6,7,5,2590.286416200004,2592.3099116000085,2593.8257891000103,2598.844202600012,2602.7557396000047,2602.755744500013,2604.272222300002,2605.289286900006,q,6.0,3.911536999992677,0,+0,604,13.326322921045126,0.16397930475578093,0.08829435395806229,2588815.0,17.11716153563139,0.2805144462080811,0.0006375080091114427,2592350.0,,,,,2593.822427051507,2590.287427051507,
154,15,22,F,1,3,146.0,32,1,high,5 + 6 + 1 + 1 + 1,14,13,14,16,2606.805896500009,2608.8314454000065,2610.3468366000016,2615.3645811000024,2616.0117758000124,2616.011781100009,2617.5279540000047,2618.5451549000136,w,14.0,0.6471947000100045,1,+10,614,14.952055979325674,0.5518946398528191,0.23418723094966465,2605337.0,16.949867225570415,0.4050825762192205,0.08740185360071218,2608870.0,,,,,2610.342427051507,2606.809427051507,
155,15,22,F,1,3,147.0,33,4,low,7 + 6 - 4 + 9 - 5,13,14,13,12,2620.0620938000066,2622.088220500009,2623.6033920000045,2628.621980400014,2632.7798156000063,2632.779820700001,2634.2966372000083,2635.313922100002,q,14.0,4.157835199992405,0,+0,614,8.176774616714635,1.662417563580819,-1.4656845531202345,2618594.0,16.103762421583983,-0.252002622324603,0.08153132089928539,2622127.0,,,,,2623.599427051507,2620.066427051507,
156,15,22,F,1,3,148.0,34,4,low,6 + 7 + 9 - 3 + 5,24,22,24,23,2636.8308505000023,2638.8559591000085,2640.371212900005,2645.3899808999995,2647.0436835,2647.0436884000083,2648.560091700012,2649.5769656000048,w,24.0,1.6537026000005426,1,+1,615,10.476396188827085,0.4565230494430004,0.7710207605754866,2635361.0,21.09428495993457,0.07105143526164781,0.05878918870668759,2638895.0,,,,,2640.367427051507,2636.833427051507,
157,15,22,F,1,3,149.0,35,3,low,4 + 1 + 8 + 9 - 5,17,18,17,19,2651.0936581000133,2653.119580300001,2654.635390100011,2659.653444400013,2660.899768300005,2660.8997734000004,2662.416048900006,2663.4330944000103,w,17.0,1.246323899991694,1,+1,616,6.191608308606664,0.342523842811858,-0.11794865415478117,2649625.0,-4.900653325397049,0.18460864105950847,-0.7916482604282424,2653159.0,,,,,2654.631427051507,2651.097427051507,
158,15,22,F,1,3,150.0,36,2,high,9 + 4 + 5 + 1 - 1,18,19,17,18,2664.9497239000048,2666.9775276,2668.492807600007,2673.5107044000038,2674.2036565000017,2674.20366150001,2675.720051100012,2676.7372292000077,q,19.0,0.6929520999983652,0,+0,616,14.965132559751748,0.5221272189173456,-0.01816241008076691,2663483.0,-31.940732471832124,0.3710818912094602,0.1684587916618705,2667016.0,,,,,2668.488427051507,2664.9554270515073,
159,15,22,F,1,3,151.0,37,2,high,8 + 1 + 9 + 1 - 4,15,14,15,16,2678.25399930001,2680.278225200004,2681.7936195000075,2686.8119974,2688.763759300011,2688.763764400006,2690.280307500012,2691.2985281,w,15.0,1.951761900010752,1,+10,626,-3.981460181507906,0.03117221990092034,-0.040743040950353304,2676783.0,-0.5430780119740093,-0.07142848855107964,-0.093531519080575,2680317.0,,,,,2681.789427051507,2678.255427051507,
160,15,22,F,1,4,152.0,0,3,high,6 - 1 + 7 - 8 + 9,13,12,13,11,2711.631774700014,2713.6587749000028,2715.173680800013,2720.1936804,2721.827648700011,2721.8276538000064,2723.343821200004,2724.360904800007,w,13.0,1.6339683000114746,1,+10,636,-46.95179550350032,0.6319068000151287,0.40077531305061864,2710164.0,13.833476903470501,-0.23191843021084546,0.15731276195346933,2713699.0,,,,,2715.171427051507,2711.6364270515073,
161,15,22,F,1,4,153.0,1,4,high,8 + 4 + 7 - 5 - 6,8,9,8,6,2725.8777477000112,2727.902317400003,2729.417538400012,2734.4371428000013,2735.5156506000058,2735.515656100004,2737.032291100011,2738.049616500008,w,8.0,1.078507800004445,1,+10,646,-10.381613647887235,1.100747978339953,2.8728490345316375,2724407.0,-7.551511873462815,0.37287648306108423,6.244956127881819,2727942.0,,,,,2729.414427051507,2725.8794270515073,
162,15,22,F,1,4,154.0,2,4,high,4 + 7 - 8 + 9 - 3,9,8,11,9,2739.5673542000004,2741.593315200007,2743.109131400008,2748.127447100007,2749.075699400011,2749.07570500001,2750.592154400001,2751.6095867000117,e,9.0,0.948252300004242,1,+10,656,6.289181592096205,0.37538369431813856,-1.0322848491229841,2738098.0,9.654232464602112,0.2441948252428383,0.020912131409499324,2741633.0,,,,,2743.105427051507,2739.570427051507,
163,15,22,F,1,4,155.0,3,3,low,8 + 3 + 1 - 7 + 9,14,15,14,12,2753.1263719000126,2755.151749800003,2756.666678100009,2761.685323100013,2762.275600000008,2762.2756050000025,2763.792364100009,2764.809087000001,w,14.0,0.590276899994933,1,+1,657,7.4363881388880255,0.5569434338524724,0.06843169973513241,2751657.0,-14.327694439121387,-0.2222080636061885,0.418925701900803,2755190.0,,,,,2756.662427051507,2753.1294270515073,
164,15,22,F,1,4,156.0,4,1,high,9 + 1 + 1 + 7 - 1,17,19,16,17,2766.325782500004,2768.353016000008,2769.868334700004,2774.886685400008,2775.5316797000123,2775.5316852000105,2777.048672200006,2778.065650900011,e,17.0,0.6449943000043277,1,+10,667,2.9298207768040454,-15.137643037788605,-6.596761351982366,2764858.0,-42.045062076359144,-14.00273355160001,-17.728338584204728,2768392.0,,,,,2769.864427051507,2766.3304270515073,
165,15,22,F,1,4,157.0,5,1,low,7 - 1 + 1 + 9 - 1,15,14,13,15,2779.582437300007,2781.6106713000045,2783.125848800002,2788.144168800005,2788.6595065,2788.659511500009,2790.1760931000026,2791.1928590000025,e,15.0,0.5153376999951433,1,+1,668,3.2366562080464405,0.3363518461804311,-0.20986599226201808,2778115.0,-27.070227725938693,0.036102563078173056,0.5737173731679097,2781649.0,,,,,2783.121427051507,2779.587427051507,
166,15,22,F,1,4,158.0,6,2,high,5 + 8 + 1 - 1 + 9,22,22,23,21,2792.7092499000137,2794.736120900008,2796.251818900011,2801.271308200012,2804.1076467000094,2804.107652000006,2805.6244394000096,2806.641651400001,q,22.0,2.8363384999975096,1,+10,678,0.31068116298915527,0.7110779247834993,0.319941461084424,2791241.0,-0.33527585693472517,0.16927223803315283,0.18767180445110787,2794776.0,,,,,2796.248427051507,2792.713427051507,
167,15,22,F,1,4,159.0,7,3,high,4 + 8 - 3 + 5 - 1,13,12,14,13,2808.1585745000048,2810.1850897000118,2811.7003294000024,2816.718592100005,2817.5076467000035,2817.507652,2819.023884200011,2820.0413100000005,e,13.0,0.7890545999980532,1,+10,688,-2.496502117222658,0.7571072969973445,0.4561039258643649,2806690.0,-10.846216266270773,5.777414297316474,23.048040261576755,2810223.0,,,,,2811.695427051507,2808.162427051507,
168,15,22,F,1,4,160.0,8,1,low,6 + 1 + 1 + 7 - 1,14,14,12,13,2821.5583515000035,2823.5853814,2825.100616200012,2830.1206274,2830.6195808000048,2830.6195860000007,2832.1361873000133,2833.152901900001,q,14.0,0.4989534000051208,1,+1,689,-1.2927181662358782,0.1240215303609693,-0.5950110937515722,2820090.0,-18.745383643406484,0.37932979359024954,-0.8388114439038241,2823625.0,,,,,2825.097427051507,2821.5624270515073,
169,15,22,F,1,4,161.0,9,4,high,2 + 5 - 3 + 9 + 8,21,22,19,21,2834.669407300011,2836.6968395000004,2838.2119125000027,2843.2301744,2845.435497900005,2845.4355035000044,2846.952182500012,2847.9684507000056,e,21.0,2.205323500005761,1,+10,699,-5.725350496076557,-0.11477463678299604,-0.013318368130956326,2833201.0,-6.392285503125008,0.007751391469966951,-0.07488704122365153,2836735.0,,,,,2838.2074270515072,2834.673427051507,
170,15,22,F,1,4,162.0,10,1,high,3 + 1 + 9 + 1 - 1,13,12,14,13,2849.4852705000085,2851.509482600013,2853.024694500011,2858.0428352000017,2858.595569600002,2858.595574700012,2860.112176200011,2861.1288663000014,e,13.0,0.5527344000001904,1,+10,709,-11.431788029575365,0.32195357694269733,0.5416805397537892,2848014.0,-17.802324755648385,0.3602862775200857,0.6207801411694533,2851548.0,,,,,2853.020427051507,2849.4864270515072,
171,15,22,F,1,4,163.0,11,2,low,6 + 1 + 1 + 8 - 9,7,5,9,7,2862.646084600012,2864.669842500007,2866.185079900009,2871.203266200013,2872.659606900008,2872.659614000004,2874.176005900008,2875.1933127000084,q,5.0,1.456340699995053,0,+0,709,-1.443847471831571,0.5769155055151352,0.19005502409950026,2861175.0,12.476199942131835,0.2605476714200259,-0.09842210118160732,2864708.0,,,,,2866.180427051507,2862.6474270515073,
172,15,22,F,1,4,164.0,12,1,low,8 + 1 + 1 + 1 - 3,8,8,6,9,2876.710074500006,2878.7375305000023,2880.2525916000013,2885.2711806000007,2887.067448600006,2887.067453800002,2888.584412100012,2889.6015775000124,q,8.0,1.7962680000055116,1,+1,710,12.738726215982812,-0.3785678903843763,-0.4435379372747916,2875242.0,-9.868263376526292,0.2611964470901518,0.9584939224696951,2878776.0,,,,,2880.248427051507,2876.7144270515073,
173,15,22,F,1,4,165.0,13,3,high,4 + 5 - 3 + 7 - 1,12,11,13,12,2891.118442900013,2893.1455084000045,2894.6604888,2899.6804663000075,2904.3714358,2904.371441800002,2905.887991900003,2906.905152200008,e,12.0,4.690969499992207,1,+10,720,3.598028019341042,-0.23046985218484428,1.153163620913796,2889650.0,-4.7008761023274985,-0.7989124536005465,-6.032263759841035,2893185.0,,,,,2894.657427051507,2891.122427051507,
174,15,22,F,1,4,166.0,14,4,high,7 + 8 - 4 + 6 - 5,12,13,12,11,2908.4218519000133,2910.448837500008,2911.964129400003,2916.983006000009,2922.0009154,2922.0009179000044,2923.517298400009,2924.535712500001,,,,0,Too Slow!,720,-4.3535666341342605,-0.183217827360171,-0.2636661430438596,2906953.0,-13.868217611462264,-0.12152934137573412,0.5865051555950602,2910487.0,,,,,2911.959427051507,2908.425427051507,
175,15,22,F,1,4,167.0,15,2,low,4 + 8 + 1 + 1 - 6,8,7,8,9,2926.052379300003,2928.079949100007,2929.5951866000105,2934.614612300007,2935.1554688000037,2935.155474300001,2936.6719091000123,2937.689461300004,w,8.0,0.5408564999961527,1,+1,721,-14.550595141809133,0.4131530525262441,-0.14788904606665065,2924584.0,23.552613736562094,-0.03947188874276897,-0.7299093601341191,2928119.0,,,,,2929.5914270515073,2926.056427051507,
176,15,22,F,1,4,168.0,16,4,high,5 + 7 - 4 - 6 + 9,11,11,13,12,2939.2057959000085,2941.2324820000067,2942.7477324000065,2947.7660635000066,2948.3714041000057,2948.371408900013,2949.887382700006,2950.9046504,q,11.0,0.605340599999181,1,+10,731,16.824948415867738,0.5866091362754862,0.43226886900763706,2937737.0,20.70699383071676,-0.44773713700074724,0.1214325231466673,2941271.0,,,,,2942.7434270515073,2939.209427051507,
177,15,22,F,1,4,169.0,17,2,high,6 + 1 + 7 - 8 - 1,5,5,4,7,2952.42132020001,2954.448537500008,2955.963711200005,2960.982760400002,2961.8994288000104,2961.899434100007,2963.4162047000136,2964.433527100002,q,5.0,0.9166684000083478,1,+10,741,5.166131373259358,-4.842308959655506,-1.6511189567779652,2950953.0,-33.327988868101556,3.2123234036331336,26.545304924524903,2954487.0,,,,,2955.959427051507,2952.425427051507,
178,15,22,F,1,4,170.0,18,4,low,9 + 7 - 5 + 8 + 6,25,24,27,25,2965.950302800004,2967.974204700004,2969.4887585000106,2974.507811100004,2979.4273503000004,2979.427355600012,2980.944261900004,2981.9615013,q,24.0,4.919539199996507,0,+0,741,-54.24424714427776,0.19739668249520648,-0.02090886867342956,2964479.0,10.752012782554964,0.1543776176939753,-0.2575146574873606,2968012.0,,,,,2969.4844270515073,2965.951427051507,
179,15,22,F,1,4,171.0,19,1,high,7 + 1 + 5 + 1 - 1,13,13,12,14,2983.47899090001,2985.506408400004,2987.022283700004,2992.042488200008,2992.539266600012,2992.539272000009,2994.055815200001,2995.0730982000096,q,13.0,0.4967784000036772,1,+10,751,34.812963771806565,-11.747970474145308,-15.109666842400852,2982011.0,16.3295925096159,0.25819111616383816,0.24461150703559253,2985546.0,,,,,2987.018427051507,2983.483427051507,
180,15,22,F,1,4,172.0,20,1,low,9 + 8 + 1 + 1 - 1,18,18,19,17,2996.5890126000013,2998.6156800000026,3000.1309275000094,3005.1488797000056,3006.8274101000134,3006.827416100001,3008.3438612000027,3009.3606612000003,q,18.0,1.6785304000077303,1,+1,752,20.11920471677067,0.3756781451516782,0.06506487943830486,2995120.0,9.591180585508345,0.29513053963089986,0.329153396552742,2998653.0,,,,,3000.125427051507,2996.592427051507,
181,15,22,F,1,4,173.0,21,1,low,5 + 9 - 1 + 1 + 1,15,17,15,13,3010.877566100011,3012.9025314000028,3014.4175521,3019.435731400008,3019.971357400005,3019.9713629000034,3021.4878973000014,3022.5048872000043,w,15.0,0.5356259999971371,1,+1,753,-4.763997102186181,0.4759824145041065,0.1072590753210032,3009407.0,53.22482944192361,-0.06256255806866262,1.585452888272426,3012940.0,,,,,3014.412427051507,3010.8794270515073,
182,15,22,F,1,4,174.0,22,1,low,6 + 1 + 8 + 1 - 1,15,14,15,13,3024.0219966000004,3026.046681800013,3027.561619400003,3032.5803794000094,3034.715282200006,3034.7152873000014,3036.2319481000013,3037.2487892000063,w,15.0,2.13490279999678,1,+1,754,16.547240885180273,0.24973443572594212,-0.9563873245171819,3022551.0,-1.4063358227469003,-0.04406824325195169,-0.4800622414835205,3026084.0,,,,,3027.556427051507,3024.023427051507,
183,15,22,F,1,4,175.0,23,3,high,2 + 1 + 9 - 5 + 6,13,11,14,13,3038.765753200001,3040.793638500006,3042.3093296000006,3047.3272529000096,3051.3793853000097,3051.3793909000087,3052.8959429000097,3053.913176000002,e,13.0,4.052132400000119,1,+10,764,-1.7213662053789633,0.40716353430694285,-0.31857806159135427,3037298.0,14.319068126278516,0.3817195431231193,0.4377963030415519,3040831.0,,,,,3042.3034270515072,3038.770427051507,
184,15,22,F,1,4,176.0,24,1,low,9 + 7 + 1 + 1 + 1,19,20,19,18,3055.4301855000085,3057.455642300003,3058.9715870000077,3063.9907975000096,3065.235347300011,3065.235353100012,3066.7519378,3067.7687936,w,19.0,1.2445498000015505,1,+1,765,13.033716688653437,2.472027890859795,1.0898810410252189,3053959.0,-25.646676696555385,-0.013808672048332138,-0.26163221183945007,3057495.0,,,,,3058.967427051507,3055.431427051507,
185,15,22,F,1,4,177.0,25,3,high,3 + 8 - 7 - 1 + 9,12,13,12,14,3069.2861850000045,3071.313471500005,3072.828349000003,3077.8471130000107,3078.4192480000056,3078.419253100001,3079.9365968000056,3080.9537617000024,w,12.0,0.572134999994887,1,+10,775,41.12107696329015,0.20749466857034804,0.3289784519524592,3067817.0,-12.467365897826141,0.2152255855175662,-0.2011849641620187,3071351.0,,,,,3072.823427051507,3069.289427051507,
186,15,22,F,1,4,178.0,26,2,low,8 + 1 + 1 + 9 - 4,15,16,14,15,3082.470729400011,3084.49699900001,3086.012320000009,3091.0305331000127,3091.8592529000016,3091.859258200013,3093.3754524000105,3094.3920144000003,e,15.0,0.8287197999889031,1,+1,776,12.071093090654806,0.5887751650641619,0.05994150597955539,3081001.0,14.289090938222678,-0.05059738600297825,0.027443973316382042,3084534.0,,,,,3086.006427051507,3082.4734270515073,
187,15,22,F,1,4,179.0,27,1,high,5 + 1 + 1 + 9 + 1,17,16,17,19,3095.908857100003,3097.9344371000043,3099.4497327000136,3104.467983800001,3105.01921530001,3105.0192201000027,3106.5353915000014,3107.5521800000133,w,17.0,0.5512315000087256,1,+10,786,20.504895738428534,0.09673553323315032,0.40680217689310183,3094438.0,15.071427861693365,-1.134604797385145,0.504063366532971,3097972.0,,,,,3099.4444270515073,3095.910427051507,
188,15,22,F,1,4,180.0,28,2,low,3 + 1 + 8 - 5 - 1,6,5,6,7,3109.069955900006,3111.0979792,3112.6132142000133,3117.6326866000018,3118.763165000011,3118.763170500009,3120.2798625,3121.2966228000005,w,6.0,1.1304784000094514,1,+1,787,-5.627921525559434,-0.17905197232322134,-0.603146031856113,3107601.0,-6.492539095629866,0.18241346370693412,0.4772606672907913,3111135.0,,,,,3112.6074270515073,3109.073427051507,
189,15,22,F,1,4,181.0,29,3,low,5 + 1 + 7 - 8 + 6,11,9,13,11,3122.813732500013,3124.840157700004,3126.3553783000098,3131.375488100006,3133.7153012000053,3133.715306600003,3135.2319276000053,3136.249216000011,q,9.0,2.3398130999994464,0,+0,787,-50.611474851950156,0.4658011465574634,-0.687924376302357,3121344.0,-4.120903924244992,0.13443603007809002,-0.43074030644418126,3124879.0,,,,,3126.351427051507,3122.816427051507,
190,15,22,F,1,4,182.0,30,4,low,5 + 9 - 4 + 7 + 6,23,24,25,23,3137.7660868000094,3139.792545000004,3141.307542900002,3146.3259494000085,3149.443177500012,3149.443183200012,3150.9595974000117,3151.9765208000026,e,23.0,3.117228100003558,1,+1,788,-77.31097731773556,0.21676476130909395,-0.5377081658997911,3136296.0,-1.3675444364876768,0.40518637320518525,-0.32885430992447384,3139829.0,,,,,3141.3014270515073,3137.768427051507,
191,15,22,F,1,4,183.0,31,4,high,4 + 8 + 9 - 3 + 7,25,25,26,24,3153.493697900005,3155.5183502,3157.0336431000032,3162.0521955000004,3165.0672291000083,3165.0672347000072,3166.5833827000024,3167.6005152,e,24.0,3.0150336000078823,0,+0,788,-20.642677767013232,-0.1123635860540575,-2.0723884797607197,3152022.0,1.6133986339196458,0.1746485692571973,0.11307757840112753,3155556.0,,,,,3157.028427051507,3153.494427051507,
192,15,22,F,1,4,184.0,32,2,high,8 + 1 + 9 + 1 - 5,14,13,15,14,3169.11729390001,3171.144597300008,3172.659664200008,3177.6778282000014,3178.3552695000108,3178.355274600006,3179.8718467,3180.889027000012,e,14.0,0.6774413000093773,1,+10,798,-49.51827471816294,0.18111299498944344,-0.9726230677223322,3167648.0,5.907891850375689,0.24892054032609945,-0.4147660452087849,3171181.0,,,,,3172.653427051507,3169.1204270515072,
193,15,22,F,1,4,185.0,33,2,low,2 + 9 + 1 + 1 - 5,8,8,6,7,3182.405635300005,3184.4330567,3185.948370600003,3190.966474800007,3191.531133100012,3191.5311381000065,3193.048422800013,3194.0652680000057,q,8.0,0.5646583000052487,1,+1,799,13.227762061496362,0.3890713408030788,0.1637926678731838,3180936.0,13.17733986574532,5.194012113603165,12.978011003889428,3184470.0,,,,,3185.942427051507,3182.4084270515073,
194,15,22,F,1,4,186.0,34,4,low,4 + 7 + 8 - 3 + 9,25,24,25,26,3195.5820478000096,3197.6081068000058,3199.12348200001,3204.1431003000034,3207.9711792000016,3207.9711842000106,3209.4875657000084,3210.505208900009,w,25.0,3.828078899998218,1,+1,800,14.92367428932602,-0.19927668168128543,-0.24015108661411277,3194111.0,-12.687877659680606,-0.9268242222146879,-0.2752140579608726,3197646.0,,,,,3199.1184270515073,3195.583427051507,
195,15,22,F,1,4,187.0,35,1,low,7 + 1 + 4 + 1 - 1,12,13,14,12,3212.0216204000026,3214.045764800001,3215.5609482,3220.579270000002,3221.2590919000068,3221.2590967,3222.776233700002,3223.793270900001,e,12.0,0.6798219000047538,1,+1,801,-41.77344728883436,0.09257896479913574,-0.19650314062148677,3210549.0,13.255138742983554,0.2993541958344603,-0.03667004764553061,3214083.0,,,,,3215.555427051507,3212.021427051507,
196,15,22,F,1,4,188.0,36,1,high,5 + 8 - 1 + 1 + 1,14,16,14,12,3225.3100331000023,3227.337405400001,3228.8530270000047,3233.872487300003,3234.475901500002,3234.475906300009,3235.992014400006,3237.009223600005,w,14.0,0.6034141999989515,1,+10,811,0.24164930998740397,0.1836527891610158,0.6999979995022221,3223840.0,27.64661804323773,-12.684978313127099,-46.39221755270863,3227375.0,,,,,3228.847427051507,3225.3124270515073,
197,15,22,F,1,4,189.0,37,1,low,8 + 1 + 4 + 1 + 1,15,14,15,16,3238.525960900006,3240.553430900007,3242.0686545000062,3247.08674340001,3247.5070349000016,3247.5070395000075,3249.023564100004,3250.040556500011,w,15.0,0.4202914999914355,1,+1,812,-6.431256469624549,0.3102796170668598,-0.6693299374539534,3237056.0,-20.137665593418784,0.06493704668899625,0.5488028263445641,3240590.0,,,,,3242.0624270515073,3238.528427051507,
198,15,22,F,1,5,190.0,0,1,high,3 + 1 + 8 - 1 + 1,12,10,12,13,3261.727150100007,3263.7543393000087,3265.269521600014,3270.289181800006,3271.578983600004,3271.578988500012,3273.095275300002,3274.1122579000075,w,12.0,1.2898017999978038,1,+10,822,13.70024139967082,-2.3125399618846045,-0.4424308040128939,3260257.0,2.5017423175911784,0.43480707708691546,3.3777151176996685,3263792.0,,,,,3265.264427051507,3261.729427051507,
199,15,22,F,1,5,191.0,1,3,low,9 - 5 - 1 - 6 + 8,5,4,7,5,3275.6294097000064,3277.654757100012,3279.1700371000043,3284.18894420001,3287.970967800007,3287.9709733000054,3289.487553800005,3290.5047701000003,q,4.0,3.7820235999970464,0,+0,822,-45.9943662209764,0.660305931209243,0.15497096438553504,3274158.0,-23.649824070034704,0.15146887780497464,0.11541990912175004,3277691.0,,,,,3279.163427051507,3275.630427051507,
