,id,age,sex,cued,block,trial,trialinblock,efflev,rewlev,calc,corAns,option1,option2,option3,tstart,ITI1Time,probTime,respTime,selectTime,ITI2Time,fbTime,ITI3Time,key_press,chosenAns,RT,acc,feedback,total_points,cuescr,cuecor,cuezyg,cuetime,probscr,probcor,probzyg,probtime,fbscr,fbcor,fbzyg,fbtime,probtime_c,cuetime_c,fbtime_c
0,16,22,f,0,Practice,,0,1,0,4 + 1 + 9 + 1 + 1,16,14,15,16,56.54634000000078,,56.54634220000298,61.680512899998575,62.67847569999867,62.67848180000146,64.19520750000083,65.21728000001167,e,16,0.9979628000000956,1,Correct,0,,,,,-36.71048135614181,0.9084741780853021,0.17469376377552281,55288.0,-1.9435233834537584,0.14223268398390765,0.33413272872672817,62824.0,56.66593872400462,,64.20193872400462
1,16,22,f,0,Practice,,1,1,0,3 + 1 + 1 + 8 - 1,12,11,12,10,66.73442610001075,,66.73442900000373,71.76914400000533,74.0623448999977,74.06235079999897,75.57922830000462,76.59845090001181,q,11,2.293200899992371,0,Incorrect,0,,,,,-3.762342957342341,-0.16199864387709795,-0.7696235618066845,65377.0,-0.9209346025203615,-0.33680590373214603,0.015307355217313301,74206.0,66.75493872400462,,75.58393872400462
2,16,22,f,0,Practice,,2,2,0,8 + 1 + 6 + 1 - 4,12,12,10,11,78.12719559999823,,78.12720050000644,83.14706750000187,85.03835740000068,85.03836260001117,86.55531360000896,87.57315989999915,q,12,1.89128989999881,1,Correct,0,,,,,13.978668931386483,-0.30760644573376705,-0.668686305780958,76755.0,2.1541704429814814,-0.7647512444457512,0.5408788403700431,85181.0,78.13293872400462,,86.55893872400462
3,16,22,f,0,Practice,,3,2,0,9 + 4 - 6 + 1 - 1,7,7,6,5,89.09041660001094,,89.09041950000392,94.10943910000788,95.81431760000125,95.81432370000402,97.33128830000352,98.34843690000709,q,7,1.704878499993356,1,Correct,0,,,,,-56.042732520486766,-0.5178564874056422,-0.4883711092872298,87717.0,10.72180203258224,0.093443276605651,-0.7646901082251385,95956.0,89.09493872400462,,97.33393872400462
4,16,22,f,0,Practice,,4,3,0,9 + 3 - 5 + 6 + 7,20,21,20,22,99.86533240000426,,99.86533520001105,104.88535409999896,107.0063119999977,107.00631820000126,108.52281770000992,109.54051260001144,w,20,2.120957899998757,1,Correct,0,,,,,-10.441645065832052,0.14364607674325214,-0.29442071119127355,98492.0,2.2993009476123527,-0.17983596048055706,-0.1343794209887621,107148.0,99.86993872400463,,108.52593872400462
5,16,22,f,0,Practice,,5,3,0,2 + 1 + 9 - 7 + 6,11,11,9,10,111.05732750000608,,111.05733019999752,116.07820129999892,116.86256649999996,116.86257320000732,118.3796474999981,119.3981333999982,q,11,0.7843652000010479,1,Correct,0,,,,,-26.97565095843113,-0.2856502107449561,-0.5878471376601038,109686.0,-4.27597620853027,0.5170321209593105,0.4703045063442799,117006.0,111.06393872400463,,118.38393872400462
6,16,22,f,0,Practice,,6,4,0,4 + 8 + 5 - 3 + 7,21,21,23,22,120.9154864000011,,120.91548930000864,125.93597190000582,128.08639880000555,128.0864050000091,129.6035325999983,130.6217686000018,q,21,2.1504268999997294,1,Correct,0,,,,,5.4984535663050575,-0.39688809258917157,-0.33112181963605103,119543.0,5.205071708428227,0.2898918802439905,0.13271334245309552,128230.0,120.92093872400463,,129.6079387240046
7,16,22,f,0,Practice,,7,4,0,5 + 8 - 4 + 6 + 9,24,22,24,23,132.1387803000107,,132.13878300000215,137.15872830001172,137.7104446000012,137.710450700004,139.227415500005,140.24538750000647,w,24,0.5517162999894936,1,Correct,0,,,,,27.998306589489843,0.29097166972071165,0.12263115861498042,130766.0,-63.781011081096096,-0.8101951642533125,0.10310918474314823,137853.0,132.1439387240046,,139.23093872400463
8,16,22,f,1,0,0.0,0,4,high,2 + 9 - 6 + 8 - 4,9,7,9,11,290.0518679000088,292.102696300004,293.61800380000204,298.63665690000926,300.17193770001177,300.1719429000077,301.6887245000107,302.70630250000977,w,9,1.5352808000025109,1,+10,10,-3.449189546564714,-0.14701749535840314,-0.5633536245157194,288710.0,6.427650807578448,0.27963668555042887,-0.046232675342860574,292244.0,-9.758726650475772,-1.155331581075055,-0.38473018794823455,300313.0,293.6219387240046,290.0879387240046,301.6909387240046
9,16,22,f,1,0,1.0,1,2,high,6 + 1 + 1 + 8 - 9,7,7,5,9,304.2233004000009,306.31726940000954,307.8325557000062,312.8505513999989,314.5798128000024,314.5798180999991,316.0965627999976,317.1137832000095,e,9,1.729261400003452,0,+0,10,2.6527337447169685,-0.930036110976304,0.08384390527459651,302924.0,-13.876934988976563,0.1262616005231303,-0.23032985013769203,306458.0,33.39269436209004,-0.12421550313615048,0.21372752379703464,586023.0,307.8359387240046,304.3019387240046,587.4009387240046
10,16,22,f,1,0,2.0,2,4,low,3 + 8 - 7 + 9 - 5,8,9,8,7,318.6313855000044,320.6690710999974,322.1844742000103,327.20378390001133,329.00379840000824,329.0038032000012,330.5199336000078,331.5371520000044,q,9,1.8000144999969052,0,+0,10,-1.4116331402380133,0.0049198722061039035,-0.1929664318691171,317276.0,4.906187248187653,0.3960411185262185,0.08696173934669194,320811.0,6.842898159912526,0.3949002180569363,0.08454384155969175,641494.0,322.1889387240046,318.6539387240046,642.8719387240046
11,16,22,f,1,0,3.0,3,3,low,8 + 3 + 1 - 7 + 9,14,15,12,14,333.05384090000007,335.13080340001034,336.6457431000017,341.6640367000073,343.48382560000755,343.48383120000653,345.0007908999978,346.01807240000926,w,12,1.819788900000276,0,+0,10,13.956611872961062,0.06862638305779623,-0.2394843602547354,331738.0,16.277944746541216,-0.3342819630119882,0.09073008027829266,335271.0,29.361310295815464,1.0294349248038275,0.3587413682553917,457687.0,336.6489387240046,333.1159387240046,459.0649387240046
12,16,22,f,1,0,4.0,4,1,low,2 + 1 + 9 + 1 - 1,12,11,13,12,347.5348404000106,349.56062000000384,351.0758360000036,356.0940529000072,356.69984290000866,356.69984800000384,358.21643510001013,359.2337253000005,q,11,0.6057900000014342,0,+0,10,6.906918724134469,-0.11586840967209788,-0.7288341233089293,346167.0,25.322470702628344,-0.13736322882583352,-0.3732396109713001,349701.0,-14.933016566188819,0.9516048265859514,-0.4563106513061985,500032.0,351.0789387240046,347.54493872400457,501.4099387240046
13,16,22,f,1,0,5.0,5,1,high,9 + 7 + 1 + 1 + 1,19,20,19,18,360.7500549000106,362.7846149000106,364.29969580000034,369.3191016000055,370.3397522000014,370.3397573000111,371.8562884999992,372.8735719000106,e,18,1.0206505999958608,0,+0,10,-3.1726068123514164,0.5421848061221146,-0.11598216893324276,359392.0,-38.965778750064274,0.3778829553845737,-0.19555125379130134,362926.0,16.97797890369604,-0.40247595957820037,0.5120568491380748,541511.0,364.3039387240046,360.7699387240046,542.8889387240046
14,16,22,f,1,0,6.0,6,1,low,8 + 1 + 1 - 1 - 4,5,3,6,5,374.39030959999945,376.416048900006,377.9310609000095,382.95061780000106,384.4197404000006,384.4197456000111,385.9363205000118,386.9536880000087,w,6,1.4691225999995368,0,+0,10,-24.340038452396367,0.8153617115120406,1.6269607577494298,373023.0,3.2578804991168075,-2.0042624320524,27.169415344873087,376557.0,11.720123850500997,0.00890012657900785,-0.13346818586845943,613215.0,377.9349387240046,374.4009387240046,614.5929387240046
15,16,22,f,1,0,7.0,7,1,high,3 + 1 + 8 + 1 + 1,14,14,12,13,388.4702358000068,390.4974556000088,392.0128369000013,397.0320578000101,398.6757173000078,398.675722400003,400.1921129999973,401.2093287000025,w,12,1.6436594999977387,0,+0,10,-29.604772122303444,0.008143757799962792,-4.18094593108774,387104.0,14.883218002759213,-0.5720026973497809,-7.439820908534088,390639.0,-34.64090170750904,-0.008682916716850286,0.5612617396971036,669927.0,392.0169387240046,388.4819387240046,671.3049387240046
16,16,22,f,1,0,8.0,8,2,high,6 + 1 + 8 + 7 - 1,21,21,23,19,402.7262943000096,404.7532624000014,406.26933799999824,411.2881111000024,413.9797092000081,413.9797146000056,415.4961737999984,416.5134919999982,e,19,2.691598100005649,0,+0,10,3.5361751911347756,-2.014165927221491,-7.025137439352928,401360.0,-9.224087592133388,4.918709692469661,-11.261837769291606,404895.0,2.285070517416778,-0.03206675570588091,0.4386400637467802,684831.0,406.2729387240046,402.7379387240046,686.2089387240046
17,16,22,f,1,0,9.0,9,3,high,6 - 1 + 7 - 8 + 9,13,12,13,11,418.03003200000967,420.1077487000002,421.6229897000012,426.6432258999994,428.7476967000112,428.7477018000063,430.2643868000014,431.2817778000026,e,11,2.104470800011768,0,+0,10,5.012213606300656,0.6158031545772604,-2.884877479627023,416714.0,32.7896946052477,-0.19358235417254566,-3.38963211221102,420250.0,-22.880747513531947,0.04342003524540594,-0.6803364382758392,699023.0,421.6279387240046,418.0919387240046,700.4009387240046
18,16,22,f,1,0,10.0,10,3,high,8 - 7 + 9 + 1 + 4,15,15,16,14,432.798265400008,434.8219903999998,436.33730600000126,441.3555108000001,443.1636520000029,443.1636572999996,444.68016689999786,445.6975380000076,w,16,1.808141200002865,0,+0,10,-16.535011088938667,0.8774788117966748,-0.5015936454214982,431429.0,-13.66823913596512,-0.14896272269051192,0.3427373669526954,434962.0,0.3620678919930924,-1.0328937272078456,-0.4820585280451941,774679.0,436.3399387240046,432.80693872400457,776.0569387240046
19,16,22,f,1,0,11.0,11,3,low,3 + 8 - 7 + 1 + 9,14,14,12,13,447.214504100004,449.2403539000079,450.755567900007,455.7744372000016,457.5476376000006,457.5476425000088,459.0640216000029,460.08098020000034,q,14,1.773200399999041,1,+1,11,23.419226730794673,0.6196259770693251,1.2971928073046772,445847.0,16.178685409044427,-1.6667933557758365,-0.4496304258436874,449381.0,-7.949710051763386,0.011436460740488652,0.20461256884226664,964909.0,450.75893872400457,447.2249387240046,966.2869387240046
20,16,22,f,1,0,12.0,12,3,high,6 + 1 + 8 + 7 - 9,13,13,14,15,461.59787720000895,463.6241918000014,465.14010590000544,470.1589520999987,471.9476943000045,471.9476993999997,473.4648701999977,474.4821970000048,e,15,1.7887422000057995,0,+0,11,-14.319054601624103,-0.47702350777051983,1.6522607059633998,460231.0,14.07425529990321,0.39891876469108567,-0.02279132063741951,463765.0,19.169669820928487,0.07522654144810748,0.01548108007722293,1417773.0,465.1429387240046,461.6089387240046,1419.1509387240046
21,16,22,f,1,0,13.0,13,4,low,8 + 4 + 7 - 5 - 6,8,9,7,8,475.9997861000011,478.0262536000082,479.5415306000068,484.560172700003,486.5317497000069,486.5317544999998,488.0483674999996,489.06556860001,q,9,1.97157700000389,0,+0,11,23.362975188845024,0.02173531194486067,-0.27514989735814765,474633.0,-14.30168685725946,-0.6328902792367925,-0.009908798314342881,478167.0,10.852230389795212,-1.182976341915495,-0.2338543367078949,1387244.0,479.54493872400457,476.0109387240046,1388.6219387240046
22,16,22,f,1,0,14.0,14,1,high,2 + 9 + 1 + 1 + 1,14,13,12,14,490.5825257000106,492.6083240000007,494.12405850000505,499.1439764000097,499.8915957999998,499.8916006000072,501.4084809000051,502.4259108999977,e,14,0.7476193999900715,1,+10,21,-0.47176303746170944,-0.5092383860500416,-0.014872585084532375,489215.0,17.800488968276266,0.08588507307928506,-0.14572507411558888,492749.0,-24.829696209400403,0.11908247508933556,-0.3236481993350493,741911.0,494.1269387240046,490.59293872400457,743.2889387240045
23,16,22,f,1,0,15.0,15,2,high,7 + 1 + 9 - 1 - 8,8,6,8,7,503.9427519000019,505.9707005000091,507.48597740000696,512.5045723000076,514.8355713000055,514.8355763,516.352089100008,517.3694138999999,e,7,2.330998999997973,0,+0,21,-37.518345988762235,-0.49555743336193636,0.33062761740359026,502577.0,-9.130657925494926,-0.29481191355006153,0.48911918440877145,506111.0,13.300026145374591,-0.036567303421509934,-0.4238236180695565,714422.0,507.4889387240046,503.9549387240046,715.7999387240046
24,16,22,f,1,0,16.0,16,2,low,9 + 4 + 5 + 1 - 1,18,18,17,19,518.8862279000023,520.9253382000024,522.440654200007,527.460063400009,527.9155719999981,527.9155765000032,529.4320843000023,530.4494763999974,e,19,0.4555085999891162,0,+0,21,21.421542796418315,-0.04388143781878773,0.2847145991933284,517532.0,9.229851576577568,-0.03614813514241799,0.1382141040223699,521066.0,-17.882502454537676,0.2212706980888015,-0.4871916494083539,727687.0,522.4439387240046,518.9099387240046,729.0649387240046
25,16,22,f,1,0,17.0,17,1,low,5 + 6 + 1 + 1 + 1,14,15,14,16,531.9668621000019,533.9944729999988,535.5095899000007,540.5276211000019,541.3716200000054,541.371625300002,542.8881116999983,543.9050627000106,w,14,0.8439989000034984,1,+1,22,-11.0175000396653,-0.16526089355595985,0.7998966424721039,530601.0,-26.593998380287914,0.5841284608706854,0.1719117921014801,534134.0,-20.906051513713123,-0.006751339898127817,0.040840968912266185,787776.0,535.5119387240046,531.9789387240046,789.1539387240045
26,16,22,f,1,0,18.0,18,3,low,7 - 5 + 9 + 1 - 4,8,8,7,9,545.4219118000037,547.4469540999999,548.9621497000044,553.9819341000111,555.8515646000014,555.8515696000104,557.368008999998,558.3847211000102,w,7,1.869630499990308,0,+0,22,-7.36718183073962,-0.1567141962318761,0.23684159989060793,544053.0,3.648903929377269,1.264296598148626,0.003388674005434744,547588.0,21.49474343437472,0.35248534244224494,0.07301846469981732,1632579.0,548.9659387240046,545.4309387240046,1633.9569387240047
27,16,22,f,1,0,19.0,19,4,low,8 + 4 + 7 - 5 - 6,8,8,9,6,559.9015350000118,561.9286131999979,563.4438384000096,568.4632439999987,570.211458100006,570.2114632000012,571.7280782000016,572.7452170000033,w,9,1.748214100007317,0,+0,22,-10.944515708736635,-0.542736713316851,-0.2753390925283292,558535.0,1.983096816171864,-0.05580227670831528,-0.0340152371596778,562069.0,1.6353502149584926,-0.9726156186641939,0.04880215971922186,1646163.0,563.4469387240046,559.9129387240046,1647.5409387240047
28,16,22,f,1,0,20.0,20,2,low,5 - 1 + 1 + 8 + 9,22,21,23,22,574.2619534000114,576.2884663000004,577.8036613000004,582.8230518000055,585.8834574000066,585.8834623000002,587.3999178000086,588.4168516000063,e,22,3.060405600001104,1,+1,23,1.998839763657788,-0.11291792041413418,0.9440078166941452,572894.0,12.520885299658659,-0.38174665500091765,-0.8282598381939015,576429.0,-4.623915175242929,0.3516469265029647,-0.5469845296908566,757854.0,577.8069387240046,574.2719387240046,759.2319387240046
29,16,22,f,1,0,21.0,21,3,low,5 + 6 + 7 - 1 - 9,8,8,7,9,589.9339760000003,591.9620445000037,593.4772382000083,598.4958328000066,599.5236279000092,599.5236331000051,601.0400733999995,602.0574680999998,e,9,1.0277951000025496,0,+0,23,-4.069894590266177,-0.5271997539071349,-0.25640365128528186,588567.0,-42.20729591753987,0.333497444995706,0.14959087375223756,592102.0,15.174633243518578,0.9911717052997391,0.04448545369403556,1732825.0,593.4799387240046,589.9449387240046,1734.2029387240048
30,16,22,f,1,0,22.0,22,1,low,2 + 1 + 1 + 9 - 1,12,12,11,13,603.5740385000099,605.6004272999999,607.1153855000011,612.1341365999979,613.0754701999977,613.0754754000081,614.5919445000036,615.6088097000029,q,12,0.9413335999997798,1,+1,24,42.55382884890837,0.2552507568848803,-0.22692111590302044,602206.0,11.109073696989654,0.12990102344820853,0.5529062941304077,605740.0,-17.806176157809496,0.3318792105473083,0.5713212497242832,1063636.0,607.1179387240046,603.5839387240046,1065.0139387240047
31,16,22,f,1,0,23.0,23,4,high,4 + 8 + 9 - 3 + 7,25,26,24,25,617.1257588000008,619.1533613000065,620.6694395000086,625.6881399999984,627.1874632000108,627.187468300006,628.7041405000055,629.7216334999976,w,24,1.4993232000124408,0,+0,24,-6.959233833071501,0.08509766075495184,-0.2881483071973072,615759.0,-5.613888583913699,-0.02782963879421274,0.7314068148617339,619294.0,25.59009376252384,-1.165702509768776,0.047011017666378496,1692107.0,620.6719387240046,617.1369387240046,1693.4849387240047
32,16,22,f,1,0,24.0,24,4,low,4 + 7 + 9 - 5 + 7,22,22,24,23,631.2378803000029,633.2650748000015,634.7804762000014,639.8005239000049,641.3553956000105,641.3554006000049,642.8715781000064,643.8886052000016,q,22,1.5548717000056058,1,+1,25,-12.311899050978017,0.196690669368202,-0.7246316323364028,629871.0,2.962721794957943,-0.4106377583112506,-0.15249233407192353,633406.0,11.255089097125492,0.3355809545861508,-0.0248927127254166,2269809.0,634.7839387240045,631.2489387240046,2271.186938724005
33,16,22,f,1,0,25.0,25,4,low,5 + 9 - 4 + 7 + 6,23,25,24,23,645.4052807000116,647.4290352000098,648.9443680999975,653.962583600005,656.6195244999981,656.6195297000086,658.1360405000014,659.1535319000104,q,25,2.65694089999306,0,+0,25,-9.37349872019862,-0.5004250284951421,-0.3288896056674182,644035.0,-6.448248916722008,-0.2338102858227935,-0.3630419012749715,647569.0,20.190882045848845,-0.5042420172090107,0.057167221776941224,2311976.0,648.9469387240046,645.4129387240046,2313.353938724005
34,16,22,f,1,0,26.0,26,1,low,2 + 1 + 9 + 1 - 1,12,13,12,11,660.6702772999997,662.6979307000001,664.2132972000109,669.2317667000025,669.7874758000107,669.7874812000082,671.3041673999978,672.3212878000049,w,12,0.5557091000082437,1,+1,26,28.025523197073298,-0.19002108025950193,0.946548044468579,659303.0,21.173909690448106,-0.5591786876199212,-0.052103443971434515,662837.0,-23.187799503620184,0.08384191205858205,0.009561056622937159,1206420.0,664.2149387240046,660.6809387240046,1207.7979387240048
35,16,22,f,1,0,27.0,27,2,high,7 + 5 + 1 + 9 + 1,23,23,21,22,673.837500300011,675.8637656000064,677.3790424000035,682.3973797000071,684.6913495000044,684.6913549000019,686.208120299998,687.2253245000029,q,23,2.293969799997285,1,+10,36,-40.5566105683602,0.5835918188913798,0.6753670925998723,672469.0,12.61863253480972,-0.20462785074499923,-0.9133844778946716,676003.0,12.23052969575718,-0.2905678087788188,0.05129825830122803,1006798.0,677.3809387240046,673.8469387240046,1008.1759387240046
36,16,22,f,1,0,28.0,28,3,low,4 + 1 + 8 + 9 - 5,17,19,18,17,688.7417625000089,690.7677114000107,692.2830314000021,697.302088299999,698.8833755000087,698.8833810000069,700.3999290000065,701.4168799000036,e,17,1.5812872000096831,1,+1,37,51.039398413319105,0.19465676562722845,0.03278050372131602,687373.0,-4.11675948841061,-0.11709340513278388,-0.3351155966926975,690908.0,-25.899523327896166,0.045483873286834786,0.006289782851450099,1917146.0,692.2859387240046,688.7509387240046,1918.5239387240047
37,16,22,f,1,0,29.0,29,2,low,4 + 9 - 7 + 1 - 1,6,5,6,8,702.934737500007,704.9620794000075,706.4774632000044,711.4962489000027,714.2833461000118,714.283351200007,715.7997441000043,716.8166824000073,w,6,2.787097200009157,1,+1,38,8.831871942414473,-0.23667734498038318,-0.3407363391515008,701568.0,3.5831260218784813,0.5805948481543832,0.32897410740875266,705102.0,-37.77910593085883,-0.4791934493074175,0.24187034213327774,1276075.0,706.4799387240046,702.9459387240046,1277.4529387240048
38,16,22,f,1,0,30.0,30,2,high,6 + 1 + 8 + 5 - 1,19,19,17,18,718.333493099999,720.359746800008,721.8746874000062,726.8939069000044,727.5473174000072,727.5473225000023,729.0645100000111,730.081957500006,q,19,0.6534105000027921,1,+10,48,18.81503714789759,0.006623506154957326,-0.8055514200301741,716965.0,27.298300903859193,0.48904454006244613,0.13436784631743093,720499.0,17.581666714761845,-0.27076477618378014,0.008952585691888615,1345563.0,721.8769387240046,718.3429387240046,1346.9409387240048
39,16,22,f,1,0,31.0,31,1,high,8 + 1 + 1 + 1 - 4,7,8,5,7,731.5984003000049,733.6265387000021,735.1414783000073,740.159607300011,741.7713629000064,741.771368200003,743.288108400011,744.3053559000109,e,7,1.6117555999953763,1,+10,58,20.759952132363217,-1.2112780781324872,0.5391260616240761,730232.0,-20.377860566526707,0.18312951336484762,0.07835093179823671,733765.0,-36.684715209052,-0.007265073704619596,-0.08215399416157654,1234436.0,735.1429387240046,731.6099387240046,1235.8139387240046
40,16,22,f,1,0,32.0,32,2,low,5 + 9 - 8 + 1 + 1,8,7,8,9,745.8220883000031,747.8486400000111,749.3637770000059,754.3825006000116,757.71524830001,757.7152532000036,759.2320726000034,760.2490323000093,w,8,3.332747699998436,1,+1,59,13.994863927311894,0.07894408864740221,-0.09245220768927087,744454.0,0.7082108277495515,-0.6093244866129774,-0.6387364058237948,747988.0,11.951078185667399,0.1997529444621886,4.257735065470051,1402843.0,749.3659387240046,745.8319387240045,1404.2209387240048
41,16,22,f,1,0,33.0,33,3,high,2 + 1 + 9 - 7 + 6,11,13,11,12,761.7658342000068,763.7902814000117,765.3055176000053,770.3235922000022,774.5393258000113,774.5393313000095,776.0560647000093,777.0736548999994,w,11,4.215733600009116,1,+10,69,33.12756883425956,0.581439790568794,0.11414117094211562,760396.0,-11.64569953415683,0.20906170763039533,0.4179141682521115,763929.0,-13.496313085890124,0.17013970896873243,-0.12035391884277691,1930841.0,765.3069387240046,761.7739387240046,1932.2189387240046
42,16,22,f,1,0,34.0,34,1,high,9 + 1 + 1 + 7 - 1,17,19,17,16,778.5905261000007,780.6138886999979,782.1290825000033,787.1476158000005,787.6353761000064,787.6353806999978,789.1525886000018,790.1701064000081,w,17,0.4877603000059025,1,+10,79,-3.5133484746935832,-0.9343121234620204,0.34465800653458567,777219.0,12.586432567090345,-0.4331454639512833,-0.4894553781850286,780753.0,-8.432314281752099,0.18912408128728764,0.038760127506805464,1289476.0,782.1309387240046,778.5969387240046,1290.8539387240048
43,16,22,f,1,0,35.0,35,1,low,8 + 1 + 1 + 1 - 3,8,9,8,6,791.6874430000025,793.7122882000112,795.227455900007,800.2453149000066,802.627255200001,802.6272601000092,804.1438215000089,805.1612193000037,e,6,2.381940299994312,0,+0,79,7.428930318495912,-0.04185487218255979,0.1187868370983356,790318.0,28.935950809208926,-0.15877764841844577,0.35799712547650486,793851.0,9.893363821836175,-0.3408315416352439,0.17833939598415904,1618371.0,795.2289387240046,791.6959387240046,1619.7489387240048
44,16,22,f,1,0,36.0,36,2,low,5 - 8 + 7 + 1 + 1,6,6,7,8,806.6782043999992,808.7066167000012,810.2216506000113,815.2413457000075,818.5633264000062,818.5633315000014,820.0799407000013,821.0974028000055,e,8,3.321980699998676,0,+0,79,10.699270676900559,-0.10804041405108311,-0.5388170636330614,805312.0,-23.95421376109394,0.31512520170227365,0.1437364881333245,808846.0,-28.23056230967213,-0.5533181342181104,0.19367103255968554,1491507.0,810.2239387240046,806.6899387240046,1492.8849387240048
45,16,22,f,1,0,37.0,37,4,low,7 + 6 + 8 - 4 + 5,22,22,21,23,822.6143500000035,824.640355399999,826.1555937000085,831.1742211000092,833.2591990000074,833.2592041000025,834.7758909000113,835.7931504000007,w,21,2.0849778999981936,0,+0,79,41.585559958676804,0.3176986030684654,0.17396494716690114,821245.0,19.04039540122129,0.2786189444482483,0.45394404579591807,824779.0,-34.89103308037644,0.3348889175435481,-0.0029328312139527135,2450136.0,826.1569387240046,822.6229387240046,2451.5139387240047
46,16,22,f,1,1,38.0,0,3,low,9 + 3 - 4 + 6 + 7,21,21,22,23,954.7038596000056,956.7313037999992,958.246524800008,963.2667205000034,964.7710766000092,964.7710825000104,966.2876104000024,967.3045873000084,q,21,1.5043561000056798,1,+1,80,4.5745301072058915,-0.6362520799438602,0.2386801008551842,953336.0,-17.935418822713714,0.1771274476906921,0.45795804211716096,956871.0,-14.405472340349155,0.4255231483981685,-0.013129768303605793,1960690.0,958.2489387240046,954.7139387240046,1962.0679387240048
47,16,22,f,1,1,39.0,1,3,low,8 - 1 + 6 - 7 + 5,11,11,12,13,968.8216856000072,970.8435002000042,972.3585460000032,977.3779114000064,978.5551368000016,978.5551419000112,980.0721139000088,981.0903882999992,w,12,1.177225399995223,0,+0,80,-125.39583966283536,1.956581817158912,1.2250343471173801,967448.0,-22.067141360416688,0.12580719202472634,0.5154421412590295,970982.0,0.6841081015683663,0.007048356123561916,0.3345315806319613,2115721.0,972.3599387240046,968.8259387240046,2117.0989387240047
48,16,22,f,1,1,40.0,2,4,low,3 + 8 - 4 + 9 + 6,22,23,22,21,982.6072606000088,984.6346221999992,986.1500530000048,991.1681397000066,992.539104800002,992.5391101999994,994.0556129000032,995.0732076999992,e,21,1.3709650999953735,0,+0,80,11.593079428774528,1.5584831796667356,0.9927388021050074,981239.0,34.27361925245076,-0.19893816619294924,-0.06658374750521201,984773.0,-22.386416384574755,-0.43016912246605976,-0.03945184722753248,2594055.0,986.1509387240046,982.6169387240046,2595.4329387240045
49,16,22,f,1,1,41.0,3,2,high,4 + 8 + 1 + 1 - 6,8,8,9,7,996.590045200006,998.6131728000036,1000.1283287999976,1005.1462625999992,1006.6590263000109,1006.6590312000044,1008.1759382000018,1009.1932426999992,q,8,1.5127637000114191,1,+10,90,21.7896564208907,0.5544220777664521,-0.336906692638709,995218.0,47.74647392622673,-0.11844789393014432,0.7367373042556711,998751.0,18.09372658507059,-1.3393109490972899,0.039511810632427924,1559547.0,1000.1289387240046,996.5959387240046,1560.9249387240047
50,16,22,f,1,1,42.0,4,2,high,5 + 7 - 8 + 1 + 1,6,6,8,7,1010.7102162000084,1012.7334250999992,1014.2485859000008,1019.2675371000078,1021.8270754999976,1021.8270805000066,1023.344700200003,1024.3617908000017,w,8,2.559538399989833,0,+0,90,30.747025798947746,0.22553855023966252,0.2901940890470063,1009338.0,14.60117111190052,0.9592993940540722,1.8935893940506991,1012872.0,-32.51538752812955,-0.9336640491164951,0.03530997009200898,1661562.0,1014.2499387240046,1010.7159387240046,1662.9399387240046
51,16,22,f,1,1,43.0,5,2,high,4 + 9 + 1 - 7 - 1,6,5,8,6,1025.8782138000097,1027.9045460000052,1029.4198812000104,1034.4392067000008,1035.2349869000027,1035.2349921999994,1036.751392899998,1037.76781640001,w,8,0.7957802000019001,0,+0,90,13.773051979070658,-0.007092353550007147,0.1334177205054825,1024509.0,14.119832548841588,-0.2427844375927588,-0.17978977952417807,1028044.0,7.552744402756605,-0.7428096610767634,-0.10778781846342222,1760386.0,1029.4219387240048,1025.8869387240047,1761.7639387240047
52,16,22,f,1,1,44.0,6,4,high,4 + 9 - 7 + 8 + 5,19,19,20,21,1039.284887300004,1041.3091188000108,1042.82429460001,1047.8444074,1049.6189779999986,1049.6189831000083,1051.1357704999973,1052.15368090001,w,20,1.7745705999986967,0,+0,90,39.831213598129935,0.3046574815749663,0.2423378883012779,1037913.0,10.567740839370146,0.13903825429402428,0.10874685796056838,1041449.0,13.132892718911162,0.03252348172011743,-0.060126101126955156,2695759.0,1042.8269387240048,1039.2909387240047,2697.1369387240047
53,16,22,f,1,1,45.0,7,1,low,3 + 1 + 1 + 9 - 1,13,12,14,13,1053.6704744000017,1055.6998164000106,1057.2150993000105,1062.2332203000117,1063.4989589000031,1063.4989638999978,1065.0152955000085,1066.0321612000116,e,13,1.2657385999918915,1,+1,91,-28.15925136184836,-1.4062580952346755,-0.6885513526768423,1052303.0,-14.738020093582985,0.4316709122499929,-0.10013216600935326,1055838.0,-8.151681741464996,-0.6114513112895521,0.08589645329101936,1719090.0,1057.2159387240047,1053.6809387240048,1720.4679387240046
54,16,22,f,1,1,46.0,8,4,low,5 + 7 - 4 - 6 + 9,11,13,12,11,1067.5490161000052,1069.57522530001,1071.0903078999982,1076.1106542000052,1077.3949620000058,1077.3949668999994,1078.9117857000092,1079.9291000000085,w,12,1.2843078000005337,0,+0,91,19.495125909640002,1.2194078409348652,-0.30777853214072914,1066179.0,10.2532391487441,0.3837653535442156,-0.0641532332494692,1069714.0,,,,,1071.0919387240046,1067.5569387240048,
55,16,22,f,1,1,47.0,9,3,high,4 + 7 + 1 + 9 - 5,16,17,16,18,1081.4457103000022,1083.4735653000098,1084.9887748000035,1090.00743540001,1092.7229225000046,1092.7229282000044,1094.2392736000038,1095.255352200009,q,17,2.715487099994789,0,+0,91,50.575536905133966,-0.5368655305368444,-0.3987699173706232,1080078.0,10.318521916802606,-0.44268239895956274,0.19759089936323448,1083611.0,8.128024367966509,-0.5175002918805065,-0.8940254420584659,2409080.0,1084.9889387240048,1081.4559387240047,2410.4579387240046
56,16,22,f,1,1,48.0,10,1,low,7 - 1 + 1 + 9 - 1,15,13,14,15,1096.7720574999985,1098.7979486000113,1100.3132211000047,1105.3330614000006,1106.6910198999976,1106.6910254000104,1108.207604100011,1109.2250226000033,q,13,1.357958499997039,0,+0,91,11.636495850340504,-0.39198323712459526,0.6859101001135435,1095402.0,2.9708087016881954,-2.01891708903778,-0.5884978035373525,1098937.0,19.17930833538384,0.38872679220129136,0.1648132090375256,1790546.0,1100.3149387240046,1096.7799387240048,1791.9239387240048
57,16,22,f,1,1,49.0,11,4,high,2 + 9 - 4 + 8 + 7,22,21,23,22,1110.7417642000073,1112.768931700004,1114.2840798000109,1119.303493200001,1120.6428619000071,1120.642867100003,1122.158977900006,1123.1760007999983,w,23,1.3393687000061618,0,+0,91,-54.596122820965924,-0.13359496074461852,-0.9000175656660181,1109373.0,9.655071393662253,-0.586555225579132,-0.06102108055375055,1112907.0,,,,,1114.2849387240046,1110.7509387240048,
58,16,22,f,1,1,50.0,12,2,high,2 + 1 + 9 - 4 + 1,9,11,8,9,1124.6928004000074,1126.7171440000093,1128.23225120001,1133.2517431000017,1134.3229512000107,1134.322956700009,1135.8396442000085,1136.8566991999978,w,8,1.071208100009244,0,+0,91,1.3634818496959609,0.12717388106705751,-0.0919320319725534,1123321.0,6.074071646506015,-0.5710442952274786,0.14916243520609207,1126855.0,-6.322246723107325,0.6029384856310864,0.10166271017969009,1974698.0,1128.2329387240047,1124.6989387240046,1976.0759387240048
59,16,22,f,1,1,51.0,13,1,high,7 - 1 + 9 + 1 - 1,15,15,14,13,1138.3733548000018,1140.402496900002,1141.9178709999978,1146.9368438000092,1148.8108764000062,1148.8108811999991,1150.3274237000005,1151.3446807,e,13,1.874032599997008,0,+0,91,44.82018253582182,-0.5111896420669844,-0.1332347631184505,1137006.0,-29.84714233848327,0.48081518826007663,0.005913656694090719,1140541.0,14.191268129028984,-1.5463128393469763,-0.0675698326025207,1818194.0,1141.9189387240046,1138.3839387240048,1819.5719387240047
60,16,22,f,1,1,52.0,14,2,low,9 + 1 + 6 + 7 + 1,24,24,23,25,1152.861368400001,1154.887914100007,1156.4031751000002,1161.4212579000014,1162.890792999999,1162.890798400011,1164.4074689000115,1165.4241887000098,w,23,1.4695350999973016,0,+0,91,-13.302475848752838,0.7376230663988439,0.060005287990317235,1151492.0,10.442171980985423,-0.0367980958951275,0.36091123394832136,1155025.0,-5.862916840246257,-1.4514704067642956,0.07125140879629166,2002793.0,1156.4029387240048,1152.8699387240047,2004.1709387240046
61,16,22,f,1,1,53.0,15,4,low,6 + 9 + 7 - 3 - 5,14,12,13,14,1166.9414418000088,1168.9670937000046,1170.4823100000067,1175.5010402000044,1177.9308452999976,1177.9308508000104,1179.4471384000062,1180.4644329000002,w,13,2.4298050999932457,0,+0,91,10.928999230196425,-0.23735975223379668,0.5081060211612045,1165571.0,-19.77377973383623,0.5246642342300554,-0.3952139585832888,1169105.0,,,,,1170.4829387240047,1166.9489387240046,
62,16,22,f,1,1,54.0,16,2,low,8 + 1 + 9 + 1 - 5,14,13,15,14,1181.9811688000043,1184.0081405000092,1185.5234378000025,1190.5415194000088,1190.9629117000004,1190.96291680001,1192.4800301000068,1193.4971765000082,w,15,0.4213922999915667,0,+0,91,16.55748452347457,-0.7142303163055352,0.13833781770191012,1180611.0,30.1557691789792,-0.3560754003673212,0.06298573903377536,1184145.0,-2.472853154108474,-0.5763822397147207,0.21605073701139843,2043337.0,1185.5229387240047,1181.9889387240048,2044.7149387240047
63,16,22,f,1,1,55.0,17,1,low,4 + 7 + 1 - 1 - 1,10,11,9,10,1195.0139412999995,1197.0412960000103,1198.5565286000055,1203.5751126000105,1206.282798500004,1206.2828037,1207.7992790999997,1208.8162250000023,e,10,2.707685899993521,1,+1,92,-4.602172263443887,0.12478665670830758,0.3300822147378977,1193645.0,10.201843407582505,-0.5469286144669736,0.06369118471454494,1197179.0,-0.05776683717590991,-0.8979916587619767,0.1265263933568168,1887778.0,1198.5569387240048,1195.0229387240047,1889.1559387240047
64,16,22,f,1,1,56.0,18,4,low,8 + 7 - 4 + 5 + 9,25,25,26,24,1210.3328131000017,1212.3581638000032,1213.8733012000012,1218.8924165000062,1220.8347702000028,1220.8347758000018,1222.351522900004,1223.368875600005,e,24,1.9423536999966016,0,+0,92,-11.457580035316521,1.2663386174391302,0.5661717065141976,1208962.0,-18.951647267172998,0.21558468155767851,0.32962907756978455,1212496.0,,,,,1213.8739387240048,1210.3399387240047,
65,16,22,f,1,1,57.0,19,1,low,5 + 1 + 1 + 6 + 1,14,14,16,13,1224.8858715000097,1226.9121054999996,1228.4274521000043,1233.4448297000054,1234.2987188999978,1234.2987241000085,1235.815481900005,1236.832559500006,q,14,0.853889199992409,1,+1,93,21.101138177820637,0.1286299769671162,-0.2807891850923925,1223516.0,7.821547159446304,-0.6452676528404968,0.0028892369841289067,1227049.0,-43.59716072636246,-0.06837358168395813,0.004363310092161177,1944097.0,1228.4269387240047,1224.8939387240048,1945.4749387240047
66,16,22,f,1,1,58.0,20,2,low,4 + 9 - 7 + 1 - 1,6,6,5,8,1238.349448699999,1240.3761316000018,1241.8913759999996,1246.9100173000045,1249.2587337000004,1249.258738900011,1250.775439100005,1251.7928604000044,w,5,2.348716399996192,0,+0,93,21.295082138369224,-1.293994497947204,-0.15858334770861848,1236980.0,13.322953518898744,-0.18120265031584193,0.14130340036315925,1240514.0,5.568043498198708,-0.304649345294834,0.16461016423551245,2551511.0,1241.8919387240046,1238.3579387240047,2552.8889387240047
67,16,22,f,1,1,59.0,21,2,high,8 + 1 + 9 + 1 - 4,15,14,16,15,1253.3097188000102,1255.3376702000096,1256.8528764000075,1261.871205500007,1262.5548057999986,1262.5548112000106,1264.0715335999994,1265.0885621000052,w,16,0.6836002999916673,0,+0,93,30.165997152604422,0.6297438086010487,0.338260464502107,1251941.0,-10.857671072329538,0.4674716550254798,1.7240355194756827,1255475.0,-6.7978715953432545,0.02193136515129357,0.36509870047266535,2681767.0,1256.8529387240046,1253.3189387240047,2683.1449387240045
68,16,22,f,1,1,60.0,22,2,low,4 + 1 + 9 + 1 - 6,9,8,7,9,1266.6057294000057,1268.6324950999988,1270.1478644000017,1275.165997300006,1275.9387903000024,1275.9387953000114,1277.4549341000093,1278.4718436000112,e,9,0.7727929999964545,1,+1,94,5.060036341000394,-0.8048831896622382,-0.06923142114898528,1265235.0,30.315347813894093,-0.3069892746744145,0.13377394351628746,1268769.0,2.178891043708142,0.4895041319184896,1.7102328610307314,2891174.0,1270.1469387240047,1266.6129387240046,2892.5519387240047
69,16,22,f,1,1,61.0,23,1,high,5 + 6 + 1 + 1 + 1,14,14,16,13,1279.9885461000083,1282.0164827000117,1283.5318868000031,1288.5497971000004,1289.3387248000072,1289.338729499999,1290.8548935,1291.872161899999,q,14,0.7889277000067523,1,+10,104,-0.08765917775727416,-0.035269256661552895,0.06798930278759707,1278620.0,57.947655940892076,-0.5303538148410629,0.4061411374814301,1282153.0,12.310759941539796,-0.4350791707656434,0.06632376764992642,2160913.0,1283.5309387240047,1279.9979387240046,2162.2909387240047
70,16,22,f,1,1,62.0,24,3,low,4 + 8 - 9 + 1 + 7,11,13,11,9,1293.3892022000073,1295.4142950000096,1296.9295254000026,1301.9479876999976,1302.866699999999,1302.8667055000114,1304.3837768000085,1305.400890600009,e,9,0.9187123000010616,0,+0,104,3.155755901260047,0.08679219336453148,-0.08764367211412782,1292018.0,1.574710356866742,0.8378553872949324,0.822097078874108,1295551.0,16.981322231525006,0.6191728477036138,0.16985359126613075,2565335.0,1296.9289387240046,1293.3959387240047,2566.7129387240047
71,16,22,f,1,1,63.0,25,4,high,3 + 9 - 4 + 7 + 6,21,19,21,20,1306.918346999999,1308.9454758000063,1310.4613440000105,1315.4798084000067,1317.7146655000106,1317.714670500005,1319.230983900008,1320.2481777000066,q,19,2.2348571000038646,0,+0,104,17.64159902762342,-0.37489628785790075,0.28577750043249317,1305549.0,3.414293749466973,-0.06065266439283867,0.06793430078100782,1309083.0,,,,,1310.4609387240048,1306.9269387240047,
72,16,22,f,1,1,64.0,26,4,high,9 + 7 - 5 + 8 + 6,25,25,24,27,1321.764975500002,1323.7920060000033,1325.3080396000005,1330.3268825999985,1332.306672000006,1332.3066766999982,1333.8230542000092,1334.840188800008,w,24,1.979789400007576,0,+0,104,43.78312994134788,0.39593313393441143,-0.10898013272412843,1320395.0,4.9736202714330435,-0.592016166486304,0.04697863195622576,1323930.0,,,,,1325.3079387240048,1321.7729387240047,
73,16,22,f,1,1,65.0,27,2,high,4 + 8 + 1 + 1 - 5,9,8,11,9,1336.3569878999988,1338.384917000003,1339.8992999000038,1344.917034900005,1345.4266544999991,1345.426659400007,1346.9425656000094,1347.959814300004,e,9,0.5096195999940392,1,+10,114,-51.09099012883851,0.29359845992696876,-0.01302979747369859,1334988.0,-1.4214612028453928,0.8532315360385097,-0.43222997910568095,1338521.0,,,,,1339.8989387240047,1336.3659387240048,
74,16,22,f,1,1,66.0,28,1,low,9 + 8 + 1 + 1 - 1,18,19,17,18,1349.4766332,1351.5033219000034,1353.0185026000108,1358.036724300007,1359.2346350000007,1359.2346405999997,1360.7512483000028,1361.7684646999987,w,17,1.197910699993372,0,+0,114,17.242193924736917,0.19141003882298513,-0.006746799389639069,1348106.0,-8.040663659281979,-0.3999978762967453,0.09936991065072487,1351641.0,-12.263545121798602,0.752245449149747,0.0642935733988792,2216288.0,1353.0189387240048,1349.4839387240047,2217.6659387240047
75,16,22,f,1,1,67.0,29,1,high,6 + 1 + 8 + 1 - 1,15,13,14,15,1363.2850604999985,1365.3130218000006,1366.8282965000108,1371.8463703000016,1372.8025653000077,1372.802571200009,1374.319497900011,1375.33669370001,q,13,0.9561950000061188,0,+0,114,-1.4394121097455486,-0.7607449539289126,0.013601824361491266,1361916.0,10.402588644927402,0.6619001172623511,0.12849709530767628,1365450.0,6.9263854547090915,1.2197174327192357,0.013910343534431657,2256497.0,1366.8279387240048,1363.2939387240046,2257.8749387240046
76,16,22,f,1,1,68.0,30,4,low,8 + 4 + 7 - 5 - 6,8,9,6,8,1376.8531483999975,1378.8798397000064,1380.395120000001,1385.415086699999,1387.1067777999997,1387.1067829000094,1388.623686400009,1389.640711,e,8,1.691691100000753,1,+1,115,-7.538541676952555,-0.06927334454160139,0.13965726971356096,1375483.0,-13.29813801662531,-0.04778002294443606,0.12251997684736171,1379018.0,,,,,1380.3959387240047,1376.8609387240047,
77,16,22,f,1,1,69.0,31,2,low,3 + 8 - 5 + 1 + 1,8,8,9,6,1391.1580747999978,1393.1859507000045,1394.7014190000043,1399.7200464000052,1402.7066552000033,1402.7066605,1404.223224100002,1405.2405034999974,q,8,2.9866087999980664,1,+1,116,21.753534417514285,-0.4860850129254981,-0.05213401619751146,1389789.0,-4.867568883152533,-0.004728009611985051,-0.06872550466920568,1393323.0,,,,,1394.7009387240048,1391.1669387240047,
78,16,22,f,1,1,70.0,32,3,high,6 + 7 + 8 + 1 - 9,13,15,13,14,1406.757113700005,1408.7838794999989,1410.299137000009,1415.319217099997,1417.63460640001,1417.634611600006,1419.151913300011,1420.1695164999985,w,13,2.315389300012612,1,+10,126,17.226512381641392,-0.6517165582018611,-0.9027923731988352,1405387.0,-47.41085281264109,-0.3113650614653425,0.07520592195449227,1408922.0,4.332060726647661,-0.7279421995812312,0.08514867582423458,2579448.0,1410.2999387240047,1406.7649387240047,2580.8259387240046
79,16,22,f,1,1,71.0,33,3,high,7 - 1 + 8 - 6 + 4,12,13,11,12,1421.6857889000094,1423.7104643000057,1425.2272008,1430.2457606000098,1432.4505572000053,1432.4505623000005,1433.967084600008,1434.984176500002,w,11,2.2047965999954613,0,+0,126,-5.832266758784517,0.10569381028060043,0.012520210612634308,1420314.0,-16.712275258298078,-0.6240764493216719,-0.11770002019131143,1423849.0,35.10019275531022,-0.3097337569506262,-0.0852615346288006,2737799.0,1425.2269387240046,1421.6919387240048,2739.1769387240047
80,16,22,f,1,1,72.0,34,4,high,3 + 8 - 4 + 9 + 7,23,22,23,24,1436.5005642000033,1438.5261597000062,1440.0414276000083,1445.0604189000005,1447.1384824999986,1447.1384875000076,1448.6551010999974,1449.672337600001,q,22,2.0780635999981314,0,+0,126,6.978816655902298,0.1758920559944981,0.012216237518059003,1435129.0,-0.46309169072475775,-0.4921873617761303,0.17859463986984792,1438663.0,,,,,1440.0409387240047,1436.5069387240046,
81,16,22,f,1,1,73.0,35,3,high,2 + 9 + 1 - 5 + 7,14,15,12,14,1451.1889563000004,1453.2158685000031,1454.730989000003,1459.7492445000098,1462.2585011000049,1462.2585064000014,1463.7752136000054,1464.79238720001,w,12,2.509256599994842,0,+0,126,46.49987269744602,-0.36650336929145944,-0.06316403388574421,1449818.0,40.0006000143239,0.5609930148132118,0.1647263872241369,1453352.0,-15.61596435099683,-0.5342430496431145,-0.0215952329994038,2751742.0,1454.7299387240048,1451.1959387240047,2753.119938724005
82,16,22,f,1,1,74.0,36,4,high,6 + 7 + 9 - 3 + 5,24,24,22,23,1466.309171700006,1468.3357409000018,1469.8512314000109,1474.8696552000038,1476.0024971000094,1476.0025026000076,1477.5189854000057,1478.5361857000098,e,23,1.1328419000055874,0,+0,126,8.16205464531211,1.085144223742903,-0.3153702742342612,1464939.0,-42.547545368282535,0.9964123498363033,0.12291534332267484,1468473.0,,,,,1469.8509387240047,1466.3169387240048,
83,16,22,f,1,1,75.0,37,2,low,8 + 1 + 4 - 7 + 1,7,7,5,6,1480.0528730000078,1482.0812807000038,1483.596551499999,1488.6149183000089,1491.37058480001,1491.3705898000044,1492.8870989999996,1493.904104500005,q,7,2.755666500001098,1,+1,127,7.5147420975962635,0.10943228452801268,-0.09654893272273757,1478684.0,-2.6808516940780183,-0.22764081198390151,0.026859766145971076,1482218.0,,,,,1483.5959387240048,1480.0619387240047,
84,16,22,f,1,2,76.0,0,3,low,6 - 1 + 7 - 8 + 9,13,12,13,11,1521.5592951,1523.5877335999976,1525.103020800001,1530.1232164000105,1531.4825161000044,1531.4825211999996,1532.9992322000037,1534.01641940001,q,12,1.3592996999941531,0,+0,127,-3.927567495715447,-2.4640397716509916,-10.816281401403366,1520191.0,26.154764484647693,-0.004686730616064949,0.06358074034055505,1523726.0,46.07709652803193,-0.3312761022035682,-0.01874259866816752,2863478.0,1525.1039387240048,1521.5689387240047,2864.855938724005
85,16,22,f,1,2,77.0,1,2,high,8 + 1 + 7 + 1 - 4,13,14,12,13,1535.5322233000045,1537.559169600005,1539.074441500008,1544.093318500003,1546.274528900001,1546.274534199998,1547.7908632000035,1548.8085718000077,w,12,2.1812103999982355,0,+0,127,28.28182506569435,-0.5111678623483904,0.02151848267334322,1534162.0,48.424039350048425,0.2867501893221567,0.2647507692168145,1537696.0,,,,,1539.0739387240046,1535.5399387240047,
86,16,22,f,1,2,78.0,2,2,low,6 + 8 + 1 + 1 - 7,9,8,11,9,1550.3261088,1552.354640999998,1553.869691400003,1558.8883932000026,1559.4104910000024,1559.4104968000029,1560.9269982999976,1561.9444823000083,e,9,0.5220977999997558,1,+1,128,-20.871587745386833,-1.378215457971157,0.040824908512382185,1548958.0,67.42346454941823,1.3522855619304464,-0.031413623737982066,1552491.0,,,,,1553.8689387240047,1550.3359387240048,
87,16,22,f,1,2,79.0,3,2,low,3 + 9 + 1 - 5 + 1,9,7,8,9,1563.461344100011,1565.4870572000073,1567.002956700002,1572.021261700007,1575.0186375000048,1575.0186437000084,1576.5350558000064,1577.5524972999992,w,8,2.997375799997826,0,+0,128,9.636046756003527,0.9496981153321933,-0.13228029274110953,1562090.0,17.37472970237922,-0.6150665017230983,0.10261652084167983,1565624.0,,,,,1567.0019387240047,1563.4679387240046,
88,16,22,f,1,2,80.0,4,3,high,4 + 5 - 3 + 7 - 1,12,13,11,12,1579.0691945,1581.0971770000033,1582.6124503000028,1587.6311843000003,1589.9224772000016,1589.9224823999975,1591.4391139000072,1592.4559653000033,w,11,2.291292900001281,0,+0,128,-11.61113499272785,-1.9110796593673705,0.009303037812087078,1577700.0,-0.1129907648766384,0.33487515320348926,0.08026136909354897,1581234.0,1.3298345627331933,-1.2522660538573804,0.037240963354793655,3155277.0,1582.6119387240046,1579.0779387240048,3156.6549387240048
89,16,22,f,1,2,81.0,5,2,high,5 + 1 + 7 - 6 + 1,8,7,8,6,1593.972720500009,1596.0004079000064,1597.5154899000045,1602.5345177999989,1603.6183416999993,1603.6183467000085,1605.1347100999992,1606.1523980000056,q,7,1.083823900000425,0,+0,128,3.4063579597142013,-0.4791252490674669,0.08096181326531848,1592603.0,3.607253398188057,0.34927342355725344,0.07152650211754752,1596137.0,,,,,1597.5149387240047,1593.9809387240048,
90,16,22,f,1,2,82.0,6,1,low,6 + 1 + 1 + 7 - 1,14,13,12,14,1607.6901945999998,1609.7180664000043,1611.2329623000114,1616.251353700005,1618.2343859000102,1618.2343914000085,1619.7509729000012,1620.7679439000058,e,14,1.9830322000052547,1,+1,129,-1.4263632789558178,-0.3310984400414192,0.07408439330165062,1606320.0,39.089737169351075,0.609880612238209,0.02481877464467952,1609854.0,7.614405223730378,1.610326611286247,0.4745325992295317,2339288.0,1611.2319387240047,1607.6979387240046,2340.6659387240047
91,16,22,f,1,2,83.0,7,3,high,3 + 1 + 6 - 8 + 9,11,13,12,11,1622.2929130999985,1624.3215662000002,1625.8365001000057,1630.854485600008,1632.4423352000013,1632.4423402000102,1633.9592553999971,1634.9763846999997,e,11,1.5878495999932056,1,+10,139,20.699447362352615,-21.263283022208174,-12.623650651779394,1620924.0,32.14069994652806,0.3361526368511347,0.09248979125772983,1624457.0,,,,,1625.8349387240048,1622.3019387240047,
92,16,22,f,1,2,84.0,8,4,high,3 + 8 - 5 + 9 - 7,8,7,6,8,1636.4936060000036,1638.517529500008,1640.0328978000034,1645.0514158000003,1646.0263610999973,1646.02636660001,1647.542711800008,1648.560319700002,e,8,0.9749452999967616,1,+10,149,-22.58415977802117,-0.05088950743225862,0.000903638298523024,1635120.0,7.499279356221012,0.9249567432050538,-0.10792451162659322,1638654.0,,,,,1640.0319387240047,1636.4979387240046,
93,16,22,f,1,2,85.0,9,2,low,7 + 6 + 1 - 1 - 8,5,5,3,4,1650.0769862000016,1652.1034709000087,1653.6186665999994,1658.6374188000043,1661.4262633000037,1661.4262684999994,1662.9425075000036,1663.959384700007,q,5,2.788844499998959,1,+1,150,20.5086436293515,-0.3337042540443864,-0.06731109232744581,1648706.0,-100.76711629433996,-0.2998930466928522,0.09609259436421436,1652240.0,,,,,1653.6179387240047,1650.0839387240046,
94,16,22,f,1,2,86.0,10,2,low,2 + 9 + 1 + 1 - 5,8,8,6,7,1665.4760745000094,1667.5013842000044,1669.016774600008,1674.0351506000006,1676.130278800003,1676.1302836000104,1677.6465845000057,1678.663903400011,e,7,2.095128200002364,0,+0,150,-0.1969016997990778,0.06722830030626703,0.16261030350425676,1664104.0,9.695749282067933,-0.30890234342685297,0.038995846434044745,1667637.0,,,,,1669.0149387240047,1665.4819387240047,
95,16,22,f,1,2,87.0,11,4,low,8 + 3 - 4 + 5 + 9,21,22,23,21,1680.1794241000025,1682.208092700006,1683.7236017000105,1688.7423389000032,1691.9703210000007,1691.9703262000112,1693.487330700009,1694.504287200005,e,21,3.2279820999974618,1,+1,151,21.72231584955358,-0.7907090768137071,-0.01031711344572539,1678810.0,-28.89600387194601,-0.5233546426670896,0.10265720611443219,1682345.0,,,,,1683.7229387240047,1680.1879387240047,
96,16,22,f,1,2,88.0,12,4,low,5 + 8 - 4 - 6 + 9,12,14,13,12,1696.0207302000051,1698.0475106000083,1699.562455899999,1704.5810046000115,1705.7063059000066,1705.7063112000033,1707.2228704000008,1708.2401371000014,w,13,1.1253012999950442,0,+0,151,-39.53164775018949,0.5203932393581017,-0.07008869848390353,1694650.0,12.133589890126402,-0.3036479364324727,0.10633312225002722,1698183.0,,,,,1699.5609387240047,1696.0279387240048,
97,16,22,f,1,2,89.0,13,1,low,9 + 8 + 1 + 1 - 1,18,17,20,18,1709.7570385,1711.7847676000092,1713.300084100003,1718.318496799999,1718.9541540000064,1718.9541594000038,1720.4707968000002,1721.4877768000006,e,18,0.6356572000076994,1,+1,152,10.596244702164157,-1.7803389941780443,0.018835522083582745,1708387.0,19.12917131408617,-1.2278668938743929,0.05115220797567699,1711921.0,6.535734822041755,-0.675122578279713,0.21695853338959026,2366696.0,1713.2989387240048,1709.7649387240047,2368.0739387240046
98,16,22,f,1,2,90.0,14,3,low,4 + 7 - 3 + 5 - 1,12,11,12,13,1723.0045436000073,1725.0326109000016,1726.548297900008,1731.5664063000004,1732.690181500002,1732.6901867999986,1734.2059313000063,1735.22278180001,w,12,1.1237752000015462,1,+1,153,-13.753875921380896,-0.4655218854139562,-0.066270223116351,1721635.0,-50.7238752108326,0.16492561765369995,0.40593609443569756,1725169.0,,,,,1726.5469387240048,1723.0129387240047,
99,16,22,f,1,2,91.0,15,4,low,5 + 8 - 6 + 7 + 4,18,18,19,17,1736.7389079999994,1738.7665302000096,1740.2817072000034,1745.3003050000116,1746.2901435000094,1746.290148400003,1747.8066452000055,1748.824097999997,e,17,0.9898384999978588,0,+0,153,-10.46199051894255,0.8357996454544967,0.09879681558923536,1735368.0,-0.0265424506686891,-0.5142326633611125,-0.11542415749721724,1738903.0,,,,,1740.2809387240047,1736.7459387240046,
100,16,22,f,1,2,92.0,16,2,high,7 + 6 + 1 + 8 + 1,23,22,21,23,1750.340724300011,1752.3659496000037,1753.8816387000115,1758.90007660001,1760.2502575000108,1760.2502628000077,1761.766804400002,1762.7841822000046,e,23,1.350180900000851,1,+10,163,-3.1760769344951267,-0.5668924281747758,0.04764987820017064,1748968.0,-15.6366605836987,-0.3125777340368092,-0.00017623999883786823,1752502.0,,,,,1753.8799387240047,1750.3459387240048,
101,16,22,f,1,2,93.0,17,4,high,9 + 3 - 5 + 8 + 6,21,23,19,21,1764.300936300002,1766.3285463000066,1767.8439076000068,1772.8629269000085,1774.4260865000106,1774.426091500005,1775.9429869000014,1776.9602796000108,w,19,1.563159600002109,0,+0,163,-36.404366651062844,0.18760130919514673,0.04273690322043322,1762931.0,-31.47642235547496,-0.20578538442828975,0.04913148452435867,1766465.0,,,,,1767.8429387240046,1764.3089387240047,
102,16,22,f,1,2,94.0,18,1,high,4 + 8 + 1 - 1 - 1,11,13,11,9,1778.4772662000032,1780.5015569000095,1782.0168956999987,1787.0353319999997,1790.410158700004,1790.4101642000023,1791.9267641000042,1792.9439551000105,w,11,3.3748267000046326,1,+10,173,3.4902522924158355,-0.7672493887863334,0.04021731065103684,1777103.0,2.2092515503389354,-0.3670509633038579,-0.07113095477630549,1780637.0,18.176270692705337,-0.3899945971807348,0.25391701290259183,2422328.0,1782.0149387240047,1778.4809387240048,2423.7059387240047
103,16,22,f,1,2,95.0,19,3,low,7 + 5 + 9 + 1 - 6,16,16,15,14,1794.4609311000097,1796.4859878999996,1798.0013007000089,1803.021208300008,1804.8501560000004,1804.850161399998,1806.3666157999976,1807.382744100003,e,14,1.828947699992568,0,+0,173,-18.429449991210177,0.38889654074137336,-0.04577972429166666,1793088.0,4.944445784963488,2.689385009254625,4.0871356788169955,1796623.0,,,,,1798.0009387240048,1794.4659387240047,
104,16,22,f,1,2,96.0,20,1,low,6 + 9 + 1 + 1 - 1,16,16,15,14,1808.899585700012,1810.9265855999984,1812.4418473000117,1817.459633400009,1818.0580744000035,1818.0580797,1819.5749103999988,1820.5919127000088,q,16,0.5984409999946365,1,+1,174,-34.59063664228994,-0.9648403586489165,0.3491638370136758,1807529.0,12.696096223800247,-0.20083300836337248,0.2570162887381424,1811062.0,33.15847401644452,-0.003381649842808976,0.11749652997323978,2464872.0,1812.4399387240046,1808.9069387240047,2466.2499387240046
105,16,22,f,1,2,97.0,21,4,low,7 + 8 - 4 + 6 - 5,12,13,12,11,1822.1088267000011,1824.1342511000112,1825.6492852000083,1830.669222800003,1831.7061429000023,1831.706148600002,1833.2233107000063,1834.2411360999977,e,11,1.0369200999994064,0,+0,174,-5.182087141267218,-0.8515190404853135,0.09070582407293015,1820736.0,35.61058214413326,0.14630212302551637,0.11813579179628486,1824271.0,,,,,1825.6489387240047,1822.1139387240048,
106,16,22,f,1,2,98.0,22,3,high,7 - 1 + 8 - 6 + 4,12,11,13,12,1835.757943500008,1837.7850512000005,1839.3001225000044,1844.318798799999,1845.266143700006,1845.2661491000035,1846.782782000009,1847.8001613000088,q,11,0.9473449000070104,0,+0,174,3.718610236731994,-1.1610739820093183,-0.23796505652533706,1834387.0,-3.2964590501402746,-1.3744788968846295,-0.011829799494355475,1837921.0,,,,,1839.2989387240048,1835.7649387240047,
107,16,22,f,1,2,99.0,23,3,high,3 + 1 + 8 - 5 + 6,13,13,14,15,1849.3163546,1851.34012980001,1852.855311200008,1857.8735731000047,1859.002099900012,1859.002105100008,1860.518689900011,1861.536756100002,w,14,1.1285268000065116,0,+0,174,-36.76500850782886,0.24684613257513366,0.11500544696219217,1847942.0,-4.9494519875466745,0.4252963788251334,0.07971078802998965,1851475.0,,,,,1852.8529387240046,1849.3199387240047,
108,16,22,f,1,2,100.0,24,2,high,7 + 5 + 1 - 1 - 8,4,4,3,2,1863.0536651,1865.076815400011,1866.5922519000012,1871.610501100004,1874.521984700012,1874.521989900008,1876.0386550999972,1877.0560916000104,w,3,2.9114836000080686,0,+0,174,6.147126330052906,-1.431533258462112,-0.024335897211565483,1861679.0,9.314023888991414,-1.754947744370435,-0.11684106350550305,1865213.0,,,,,1866.5909387240047,1863.0569387240048,
109,16,22,f,1,2,101.0,25,1,high,2 + 1 + 9 + 1 + 1,14,13,12,14,1878.573485400004,1880.601897600005,1882.1170921000007,1887.135014200001,1887.6420167000035,1887.6420222000013,1889.1586346999973,1890.176144099998,e,14,0.5070025000022724,1,+10,184,-18.425107471404523,3.6487702115042024,3.374813141274658,1877203.0,-19.225619218861226,0.4531091036558177,0.12974891742569783,1880737.0,-15.824552650818408,-1.0978687908601392,0.037382050259330946,2509199.0,1882.1149387240048,1878.5809387240047,2510.576938724005
110,16,22,f,1,2,102.0,26,3,low,6 + 8 + 7 + 1 - 9,13,14,13,15,1891.692083300004,1893.7158090000007,1895.2311372000115,1900.24951590001,1902.7940861000095,1902.7940918000093,1904.3106828000016,1905.3283639,e,15,2.544570199999725,0,+0,184,13.543635680527217,0.3712263680636809,-0.06596573135824069,1890318.0,-18.661676209648363,0.4903235022308019,0.019251807453981584,1893851.0,,,,,1895.2289387240048,1891.6959387240047,
111,16,22,f,1,2,103.0,27,3,high,7 - 6 + 8 + 1 + 7,17,15,17,16,1906.8459079000024,1908.8679998000007,1910.3833228000003,1915.4018180999992,1917.009975100009,1917.009980700008,1918.5272572000104,1919.544543600001,w,17,1.608157000009669,1,+10,194,-6.884863569826734,0.11859847591849437,0.0814578548989986,1905470.0,-32.94706627633853,-0.9964348839797212,0.04808701000855753,1909004.0,,,,,1910.3819387240046,1906.8479387240047,
112,16,22,f,1,2,104.0,28,3,low,5 + 6 - 4 - 1 + 7,13,14,13,15,1921.0609018000105,1923.087510800004,1924.6027509999983,1929.621191600003,1930.705980300001,1930.705985500012,1932.2225326000043,1933.239295300009,w,13,1.084788699998171,1,+1,195,21.84162061051072,-1.1197911585063078,0.11115317866655872,1919689.0,1.5721095526778726,-0.5677882863800097,0.07528348024674725,1923223.0,,,,,1924.6009387240047,1921.0669387240048,
113,16,22,f,1,2,105.0,29,1,low,8 + 1 + 5 + 1 + 1,16,15,17,16,1934.756325800001,1936.7832019000048,1938.2985921000072,1943.318167000005,1943.9620509000088,1943.9620561000047,1945.4786830000085,1946.496008400005,e,16,0.643883900003857,1,+1,196,2.496500223376227,-0.7633493115661425,-0.17544033174450324,1933385.0,-12.71663247765915,0.5864862806456941,-0.14087081823629344,1936919.0,-1.9792797657745496,-0.5314250049919753,-0.4260562006433313,2537168.0,1938.2969387240048,1934.7629387240047,2538.545938724005
114,16,22,f,1,2,106.0,30,3,high,4 + 1 + 8 + 9 - 5,17,17,18,19,1948.0124127000015,1950.0400616999975,1951.5554152000116,1956.5736700999987,1960.553924000007,1960.5539291000025,1962.0711343000005,1963.0882165000075,q,17,3.980253900008393,1,+10,206,-30.629405943254497,-0.5884116733670561,-0.11274480672612186,1946642.0,-15.403749297590412,-0.8599490013333027,-0.013094965641403888,1950175.0,,,,,1951.5529387240047,1948.0199387240048,
115,16,22,f,1,2,107.0,31,2,high,8 + 1 + 1 + 9 - 4,15,16,15,14,1964.6049326000064,1966.628979800007,1968.1441123000116,1973.1616476000052,1974.5620338000008,1974.5620389000103,1976.0787717000055,1977.0961634999985,w,15,1.4003861999954097,1,+10,216,13.00530515105947,0.21182188529068213,-0.020241079232201198,1963231.0,-6.992323729735489,0.728669569767721,0.11145431409887419,1966764.0,,,,,1968.1419387240046,1964.6089387240047,
116,16,22,f,1,2,108.0,32,4,low,7 + 6 - 9 + 8 - 3,9,9,7,8,1978.6130974999976,1980.6362757000024,1982.1512861000083,1987.1716117000035,1988.8018931999975,1988.8018986000095,1990.318594700002,1991.3356035000036,e,8,1.630281499994453,0,+0,216,6.8804259991279295,-1.6363043652169234,-0.18025788271848597,1977238.0,12.763998986832156,-0.19906222692174325,0.02433663896583771,1980774.0,,,,,1982.1519387240046,1978.6159387240048,
117,16,22,f,1,2,109.0,33,2,low,9 + 4 - 6 + 1 - 1,7,7,9,8,1992.8522940999972,1994.8794115000053,1996.394343699998,2001.4132506000024,2002.6578606999972,2002.6578658000071,2004.1744274000084,2005.191252500008,q,7,1.2446100999950431,1,+1,217,30.248882072720725,-0.8025876688128619,0.10567461295172076,1991481.0,-11.228751432456374,-0.051252452725823794,0.09642827047917879,1995015.0,,,,,1996.3929387240048,1992.8589387240047,
118,16,22,f,1,2,110.0,34,4,low,5 + 6 - 4 + 7 + 9,23,23,24,25,2006.70803780001,2008.7321266000072,2010.247444000008,2015.2677335000044,2016.0979173000087,2016.097922900008,2017.6141648000048,2018.6315245000003,e,25,0.8301838000043062,0,+0,217,3.822128962934328,-0.3752004258537207,-0.031832436627174054,2005334.0,-12.812650900913198,-1.008366161274413,0.04131886892018133,2008869.0,,,,,2010.2469387240046,2006.7119387240048,
119,16,22,f,1,2,111.0,35,3,high,3 + 8 + 1 + 5 - 9,8,7,8,9,2020.1483160000064,2022.1750098000048,2023.6903453999985,2028.7087079000048,2029.353921800008,2029.3539271000045,2030.8704048000072,2031.887545999998,e,9,0.6452139000030002,0,+0,217,31.118211060429786,-0.18982887119685543,0.3398942423066962,2018777.0,-28.990163021794977,-11.0720547646116,-16.726415285714218,2022310.0,,,,,2023.6879387240047,2020.1549387240048,
120,16,22,f,1,2,112.0,36,2,high,7 + 8 + 1 + 9 + 1,26,26,25,24,2033.403632900008,2035.431236000004,2036.9466548000053,2041.9650650000112,2043.2019077000004,2043.2019132999997,2044.7183506,2045.7360000000044,q,26,1.2368426999892108,1,+10,227,-15.268317585966091,0.47131917405055734,0.21094289887223772,2032033.0,5.101165711621922,-1.0832466269332937,-0.07848701145251269,2035567.0,,,,,2036.9449387240047,2033.4109387240046,
121,16,22,f,1,2,113.0,37,4,high,4 + 7 + 8 - 3 + 9,25,24,25,26,2047.2524758000072,2049.281322900002,2050.796564700009,2055.815277200003,2056.993835500005,2056.9938406,2058.5103685000067,2059.527606600008,q,24,1.178558300001896,0,+0,227,-40.17324610627817,-1.1416036090979853,-0.03300513651190817,2045882.0,-6.584562085074722,0.29825350972644404,-0.10413734356780857,2049417.0,,,,,2050.7949387240046,2047.2599387240048,
122,16,22,f,1,3,114.0,0,3,high,2 + 1 + 9 - 4 + 6,14,14,16,15,2105.2300999,2107.255783600005,2108.771071700001,2113.789265200001,2115.5860668000096,2115.5860719000048,2117.1025435000047,2118.1198640000075,q,14,1.7968016000086209,1,+10,237,30.469857997474797,1.340983473845946,0.7891467605001345,2103857.0,6.838357242296571,-0.1362478839417669,-0.6045692417127113,2107391.0,,,,,2108.768938724005,2105.2349387240047,
123,16,22,f,1,3,115.0,1,4,low,2 + 9 - 3 + 5 + 8,21,21,22,23,2119.6364119000064,2121.6635644000053,2123.1790039000043,2128.197169600011,2130.1377838000044,2130.1377894000034,2131.6542274000094,2132.671357200001,w,22,1.9406141999934332,0,+0,237,16.935175525580494,0.40719710226124484,-0.04722760267237813,2118265.0,32.818704643969454,-0.4496265261826444,0.3341105004266156,2121798.0,,,,,2123.1759387240045,2119.6429387240046,
124,16,22,f,1,3,116.0,2,2,high,9 + 6 + 1 + 7 + 1,24,24,25,23,2134.1872871000087,2136.210704500001,2137.725897299999,2142.7440681000007,2146.1057310000037,2146.1057361999992,2147.6222774000053,2148.640402300007,w,25,3.361662900002557,0,+0,237,12.804472038592234,0.003043241788512674,-0.01023305399318053,2132812.0,8.998870441488311,-0.38383915751794007,0.06919232222366789,2136345.0,,,,,2137.7229387240045,2134.1899387240046,
125,16,22,f,1,3,117.0,3,1,high,5 + 8 - 1 + 1 + 1,14,16,14,12,2150.1570950000023,2152.185238300008,2153.7003841000114,2158.719352900007,2160.777789400003,2160.7777952000038,2162.2944907000056,2163.3120900000067,w,14,2.058436499995878,1,+10,247,-49.211050214729795,-0.24759811311976243,0.6772588391171346,2148787.0,5.0293446848639665,-0.3470000157016564,0.10804023665655516,2152321.0,-72.33499372478181,-0.3488851220204756,-0.12640956462524633,2708991.0,2153.6989387240046,2150.1649387240045,2710.3689387240047
126,16,22,f,1,3,118.0,4,2,high,6 + 1 + 7 - 8 - 1,5,4,5,7,2164.8288735000096,2166.85525030001,2168.370538700008,2173.3890673999995,2173.8737574999977,2173.873762300005,2175.39036070001,2176.4076760000025,e,7,0.4846900999982608,0,+0,247,10.921918116018318,-0.8223829023480889,0.012045063114027865,2163456.0,25.505179123264337,-0.07873736123075403,-0.3530177964432084,2166990.0,,,,,2168.3679387240045,2164.833938724005,
127,16,22,f,1,3,119.0,5,3,high,8 + 6 - 7 + 1 - 4,4,4,5,3,2177.924213899998,2179.9511308000074,2181.4665508000035,2186.4866098000057,2187.609679900008,2187.6096849000023,2189.125893900011,2190.1432946999994,w,5,1.1230701000022236,0,+0,247,66.63962303207788,0.3741282678101907,-0.14211034470141648,2176552.0,13.2956859565234,-0.6961584827171095,0.6499990485131584,2180088.0,,,,,2181.465938724005,2177.929938724005,
128,16,22,f,1,3,120.0,6,3,low,2 - 4 + 9 + 7 + 1,15,15,16,13,2191.659909599999,2193.6835348000022,2195.1987047,2200.217051700005,2201.097707000008,2201.097715900003,2202.614193800008,2203.631476800001,w,16,0.8806553000031272,0,+0,247,-1.6763742505086316,0.7579009676759538,0.13511000072034896,2190285.0,-64.55706585135954,0.41993373204250517,-0.10877200289543043,2193818.0,,,,,2195.195938724005,2191.6629387240046,
129,16,22,f,1,3,121.0,7,1,low,5 + 1 + 1 + 9 + 1,17,19,17,16,2205.1481446000107,2207.174845300004,2208.6901458000066,2213.70798810001,2216.1537801000086,2216.1537854000053,2217.670354800008,2218.6865718000045,w,17,2.445791999998619,1,+1,248,-3.595397524294187,-0.8340628217004618,-0.015505560846017508,2203776.0,-14.924846137345686,-0.16862709625273808,-0.07954399437732262,2207309.0,12.427149143255006,-0.11257448601655895,0.02716141314635845,2764951.0,2208.686938724005,2205.1539387240045,2766.3289387240047
130,16,22,f,1,3,122.0,8,4,low,4 + 7 - 8 + 9 - 3,9,11,8,9,2220.2035860000037,2222.2287061000097,2223.743899499997,2228.765272000004,2229.6816426000005,2229.681647800011,2231.1983167,2232.215080000009,q,11,0.9163705999962986,0,+0,248,-10.851084136108385,-1.5551135758850805,0.012108084850560807,2218830.0,8.59945128468459,0.27729464553375394,0.05188712170494769,2222366.0,,,,,2223.7439387240047,2220.2079387240046,
131,16,22,f,1,3,123.0,9,1,high,3 + 1 + 8 - 1 + 1,12,12,13,10,2233.7320072,2235.760388299997,2237.275692100011,2242.293979900001,2242.7376354000007,2242.737640799998,2244.2544840000046,2245.271686200009,e,10,0.443655499999295,0,+0,248,3.6788160292184955,-0.33786342513632484,0.13608899155926002,2232361.0,-8.27527782706957,-0.014856632404070425,-0.05707868329513199,2235895.0,13.584027022483381,-0.30135496074885104,0.12063203976611292,2905422.0,2237.2729387240047,2233.7389387240046,2906.7999387240047
132,16,22,f,1,3,124.0,10,1,high,3 + 1 + 9 + 1 - 1,13,12,14,13,2246.788233200001,2248.8123911,2250.327577200005,2255.3456645000115,2256.361740000008,2256.3617453000043,2257.8784151,2258.895702499998,e,13,1.0160754999960773,1,+10,258,23.454318451598702,-0.4518868458031253,0.11447331157909724,2245413.0,-6.302256087960409,-0.591109322811306,0.03947514603235325,2248947.0,4.002088402927902,0.30517142492824156,0.17935997175549723,2946374.0,2250.324938724005,2246.7909387240047,2947.7519387240045
133,16,22,f,1,3,125.0,11,4,high,9 + 4 - 6 + 8 + 7,22,24,22,21,2260.412380499998,2262.437829500006,2263.953007300006,2268.9716209000035,2269.6735721000005,2269.673577499998,2271.1901859000063,2272.2071334000066,w,22,0.7019511999969836,1,+10,268,14.18251798499739,0.7352698137653277,0.037642439590063415,2259039.0,-10.283291404417803,0.5607891205367217,-0.07793774989760172,2262573.0,,,,,2263.9509387240046,2260.416938724005,
134,16,22,f,1,3,126.0,12,2,low,2 + 9 - 4 + 1 + 1,9,11,9,8,2273.7240787000046,2275.7521021,2277.26737880001,2282.2851298000023,2284.4096383,2284.409643600011,2285.9263088000007,2286.9435028000007,e,8,2.1245084999973187,0,+0,268,20.563644660463787,0.590252057125042,-0.08036829232664089,2272353.0,21.986118421789268,1.2482569753303672,-0.04776568050061658,2275887.0,,,,,2277.264938724005,2273.730938724005,
135,16,22,f,1,3,127.0,13,3,high,3 + 8 - 7 - 1 + 9,12,14,13,12,2288.460673300011,2290.487959200007,2292.0031032999977,2297.023367300004,2298.4015319000027,2298.40153670001,2299.9182067000074,2300.9353323000105,w,13,1.378164599998854,0,+0,268,-29.881009943905212,-0.10328140591071033,0.07947094755762119,2287089.0,30.47618288374678,1.2614910721953763,0.04835397819378784,2290624.0,,,,,2292.0019387240045,2288.4669387240046,
136,16,22,f,1,3,128.0,14,4,high,5 + 7 - 4 - 6 + 9,11,13,12,11,2302.451997000011,2304.476560700001,2305.9918086000107,2311.010452200004,2311.8415583000024,2311.84156310001,2313.357978800006,2314.375246900003,e,11,0.8311060999985784,1,+10,278,-2.4559367482610313,-0.6360368840826514,0.0013036804631954002,2301078.0,41.61784771543959,-0.07256720609966294,0.023479596084431842,2304611.0,,,,,2305.9889387240046,2302.4559387240047,
137,16,22,f,1,3,129.0,15,4,low,9 + 8 - 5 - 7 + 6,11,11,13,10,2315.891604200005,2317.9188077,2319.4336318999995,2324.452332800007,2325.697544800001,2325.697550099998,2327.2140855000034,2328.2316422000004,w,13,1.2452119999943534,0,+0,278,2.60118473189548,1.91862540859427,0.39869990974657,2314520.0,-21.626463635817498,-0.26042372033702854,-0.13821177886955782,2318053.0,,,,,2319.4309387240046,2315.8979387240047,
138,16,22,f,1,3,130.0,16,1,low,7 + 1 + 6 + 1 + 1,16,16,17,18,2329.7486358000024,2331.775874400002,2333.290611200005,2338.3085578000027,2339.1535334000077,2339.153538300001,2340.670022899998,2341.687229400006,q,16,0.8449756000045454,1,+1,279,12.640240520692196,0.2709069449848087,0.5428217835949507,2328377.0,-1.3984591146545853,1.710708043241251,0.005459655263047036,2331909.0,12.871252456233664,0.2192584273935685,-0.016714363878075345,2989862.0,2333.286938724005,2329.7549387240047,2991.239938724005
139,16,22,f,1,3,131.0,17,1,low,3 + 1 + 1 + 8 - 1,12,14,13,12,2343.203987700006,2345.2401331,2346.7554556000105,2351.773669900009,2353.337577500002,2353.337582799999,2354.854144900004,2355.871407800005,w,13,1.5639075999933991,0,+0,279,8.633064582589679,0.28940497378927255,-0.6096261926858406,2341841.0,-56.48623874771102,-0.18261608844231425,-0.043504079432948206,2345375.0,11.39605205320907,0.35933460402706974,-0.19709183266872232,3003142.0,2346.7529387240047,2343.2189387240046,3004.5199387240045
140,16,22,f,1,3,132.0,18,1,high,3 + 1 + 9 + 1 + 1,15,14,17,15,2357.3876661000104,2359.415363699998,2360.9307252,2365.948796900004,2366.5614262000017,2366.5614313000115,2368.0781919,2369.0950905000063,e,15,0.6126292999979341,1,+10,289,28.594416085372995,-0.7904207816408384,-0.13413661597647542,2356016.0,-60.43672736856503,0.3619351882658606,-0.03663918535095112,2359550.0,-16.00625983588957,-1.1895808468200757,0.03408347543590362,3030165.0,2360.927938724005,2357.393938724005,3031.5429387240047
141,16,22,f,1,3,133.0,19,3,high,7 - 1 + 9 - 5 + 4,14,14,13,15,2370.611629700012,2372.6366744999978,2374.1518044000118,2379.1706191999983,2380.233479100003,2380.233484199998,2381.7500425000035,2382.7670028,w,13,1.062859900004696,0,+0,289,-48.05473515247683,-0.5655562064312658,-0.229484084644886,2369238.0,0.7476432419787855,-1.0157315608748192,0.07319896108543067,2372771.0,,,,,2374.148938724005,2370.6159387240045,
142,16,22,f,1,3,134.0,20,4,high,8 + 4 - 5 + 7 - 6,8,8,7,6,2384.2837672000023,2386.3092965000105,2387.8244591999974,2392.842829800007,2394.6015817000007,2394.601586900011,2396.118172500006,2397.1358783000032,w,7,1.7587518999935128,0,+0,289,1.7105855840329696,-0.2881182257806554,0.3994024267452043,2382910.0,-0.028321464261896523,-1.1412194567000427,-0.14810538438621057,2386444.0,,,,,2387.8219387240047,2384.2879387240046,
143,16,22,f,1,3,135.0,21,3,high,4 + 8 - 3 + 5 - 1,13,14,12,13,2398.653020900005,2400.678980900004,2402.1942847000028,2407.212653399998,2408.945437400005,2408.9454425000004,2410.4617786000017,2411.479015200006,e,13,1.7327840000070864,1,+10,299,-27.227799423244928,-0.1029870828372168,-0.17777024300577526,2397280.0,5.224557833085601,-0.4359173975600843,-0.0644465470733655,2400814.0,,,,,2402.1919387240046,2398.657938724005,
144,16,22,f,1,3,136.0,22,1,high,7 + 1 + 4 + 1 - 1,12,13,11,12,2412.995165600005,2415.022935700006,2416.538295899998,2421.5570935,2422.193717000002,2422.19372190001,2423.7098552000098,2424.7271267000037,e,12,0.6366235000023153,1,+10,309,-11.809041573084897,1.3564711943248957,-0.11217172639231077,2411624.0,2.782480902360028,1.254262291637283,0.04119547869041362,2415158.0,,,,,2416.5359387240046,2413.0019387240045,
145,16,22,f,1,3,137.0,23,2,low,2 + 1 + 9 - 4 + 1,9,11,9,8,2426.2437980000104,2428.271143100006,2429.786505000011,2434.804283000005,2436.009392500011,2436.00939810001,2437.525826900004,2438.54294520001,e,8,1.205109500006074,0,+0,309,-13.552374984609791,-1.6017387619996413,0.06524689522993476,2424872.0,15.542308383473426,-0.8917644804946461,-0.08195800000449038,2428405.0,,,,,2429.782938724005,2426.2499387240046,
146,16,22,f,1,3,138.0,24,4,high,2 + 5 - 3 + 9 + 8,21,19,21,22,2440.060060100004,2442.087039300008,2443.602180700007,2448.6216571999976,2450.001361900009,2450.001367500008,2451.5181086000084,2452.5352277000056,w,21,1.3797047000116436,1,+10,319,-0.3554021162090315,-0.1366254797407649,-0.2351960208298287,2438688.0,-34.8720587201141,1.8250962552664394,0.249024956816442,2442222.0,,,,,2443.599938724005,2440.065938724005,
147,16,22,f,1,3,139.0,25,1,low,6 + 1 + 8 + 1 + 1,17,15,17,16,2454.052727900009,2456.080269600003,2457.5955925000017,2462.613878000004,2464.7373263000045,2464.7373314,2466.253711600002,2467.2709463000065,w,17,2.123448300000746,1,+1,320,3.0284533163562344,-0.23735615595459159,-0.05990167357533416,2452681.0,0.6440983526121933,-1.1238688962248924,0.02223545165413454,2456215.0,,,,,2457.592938724005,2454.0589387240047,
148,16,22,f,1,3,140.0,26,2,high,3 - 1 + 9 - 5 + 1,7,6,7,5,2468.787813300005,2470.8138968999992,2472.329791600001,2477.348817899998,2479.3613542000094,2479.361359200004,2480.877812999999,2481.894877400002,e,5,2.0125363000115613,0,+0,320,-36.57019014381979,-0.34669697101538244,-0.04670513232295859,2467414.0,8.036504569846079,-0.39020297437390816,-0.0260167460380476,2470950.0,,,,,2472.3279387240045,2468.791938724005,
149,16,22,f,1,3,141.0,27,4,low,7 + 6 - 9 + 8 - 3,9,7,9,8,2483.4116614000086,2485.436497200004,2486.951797700007,2491.970432800008,2495.0733823000046,2495.073387299999,2496.5907409000065,2497.6076252000057,q,7,3.102949499996612,0,+0,320,-0.39088515503318977,-0.9609168279739553,0.033017844532097884,2482037.0,15.644870107030972,0.8718575988211175,-0.3272683490623902,2485571.0,,,,,2486.9489387240046,2483.4149387240045,
150,16,22,f,1,3,142.0,28,1,low,4 + 1 + 1 + 7 - 1,12,14,12,13,2499.1243956000108,2501.1523609,2502.667949399998,2507.6861268000066,2509.065331000005,2509.065335799998,2510.5817764000094,2511.5987766000035,w,12,1.3792041999986395,1,+1,321,53.918159276679845,-0.21558027809594638,-0.1655660795180336,2497753.0,-35.90107414536684,0.027195878057737488,-0.21561109588242688,2501287.0,,,,,2502.6649387240045,2499.130938724005,
151,16,22,f,1,3,143.0,29,2,low,5 + 8 + 1 - 1 + 9,22,23,21,22,2513.115447000004,2515.143565999999,2516.658125700007,2521.6765886000067,2524.0174382000114,2524.017443600009,2525.534303200009,2526.551567900009,q,23,2.3408496000047307,0,+0,321,-1.9916350352210515,-0.564984877428965,-0.07099989148235508,2511744.0,37.87330092215635,0.025351636547711998,-0.018159146432817908,2515277.0,,,,,2516.6549387240048,2513.121938724005,
152,16,22,f,1,3,144.0,30,1,high,7 + 1 + 5 + 1 - 1,13,14,13,12,2528.0688431000017,2530.0954940000083,2531.6108024999994,2536.630622600001,2537.033274600006,2537.033279299998,2538.549863100008,2539.5670997999987,w,13,0.4026520000043092,1,+10,331,-7.742521228392457,-0.5595444166793779,-0.1577675286326765,2526696.0,36.72951667632702,0.7853648398552631,0.037815187259726546,2530231.0,,,,,2531.608938724005,2528.0739387240046,
153,16,22,f,1,3,145.0,31,2,low,6 + 1 + 1 + 7 - 9,6,6,4,8,2541.0836053000094,2543.111924800003,2544.6272317999974,2549.645667500008,2551.377273200007,2551.377278800006,2552.893907800011,2553.9109020000037,q,6,1.731605699998909,1,+1,332,16.255575774547044,-1.0218553804684838,0.28643286613561014,2539712.0,-4.87113526565396,-0.37053178076874893,0.019545181985460847,2543246.0,,,,,2544.623938724005,2541.0899387240047,
154,16,22,f,1,3,146.0,32,3,low,7 + 1 + 9 + 5 - 6,16,15,14,16,2555.42761530001,2557.455577600005,2558.970482100005,2563.9892854000063,2565.2012535000104,2565.201258400004,2566.7175892000087,2567.7357155000063,e,16,1.2119681000040146,1,+1,333,5.797087837856516,-1.0756483849145502,-0.2700198552298878,2554056.0,-6.8087663987945035,-0.521105038990715,-0.25227296066892047,2557590.0,,,,,2558.967938724005,2555.4339387240047,
155,16,22,f,1,3,147.0,33,3,high,9 - 1 + 5 - 6 + 8,15,14,17,15,2569.2523469000007,2571.276665600002,2572.791880100005,2577.8097596000007,2579.3132161000103,2579.313221400007,2580.8298899000074,2581.847465900006,e,15,1.5034565000096336,1,+10,343,-3.85441870819308,-0.6669329793579717,-0.17418396742162834,2567877.0,16.67976257456841,0.6384213097151612,0.08355356502452693,2571410.0,,,,,2572.7879387240046,2569.2549387240047,
156,16,22,f,1,3,148.0,34,4,high,5 + 7 - 4 + 8 + 6,22,23,22,24,2583.364358400009,2585.391054600012,2586.905996300004,2591.9244842000044,2593.921311099999,2593.921316100008,2595.4377118999982,2596.455104000008,w,22,1.9968268999946304,1,+10,353,22.095915218238574,0.6316309224577026,-0.021009300801608788,2581992.0,4.639280052711193,-0.17800991589081594,-0.08554699743428285,2585525.0,,,,,2586.902938724005,2583.369938724005,
157,16,22,f,1,3,149.0,35,2,high,6 + 1 + 7 + 5 - 1,18,16,18,17,2597.971634500005,2599.999953000006,2601.5151705000026,2606.5333631000103,2609.417312300008,2609.4173174000025,2610.933902400008,2611.951259300011,e,17,2.883949199997005,0,+0,353,-1.8586695594851719,-0.20623766323485437,0.14260271151661308,2596600.0,-7.783075987168271,-0.5627102917729774,0.7322567733586269,2600134.0,,,,,2601.5119387240047,2597.9779387240046,
158,16,22,f,1,3,150.0,36,2,low,4 + 7 + 1 + 1 - 8,5,4,7,5,2613.468017799998,2615.495431100004,2617.011247200004,2622.0312054000096,2623.249177100006,2623.249182200001,2624.7655773000006,2625.783969600001,w,7,1.2179716999962693,0,+0,353,-42.548176634513034,-1.1265655099960057,-0.24959346040432973,2612096.0,4.191828149575699,-0.17458448969393459,0.05532097408054826,2615631.0,,,,,2617.0089387240046,2613.4739387240047,
159,16,22,f,1,3,151.0,37,1,high,4 + 9 + 1 - 1 - 1,12,13,12,11,2627.3004478000075,2629.3258621999994,2630.8409905000008,2635.860249800011,2636.7451956000004,2636.745200900012,2638.2615869,2639.278883799998,q,13,0.8849457999895094,0,+0,353,-6.376341601530047,0.10799194473287343,0.012189268758758143,2625926.0,4.316028683132128,0.13263464797076008,0.004216141858289113,2629461.0,,,,,2630.8389387240045,2627.3039387240046,
160,16,22,f,1,4,152.0,0,2,low,3 + 1 + 8 - 5 - 1,6,7,6,5,2671.269131699999,2673.296593200008,2674.8117708000063,2679.8309345000016,2681.633080200001,2681.633085499998,2683.149928400002,2684.1669667000097,w,6,1.802145699999528,1,+1,354,6.3739624067306115,1.5527779353898206,6.005447280046257,2669897.0,11.41101070537719,0.6470580005474282,0.0256929884960031,2673431.0,,,,,2674.8089387240047,2671.2749387240046,
161,16,22,f,1,4,153.0,1,4,high,3 + 9 - 5 + 6 + 8,21,23,22,21,2685.683635400012,2687.7111869000078,2689.2264353000064,2694.245372999998,2695.6251974000043,2695.625202700001,2697.141717700011,2698.1589160000003,e,21,1.3798244000063278,1,+10,364,-1.7097187793997168,-0.027527850499671658,0.222558780870449,2684311.0,-41.96800301915522,0.08762963785532119,0.3925576487158997,2687845.0,,,,,2689.2229387240045,2685.688938724005,
162,16,22,f,1,4,154.0,2,1,high,7 + 1 + 4 + 1 - 1,12,14,12,13,2699.675054300009,2701.698987800002,2703.2141962000023,2708.2325308,2708.857154800004,2708.857159700012,2710.3737714000017,2711.391252900008,w,12,0.6246240000036778,1,+10,374,-28.719502953091766,0.12406677219749529,-0.11143506089189126,2698299.0,32.26038199702276,0.5221630776417836,0.05580225708065223,2701833.0,,,,,2703.210938724005,2699.6769387240047,
163,16,22,f,1,4,155.0,3,4,low,6 + 9 + 7 - 3 - 5,14,15,14,13,2712.9076658999984,2714.931267600012,2716.4464721000118,2721.464970300003,2722.977017199999,2722.977022100007,2724.4936237000074,2725.5105016000016,e,13,1.5120468999957666,0,+0,374,-0.026431342274168657,-0.07668776687715528,0.05794265663994169,2711532.0,32.97809000787535,0.53607262624943,0.09099369179981598,2715065.0,,,,,2716.4429387240048,2712.909938724005,
164,16,22,f,1,4,156.0,4,3,low,5 - 1 - 4 + 6 + 7,13,15,14,13,2727.027342800008,2729.054336000001,2730.5693462000054,2735.5873313000047,2737.665123700004,2737.6651288,2739.1818754999986,2740.1986960000067,e,13,2.0777923999994528,1,+1,375,15.791298215002973,0.7851300173881661,0.017683957996742272,2725655.0,33.47241663841737,0.3416642356750925,-0.008377509826940521,2729188.0,,,,,2730.565938724005,2727.032938724005,
165,16,22,f,1,4,157.0,5,3,low,8 + 4 + 1 - 7 + 9,15,16,15,13,2741.7155787000083,2743.7399576000025,2745.255607400002,2750.2741946000024,2751.60912020001,2751.6091258000088,2753.125413600006,2754.142358500001,w,15,1.3349256000074092,1,+1,376,8.30322266364794,0.19640789618584087,-0.1729326736595891,2740340.0,8.756937488774348,-0.7627259023259549,-0.04972813692076228,2743874.0,,,,,2745.2519387240045,2741.717938724005,
166,16,22,f,1,4,158.0,6,1,low,6 + 9 + 1 + 1 - 1,16,15,14,16,2755.659018800012,2757.686499800009,2759.2016593000008,2764.220249500009,2764.8169864000083,2764.816991800006,2766.333584300009,2767.3509828000097,e,16,0.5967368999990867,1,+1,377,-18.608632592646746,0.1378559575117979,0.00016824876769572228,2754286.0,3.427988762714221,0.13352088975284548,-0.051134734465015264,2757820.0,,,,,2759.197938724005,2755.6639387240048,
167,16,22,f,1,4,159.0,7,3,low,3 - 7 + 5 + 1 + 9,11,11,13,12,2768.8674974000023,2770.89541360001,2772.4098123000003,2777.4288328999974,2779.3609870000078,2779.360992800008,2780.878488500006,2781.8954743000068,w,13,1.9321541000099387,0,+0,377,26.459354275960578,0.10939120590934515,-0.019077297788288705,2767495.0,-16.372025188312847,0.25610938350531764,0.10964882173497092,2771029.0,,,,,2772.4069387240047,2768.8729387240046,
168,16,22,f,1,4,160.0,8,3,low,9 - 5 - 1 - 6 + 8,5,7,4,5,2783.4122107000003,2785.436178200005,2786.951440200006,2791.969777899998,2793.089068500005,2793.089073700001,2794.6054607999977,2795.622879200004,q,7,1.1192906000069345,0,+0,377,-22.01359468811171,-2.3414747998109027,-0.1101252829178545,2782036.0,10.2309617756205,-0.11525619583314839,0.01111057320124953,2785570.0,,,,,2786.947938724005,2783.4139387240048,
169,16,22,f,1,4,161.0,9,2,high,3 + 8 + 1 - 5 + 1,8,8,6,9,2797.1395535000047,2799.1640492000006,2800.6793851999973,2805.6980977000057,2808.4490372,2808.4490429,2809.96562290001,2810.982873000001,w,6,2.7509394999942742,0,+0,377,-0.06239260849743555,-0.3757341164757264,0.07820077632398559,2795764.0,-59.82711992758175,-0.38701598858817565,-0.017504972411313657,2799298.0,,,,,2800.6759387240045,2797.141938724005,
170,16,22,f,1,4,162.0,10,3,high,5 + 1 + 7 - 8 + 6,11,11,13,9,2812.499489000009,2814.5266653,2816.041861100006,2821.0607307000028,2822.561163700011,2822.561169000008,2824.077495800011,2825.094956400004,w,13,1.5004330000083428,0,+0,377,2.4311576605027465,-0.1538582343246775,-0.9132169853283707,2811127.0,20.11817669483381,-1.813276646987962,0.14330413478383974,2814660.0,,,,,2816.0379387240046,2812.5049387240047,
171,16,22,f,1,4,163.0,11,2,low,3 + 9 - 1 - 5 + 1,7,6,7,5,2826.611520000006,2828.638498600005,2830.1536506999983,2835.1723990000028,2836.1058504000102,2836.105855600006,2837.62244240001,2838.6400529000093,q,6,0.9334514000074704,0,+0,377,-4.209059622975296,0.0979125826826408,-0.27213838384095657,2825237.0,-41.242155724028144,0.04387099484604384,0.01170455905956902,2828773.0,,,,,2830.150938724005,2826.614938724005,
172,16,22,f,1,4,164.0,12,3,low,2 + 1 + 9 - 5 + 6,13,14,13,11,2840.1569155000034,2842.1842278000117,2843.699215200002,2848.7174647000065,2849.593018300002,2849.5930241000024,2851.1097290000034,2852.1278708000027,e,11,0.8755535999953281,0,+0,377,13.63062483549713,0.27991467325153874,-0.125383910990448,2838784.0,-11.998995762685265,0.35143132879290917,0.09695355984739229,2842317.0,,,,,2843.6949387240047,2840.161938724005,
173,16,22,f,1,4,165.0,13,3,low,5 + 6 - 4 - 1 + 8,14,16,14,15,2853.6445920000115,2855.668351200002,2857.1841822999995,2862.2024488000025,2863.344975400003,2863.3449808000005,2864.8615377000096,2865.878370400009,w,14,1.142526600000565,1,+1,378,-15.328520306129262,-0.35448015966673463,0.08682956086098992,2852268.0,-3.5999385721135013,-0.42611197910138277,-0.05461237775257399,2855802.0,,,,,2857.179938724005,2853.6459387240047,
174,16,22,f,1,4,166.0,14,4,high,5 + 7 - 4 + 6 + 9,23,24,25,23,2867.3944327000063,2869.416480800006,2870.932293200007,2875.9511195000086,2877.105070800011,2877.1050763000094,2878.621591700008,2879.638605,q,24,1.153951300002518,0,+0,378,27.531614916875732,0.06132552154542559,-0.08915272052387002,2866016.0,-24.484987466048864,1.001914991616772,-0.1409844324487004,2869551.0,,,,,2870.9289387240046,2867.393938724005,
175,16,22,f,1,4,167.0,15,2,high,9 + 6 + 1 + 7 + 1,24,25,23,24,2881.1552460000094,2883.1815050000005,2884.6966674,2889.7147224000078,2891.0408800000005,2891.0408854999987,2892.5573074999998,2893.574578800006,e,24,1.3261575999931663,1,+10,388,21.993280930709854,-0.840227564172503,0.0948365301224754,2879781.0,2.721522528211729,-0.18988983588554742,-0.07313314827616724,2883315.0,,,,,2884.6929387240048,2881.1589387240047,
176,16,22,f,1,4,168.0,16,1,low,8 - 1 + 1 + 6 + 1,15,16,15,14,2895.0913169999985,2897.119181400005,2898.634196600004,2903.6531591000094,2905.288894600002,2905.288899899999,2906.805418700009,2907.822754500012,w,15,1.6357354999927338,1,+1,389,-20.248563489778608,0.5335807140230271,-0.9340843867810109,2893719.0,9.193142264234025,0.08133341199326871,-0.07134339227076225,2897252.0,,,,,2898.6299387240047,2895.0969387240048,
177,16,22,f,1,4,169.0,17,3,low,5 + 7 + 1 - 4 + 6,15,17,13,15,2909.339110700006,2911.3643607999984,2912.8795629000088,2917.8981061000086,2919.0089331000054,2919.008942200002,2920.5256617999985,2921.54323380001,w,13,1.1108269999967888,0,+0,389,4.728527710849033,-0.47821838809971773,-0.033452330490431725,2907964.0,-19.089615413966904,-0.026457530324416112,0.07042802910440038,2911498.0,,,,,2912.8759387240048,2909.3419387240046,
178,16,22,f,1,4,170.0,18,4,high,3 + 9 - 5 + 8 - 7,8,7,8,9,2923.0595072,2925.084194200012,2926.5996320999984,2931.618268899998,2933.048842500008,2933.048847500002,2934.565347700001,2935.5825587,q,7,1.4305736000096658,0,+0,389,12.990899510102428,0.59233982926294,0.0952494731221536,2921684.0,6.653800912632732,-0.45622228512316454,0.08056056025814429,2925218.0,,,,,2926.5959387240046,2923.061938724005,
179,16,22,f,1,4,171.0,19,1,high,2 + 9 + 1 + 1 + 1,14,14,12,13,2937.0995153000117,2939.1274041,2940.6423323000054,2945.660329300008,2946.240887300009,2946.2408924000047,2947.757543800006,2948.774827900008,q,14,0.5805580000014743,1,+10,399,-3.3625190910891973,-0.26189898101363607,0.16504296945005947,2935726.0,14.284325721142164,-0.4160305122774952,0.2611278443797569,2939260.0,,,,,2940.637938724005,2937.103938724005,
180,16,22,f,1,4,172.0,20,4,high,7 + 8 - 4 + 6 + 5,22,22,23,21,2950.292831800005,2952.3195921000006,2953.83458960001,2958.8530159000074,2961.3288372000097,2961.3288428000087,2962.845998600009,2963.8631036000006,e,21,2.4758213000022806,0,+0,399,-14.994657075435395,-0.8017574516756456,-0.07227026645858059,2948919.0,3.058185971006621,-0.6243628200490026,0.04061953160751153,2952452.0,,,,,2953.829938724005,2950.2969387240046,
181,16,22,f,1,4,173.0,21,1,high,6 + 1 + 1 + 9 - 1,16,16,14,15,2965.379955900004,2967.406310899998,2968.9215738000057,2973.939550200012,2975.1927975,2975.192802800011,2976.7101901999995,2977.727399700001,e,15,1.2532472999882884,0,+0,399,37.53038173741483,-1.0181921444333266,0.02609816334521642,2964006.0,-5.856702626518696,-0.5388008367822517,0.03848212207036816,2967539.0,,,,,2968.916938724005,2965.3839387240046,
182,16,22,f,1,4,174.0,22,1,low,3 + 1 + 8 + 1 + 1,14,14,13,16,2979.243675500009,2981.2721903000056,2982.7871329000045,2987.8056113000057,2989.72883610001,2989.7288416000083,2991.2453090000054,2992.2616025000025,q,14,1.923224800004391,1,+1,400,-18.9732189929225,-0.08584462765238321,0.29209886480427816,2977872.0,-5.8712291823469105,-0.44131995756790143,0.041325650231784916,2981405.0,,,,,2982.782938724005,2979.2499387240046,
183,16,22,f,1,4,175.0,23,1,high,7 + 1 + 4 + 1 - 1,12,12,13,11,2993.7782577000035,2995.8051791000034,2997.320410900007,3002.340536800009,3003.008729699999,3003.008735299998,3004.5254507000063,3005.5426387000043,q,12,0.6681928999896627,1,+10,410,6.602108505799572,-0.439797398725398,-0.07397339598323405,2992405.0,29.57038020781868,-1.663039915244731,-0.09153551834639706,2995940.0,,,,,2997.3179387240048,2993.782938724005,
184,16,22,f,1,4,176.0,24,4,high,7 + 6 - 4 + 9 - 5,13,13,14,12,3007.059262900002,3009.08360920001,3010.5987864000053,3015.618125000008,3016.864729699999,3016.864734600007,3018.381473600006,3019.398883700007,w,14,1.246604699990712,0,+0,410,-11.747757600105055,-0.44483069653488094,0.13101843581650563,3005683.0,8.326240731817581,0.127270468017743,0.015870320852883646,3009218.0,,,,,3010.5959387240046,3007.0609387240047,
185,16,22,f,1,4,177.0,25,1,high,6 + 9 + 1 + 1 - 1,16,16,15,14,3020.9157915000105,3022.94236510001,3024.457037,3029.4748016000085,3030.032722600008,3030.032727500002,3031.548829699997,3032.566126100006,q,16,0.5579209999996237,1,+10,420,11.868618993549358,-0.3211384258910508,-0.08987244427479046,3019542.0,23.924811503026444,-0.049112246945292704,-0.032573846450920874,3023074.0,,,,,3024.451938724005,3020.9199387240046,
186,16,22,f,1,4,178.0,26,4,high,6 + 5 - 7 + 8 - 9,3,3,5,4,3034.0830182000063,3036.111188499999,3037.6263004000066,3042.644631400006,3044.040716400006,3044.0407213,3045.5573035999987,3046.5744982000037,w,5,1.396085000000312,0,+0,420,-3.378891612539281,-0.39965803490981777,0.023824495958514325,3032711.0,-21.93641251159495,0.21161362126348937,-0.10077524718285602,3036244.0,,,,,3037.621938724005,3034.0889387240045,
187,16,22,f,1,4,179.0,27,4,low,8 + 5 - 4 + 7 + 9,25,26,24,25,3048.0911111000023,3050.1192193000024,3051.634162900009,3056.6525417000084,3057.600720500006,3057.600725000011,3059.1173358000087,3060.1349060000066,w,24,0.9481787999975496,0,+0,420,-28.09397992212656,1.1642599627599681,0.11571865453348451,3046718.0,-15.738786914513884,0.09001870233473319,0.12482654191422382,3050252.0,,,,,3051.6299387240047,3048.0959387240046,
188,16,22,f,1,4,180.0,28,1,low,8 + 1 + 4 + 1 + 1,15,16,15,14,3061.651813400007,3063.6791088000027,3065.194478300007,3070.2131770999986,3072.36070640001,3072.360711400004,3073.877424800012,3074.8946385000017,e,14,2.1475293000112288,0,+0,420,-10.84480156028716,-0.8711190459393388,-0.10893419488178013,3060278.0,-13.926578447850979,0.09311699748688351,-0.07977512974067213,3063813.0,,,,,3065.190938724005,3061.6559387240045,
189,16,22,f,1,4,181.0,29,3,high,3 + 1 + 8 - 5 + 9,16,15,17,16,3076.4114672,3078.4366140000056,3079.951951100011,3084.971301700003,3085.912702000001,3085.912707100011,3087.4297506000003,3088.4469006,w,17,0.9414002999983496,0,+0,420,28.35393582856463,-1.293587770244736,-0.024962731002757588,3075036.0,16.074240972649246,-0.6583202342453127,0.05088231800313503,3078570.0,,,,,3079.947938724005,3076.4139387240048,
190,16,22,f,1,4,182.0,30,4,high,4 + 7 - 8 + 9 - 4,8,8,9,7,3089.963733299999,3091.985613800003,3093.5010465000087,3098.5195729999978,3100.0167236999987,3100.016728600007,3101.5330734000017,3102.550218400007,w,9,1.4971507000009296,0,+0,420,9.95038693608144,-0.7464707808967184,-0.15051820273133143,3088585.0,41.7872815698877,-0.6128533843002542,-0.47703028901139977,3092119.0,,,,,3093.496938724005,3089.9629387240047,
191,16,22,f,1,4,183.0,31,3,low,8 + 5 + 1 - 7 + 9,16,14,17,16,3104.0670989000064,3106.089749999999,3107.604124400008,3112.623197699999,3113.7847885000083,3113.784794200008,3115.3012391000084,3116.318529700002,q,14,1.161590800009435,0,+0,420,-66.43920854372388,-0.9265383544411794,4.044490361892168,3102689.0,-20.350113376154574,0.5081931064070568,-0.12330334797260001,3106222.0,,,,,3107.599938724005,3104.0669387240046,
192,16,22,f,1,4,184.0,32,1,high,5 + 9 - 1 + 1 + 1,15,17,13,15,3117.835335800002,3119.8622997000057,3121.377502800009,3126.3957603000017,3127.8887201000034,3127.8887254,3129.405413100001,3130.4227329999994,w,13,1.4929598000016997,0,+0,420,-1.53795542336555,-0.6644388592069514,0.1498175108310542,3116462.0,7.452447619015722,0.7692997097446659,-0.036263661075078835,3119995.0,,,,,3121.3729387240046,3117.8399387240047,
193,16,22,f,1,4,185.0,33,1,high,7 - 1 + 8 + 1 - 1,14,13,14,12,3131.939657499999,3133.966193700005,3135.48146380001,3140.50093010001,3141.4246510000085,3141.424656400006,3142.9411017000093,3143.9583975999994,q,13,0.9237208999984432,0,+0,420,20.469277369291163,-0.4402923429548098,0.049323277008565425,3130565.0,11.912973436980396,1.0931721181101572,0.031020045990889367,3134100.0,,,,,3135.4779387240046,3131.9429387240048,
194,16,22,f,1,4,186.0,34,3,low,6 - 1 + 7 - 8 + 9,13,11,12,13,3145.4749810000067,3147.5013967999985,3149.0173937000072,3154.0372510000016,3155.144610600008,3155.1446159000043,3156.660996999999,3157.6778937000054,e,13,1.1073596000060206,1,+1,421,19.568614087297355,0.3280594535127701,0.015188053478628616,3144100.0,1.2244281719253003,-1.0011970320453631,0.03897375009333137,3147635.0,,,,,3149.012938724005,3145.4779387240046,
195,16,22,f,1,4,187.0,35,4,high,4 + 7 + 8 - 3 + 9,25,26,24,25,3159.1945665000094,3161.2214759000053,3162.7367466,3167.7554018000083,3169.976588999998,3169.9765942000085,3171.4932922000007,3172.5107071000093,q,26,2.2211871999897994,0,+0,421,-31.709017810397686,-0.3043752440934151,0.09064270905502103,3157820.0,17.881087446576924,-0.03115860751964572,0.17121778916387176,3161354.0,,,,,3162.7319387240045,3159.197938724005,
196,16,22,f,1,4,188.0,36,4,low,6 + 9 - 7 + 8 - 5,11,12,11,13,3174.0275956999976,3176.055657100005,3177.5706440000067,3182.5898957000027,3183.7126526000065,3183.7126578000025,3185.2293980000104,3186.246461400005,e,13,1.1227569000038784,0,+0,421,-42.526673336010205,0.2924771849465957,0.10266961735671232,3172654.0,-24.405227977749448,-0.3544954798744415,0.09440529637950812,3176188.0,,,,,3177.565938724005,3174.0319387240047,
197,16,22,f,1,4,189.0,37,3,high,2 + 9 - 3 + 4 + 1,13,14,11,13,3187.7629892999976,3189.7896887000097,3191.3047848999995,3196.324155800001,3198.128503800006,3198.1285091000027,3199.645016800001,3200.6623746999976,w,11,1.8043480000051204,0,+0,421,3.777197052470223,-1.3523677671056236,7.863924909101705e-05,3186388.0,7.153961298082166,0.11856476919125569,0.005084560143646666,3189923.0,,,,,3191.3009387240045,3187.7659387240046,
198,16,22,f,1,5,190.0,0,2,high,9 + 5 - 6 + 1 - 1,8,7,9,8,3242.3887879000104,3244.414635699999,3245.9298630999983,3250.9488458999986,3252.7284794000007,3252.7284846999974,3254.245018000001,3255.263330600006,q,7,1.7796335000020918,0,+0,421,40.6643808843492,0.39711903313808605,-0.22275049212858544,3241013.0,9.605036315803106,0.07041993228185106,0.19496964799181393,3244548.0,,,,,3245.9259387240045,3242.3909387240046,
199,16,22,f,1,5,191.0,1,2,low,6 + 1 + 1 + 7 - 9,6,6,4,8,3256.7801312000083,3258.807250800004,3260.322236799999,3265.342020100012,3267.520627100006,3267.520632400003,3269.037040100011,3270.055062600004,e,8,2.178606999994372,0,+0,421,31.787698987381642,-0.5047473226862982,-0.00929098027618025,3255406.0,-6.024111041692885,-0.4229414413203294,-0.16032489535706662,3258941.0,,,,,3260.3189387240045,3256.7839387240047,
