,id,age,sex,cued,block,trial,trialinblock,efflev,rewlev,calc,corAns,option1,option2,option3,tstart,ITI1Time,probTime,respTime,selectTime,ITI2Time,fbTime,ITI3Time,key_press,chosenAns,RT,acc,feedback,total_points,cuescr,cuecor,cuezyg,cuetime,probscr,probcor,probzyg,probtime,fbscr,fbcor,fbzyg,fbtime,probtime_c,cuetime_c,fbtime_c
0,17,23,f,0,Practice,,0,1,0,4 + 1 + 9 + 1 + 1,16,15,16,14,20.53510599999572,,20.53510809999716,25.562729600002054,27.851510799999232,27.851516800001264,29.369252799995596,30.3910637999943,q,15.0,2.2887811999971746,0,Incorrect,0,,,,,-9.152347372205755,1.1969694692245034,0.22913715894926323,19782.0,-2.0490803139353293,-0.05278564347235726,-0.7628824332060575,28610.0,20.547287161494822,,29.37528716149482
1,17,23,f,0,Practice,,1,1,0,3 + 1 + 1 + 8 - 1,12,10,12,11,31.907926100000623,,31.90792909999436,36.92843529999664,40.5794171999878,40.57942339999136,42.09641079998983,43.11467470000207,e,11.0,3.650981899991166,0,Incorrect,0,,,,,1.0296398549637242,0.7090197193863403,-1.0651130069047987,31148.0,33.22788706733422,0.40189384805771233,-0.4913587700835018,41334.0,31.91328716149482,,42.09928716149483
2,17,23,f,0,Practice,,2,2,0,8 + 1 + 6 + 1 - 4,12,11,10,12,44.63271919998806,,44.63272709999001,49.652413799994974,50.21152749999601,50.21153369999956,51.72930510000151,52.74917569999525,e,12.0,0.5591137000010349,1,Correct,0,,,,,2.3596421996481265,-2.358273983812741,0.38089200946331125,43872.0,1.3930897775663986,0.7676857979701017,-0.5648615125106011,50969.0,44.637287161494825,,51.73428716149483
3,17,23,f,0,Practice,,3,2,0,9 + 4 - 6 + 1 - 1,7,7,6,5,54.26688149999245,,54.266884600001504,59.287000899988925,61.20355949999066,61.20356589999574,62.72053099999903,63.73761119999108,q,7.0,1.916558600001736,1,Correct,0,,,,,0.15157845660039726,0.6255298299993872,-0.44873740912700244,53507.0,50.58171426704623,0.4438612736096905,-0.2574000360413726,61957.0,54.27228716149482,,62.722287161494826
4,17,23,f,0,Practice,,4,3,0,9 + 3 - 5 + 6 + 7,20,22,21,20,65.25442739999562,,65.25443049999012,70.27344879999873,71.09137299998838,71.09137949999422,72.6080915999919,73.62491449998925,e,20.0,0.8179241999896476,1,Correct,0,,,,,12.743834833247762,-0.18496415588098092,-0.37087393538577684,64493.0,-23.68679340622749,0.3456533548799605,0.19355299486325395,71845.0,65.25828716149482,,72.61028716149482
5,17,23,f,0,Practice,,5,3,0,2 + 1 + 9 - 7 + 6,11,9,10,11,75.1423752999981,,75.14237849999336,80.16192529999535,80.71551219999674,80.71551829999953,82.23237249998783,83.25041739999142,e,11.0,0.5535869000013918,1,Correct,0,,,,,9.104577999393769,-0.2836076797878011,0.10588039411873251,74381.0,9.436319617291126,0.13701585385153914,0.08017935481226712,81470.0,75.14628716149483,,82.23528716149482
6,17,23,f,0,Practice,,6,4,0,4 + 8 + 5 - 3 + 7,21,23,21,22,84.76764599999296,,84.76764910000202,89.7885069999902,95.77155340000172,95.771559899993,97.28824489998806,98.30649930000072,w,21.0,5.983046400011517,1,Correct,0,,,,,-3.362402866568343,-1.0838927914174046,-3.520922772079895,84008.0,0.8002443152562009,-0.22484531511334493,0.2693131258388104,96526.0,84.77328716149482,,97.29128716149482
7,17,23,f,0,Practice,,7,4,0,5 + 8 - 4 + 6 + 9,24,24,23,22,99.82337939999708,,99.82338259999231,104.8428048999922,105.51549199999135,105.51549809999416,107.03243159998964,108.05054949999612,q,24.0,0.6726870999991661,1,Correct,0,,,,,-19.41952465529756,-2.441952584589436,-7.387533606079494,99062.0,3.886080578205968,-0.11612300305379586,0.10489563938823276,106270.0,99.82728716149482,,107.03528716149482
8,17,23,f,1,0,0.0,0,3,low,5 + 7 + 1 - 4 + 6,15,13,17,15,192.2010748999892,194.22732369998997,195.7427381000016,200.76151430000027,201.93693820000044,201.93694379999943,203.45377089999965,204.47065560000192,e,15.0,1.175423900000169,1,+1,1,30.28628960535665,-0.7000243134170909,-2.547876655287797,191446.0,13.110037308720141,-0.1677070060165371,0.19896424350898734,194981.0,-21.318453968278885,0.5007098040513944,0.9714233859542554,202690.0,195.74628716149482,192.21128716149482,203.45528716149482
9,17,23,f,1,0,1.0,1,3,high,5 + 1 + 7 - 8 + 6,11,13,9,11,205.98677759998827,208.0114235999936,209.5266450999916,214.54625189999933,215.2009504999878,215.2009554999968,216.717834199997,217.735239799993,e,11.0,0.6546985999884782,1,+10,11,12.17989989955561,-0.11339202398043646,-0.6017732229338417,205230.0,-49.20903126845338,0.03498298559748325,0.1408544976826367,208764.0,6.22145189550065,-0.05973712830902689,0.10640060686045616,215954.0,209.52928716149484,205.99528716149482,216.71928716149483
10,17,23,f,1,0,2.0,2,4,low,3 + 9 - 4 + 7 + 6,21,21,19,20,219.2520099999965,221.27675999999337,222.79178410000168,227.81070229999025,228.3369387999992,228.33694359999208,229.8535230999987,230.87046159998863,q,21.0,0.526236500008963,1,+1,12,-0.9332437870908539,0.6473521527601633,4.79467403358246,218496.0,7.10152926535427,-0.03930320488710626,0.25982800235685866,222030.0,8.375965892077954,-0.05074456086411083,0.14074691243173643,229090.0,222.79528716149483,219.26128716149483,229.85528716149483
11,17,23,f,1,0,3.0,3,3,low,6 - 1 + 7 - 8 + 9,13,13,12,11,232.38763579999795,234.41622649999044,235.93127159999855,240.94990529998904,241.66485689999536,241.6648619999905,243.182057500002,244.1991406000016,q,13.0,0.7149516000063159,1,+1,13,5.8271702013176405,0.22124827211050668,-0.026454377367945536,231635.0,12.189211355684865,0.21671965106501734,0.15406239286029377,235169.0,-1.1850347428297079,0.09479604455176949,0.16266241399273618,242418.0,235.93428716149484,232.40028716149482,243.18328716149483
12,17,23,f,1,0,4.0,4,3,low,5 + 6 + 7 - 1 - 9,8,8,7,9,245.71587649999128,247.7407865999994,249.25617979999515,254.27481029999035,255.0648241000017,255.0648327999952,256.5820704999933,257.599040599991,q,8.0,0.7900138000113657,1,+1,14,0.40064511797820757,0.22354731978483633,-0.056173531822727885,244959.0,-8.59628655406701,-0.04179707897516116,0.09731578493804816,248494.0,-11.895070041103452,0.19627006953241688,0.05758791974640998,255818.0,249.25928716149483,245.72428716149483,256.5832871614948
13,17,23,f,1,0,5.0,5,3,high,7 + 5 + 9 + 1 - 6,16,15,14,16,259.1157583000022,261.1380294999981,262.6533650999918,267.6717896999908,269.760872400002,269.76087749999715,271.2775255999877,272.29479719999654,w,14.0,2.089082700011204,0,+0,14,3.667400832471282,0.07609237888171383,0.04274683905299259,258357.0,-30.95818910720863,0.016609974617976864,0.06656575384239405,261891.0,-5.623133082082861,0.17073548879448097,0.10675987476427062,352121.0,262.65628716149484,259.12228716149485,352.8862871614948
14,17,23,f,1,0,6.0,6,1,high,3 + 1 + 1 + 9 - 1,13,13,14,12,273.8116026999924,275.83412959999987,277.3493196999916,282.36770160000015,285.4248557999963,285.4248605999892,286.9414722999936,287.9588412000012,q,13.0,3.057154199996148,1,+10,24,-3.067111355813042,0.19275063626043543,0.12520047930029699,273053.0,-14.410224246796751,0.18452906566684546,0.24549037534667084,276587.0,-6.985162972006474,0.47659915521645013,0.17747188054878182,286178.0,277.3522871614948,273.8182871614948,286.9432871614948
15,17,23,f,1,0,7.0,7,2,high,3 + 8 + 1 - 5 + 1,8,6,8,9,289.47570070000074,291.4999870999891,293.01539319999574,298.0340143999929,298.64085329999216,298.6408584000019,300.15714789999765,301.1743005999888,w,8.0,0.6068388999992749,1,+10,34,-20.906829612058793,-0.12418987017398297,-0.19695136572596583,288719.0,14.686821142380472,0.16836201299206977,-0.1073434400829032,292253.0,37.921432056984784,0.20666041411977032,-0.20985078562652903,299393.0,293.0182871614948,289.4842871614948,300.1582871614948
16,17,23,f,1,0,8.0,8,2,low,8 + 1 + 4 - 7 + 1,7,5,7,6,302.6913286999916,304.7194550999993,306.23476110000047,311.25333539998974,311.94483729999047,311.94484229999944,313.46126260000165,314.4784292999975,w,7.0,0.6915019000007305,1,+1,35,23.25994705290007,-0.48159924124952,-0.008202809074637107,301938.0,-24.487521859611476,-0.04542423231236725,0.08073748612425335,305472.0,-10.921183674736636,0.047909740243150534,0.11573404136531185,312697.0,306.2372871614948,302.7032871614948,313.4622871614948
17,17,23,f,1,0,9.0,9,2,low,4 + 9 - 7 + 1 - 1,6,8,6,5,315.995986599999,318.02001379999274,319.535260699995,324.5540314999962,325.0569495999953,325.056954899992,326.5736098999914,327.5905657999974,w,6.0,0.5029180999990785,1,+1,36,-4.603734405514693,0.08913294549825745,0.12990157692699444,315239.0,-15.776295118959597,-0.0573664804041516,0.08404002499803087,318773.0,-11.594165905649568,0.14637772479574052,-0.1571903367578531,325809.0,319.53828716149485,316.0042871614948,326.57428716149485
18,17,23,f,1,0,10.0,10,1,high,3 + 1 + 8 + 1 + 1,14,13,14,12,329.1072323999979,331.1349113999895,332.65057289999095,337.66911599999,338.3048043000017,338.30480949999765,339.8210105999897,340.83821859999443,w,14.0,0.6356883000116795,1,+10,46,-6.245042683150185,-0.12498830467983701,-0.179867664657958,328354.0,25.74824265099405,0.05934351139206684,-0.01045704282257498,331888.0,-0.2681695577404959,-0.07611570053740957,-0.1975167112973435,339057.0,332.6532871614948,329.1192871614948,339.82228716149484
19,17,23,f,1,0,11.0,11,3,low,9 - 5 - 1 - 6 + 8,5,7,5,4,342.3550961000001,344.38054069998907,345.8958810999902,350.9140203999996,351.36874229999376,351.36874759999046,352.8854699999938,353.9027141999977,w,5.0,0.4547218999941833,1,+1,47,3.366596276145751,0.0420880094007583,0.38234690236575863,341599.0,1.0351009059389433,0.09248676220995833,0.03414143044960172,345133.0,11.780837704163504,0.0516413979562782,0.3898756026598602,409427.0,345.8982871614948,342.3642871614948,410.19228716149485
20,17,23,f,1,0,12.0,12,2,low,9 + 4 - 6 + 1 - 1,7,9,7,8,355.41957129999355,357.44808360000025,358.96313499999815,363.9816506999923,364.5048200000019,364.5048252999986,366.0213776999881,367.03829479998967,w,7.0,0.5231693000096129,1,+1,48,11.371569713273251,-0.011164034489834718,-0.03193849400412163,354667.0,6.800172282884273,0.12711299643002527,0.08901669058075812,358201.0,-20.996018194930542,0.18057049842361095,0.06263130776549009,365257.0,358.96628716149485,355.4322871614948,366.02228716149483
21,17,23,f,1,0,13.0,13,4,high,8 + 4 - 5 + 7 - 6,8,8,7,6,368.555146300001,370.5819266999897,372.0974081999884,377.11605179999606,377.8087935999938,377.80879879998975,379.3254410999944,380.3415412999893,q,8.0,0.6927417999977479,1,+10,58,-0.27392865937981803,-0.09435261864434619,0.12548408664335708,367801.0,3.109905677982331,0.014982031508175231,0.010883825606130992,371335.0,2.270735290096912,0.04624310211927729,0.006964527424299094,378562.0,372.1002871614948,368.5662871614948,379.32728716149484
22,17,23,f,1,0,14.0,14,3,low,4 + 1 + 8 + 9 - 5,17,17,19,18,381.8588618999929,383.8839260999957,385.3992251000018,390.4172452999919,395.434957999998,395.4349604000017,396.9517121999961,397.9745931999933,,,,0,Too Slow!,58,1.6864158366709328,-0.09511517199455777,-0.06182376860851235,381103.0,-25.65942917554006,-0.7272114625789405,-0.08065634839888025,384636.0,3.6774460298135274,-0.13452767993523906,3.2628557574652914,396192.0,385.40128716149485,381.86828716149483,396.95728716149483
23,17,23,f,1,0,15.0,15,3,high,7 - 1 + 9 - 5 + 4,14,15,13,14,399.4910557999974,401.5160550000001,403.03138529999705,408.0516840999917,408.6727028999885,408.6727077999967,410.189971499989,411.2080907999916,e,14.0,0.6210187999968184,1,+10,68,13.30076923762894,1.2412754418169136,2.662070656639567,398735.0,13.660153804199624,-0.3393392259218322,-1.607778674173379,402270.0,,,,,403.0352871614948,399.50028716149484,
24,17,23,f,1,0,16.0,16,4,high,7 + 6 + 8 - 4 + 5,22,22,21,23,412.725860599996,414.7483519999951,416.2636682000011,421.2832895999891,421.9607285999955,421.96073399999295,423.47782729999744,424.4953940999985,q,22.0,0.6774390000064159,1,+10,78,10.252963802601808,-0.014276450090198178,0.326559244448954,411967.0,2.703966252707458,0.240364088342643,0.15087240098939647,415502.0,,,,,416.26728716149483,412.7322871614948,
25,17,23,f,1,0,17.0,17,4,high,5 + 7 - 4 + 6 + 9,23,24,23,25,426.0121822999936,428.0360782999924,429.551335600001,434.5712635999953,435.0887607999903,435.0887657999992,436.60597399999097,437.6235353999946,w,23.0,0.5174971999949776,1,+10,88,7.0424697877881455,0.08628800725308694,0.02667928472523573,425255.0,39.521408066775265,-0.1422593448681868,0.05926810283105843,428790.0,,,,,429.55528716149485,426.0202871614948,
26,17,23,f,1,0,18.0,18,3,low,7 - 1 + 8 - 6 + 4,12,12,11,13,439.1403340999968,441.1673929999961,442.6825814999902,447.7008454999887,448.2646239999885,448.264628799996,449.7810893999995,450.7986023999984,q,12.0,0.5637784999998985,1,+1,89,10.086072276525364,0.053616828488264545,0.03852083760111502,438386.0,-2.2261565853067964,0.030570140224857267,-0.02983483050637381,441920.0,,,,,442.68528716149484,439.15128716149485,
27,17,23,f,1,0,19.0,19,1,low,7 + 1 + 6 + 1 + 1,16,16,17,18,452.3154960999964,454.34259659999225,455.8578104999906,460.8760642999987,461.3525964,461.35260139999446,462.86924759999965,463.88617529999465,q,16.0,0.47653210000135,1,+1,90,-10.8986776308402,-0.04441732211497951,0.0415316770271823,451562.0,-15.922839359249185,0.18334178046463934,0.06980179466227221,455095.0,,,,,455.86028716149485,452.32728716149484,
28,17,23,f,1,0,20.0,20,1,low,7 + 1 + 5 + 1 - 1,13,14,13,12,465.40181749999465,467.4239039999957,468.9391192999901,473.9571838999982,474.6407068999979,474.6407124999969,476.1572332999931,477.1741858999885,w,13.0,0.6835229999996955,1,+1,91,0.4754514206267544,-0.1633289731479335,-0.08544479670033289,464643.0,22.8953803147159,-0.042262478652819846,-0.002922980415448473,468176.0,,,,,468.9412871614948,465.4082871614948,
29,17,23,f,1,0,21.0,21,1,high,5 + 1 + 1 + 9 + 1,17,16,17,19,478.6910998999956,480.71828289999394,482.23362220000126,487.25137240000186,487.8645844999992,487.8645896999951,489.3809818000009,490.39830580000125,w,17.0,0.6132120999973267,1,+10,101,-43.74243605188867,0.0442394504682615,-0.04213025399322712,477937.0,22.879054049356753,0.057791169086803595,0.0971177076833909,481470.0,,,,,482.23528716149485,478.70228716149484,
30,17,23,f,1,0,22.0,22,3,high,7 - 5 + 9 + 1 - 4,8,7,9,8,491.9157469999918,493.93972470000153,495.4546068999916,500.4739254999877,500.9286100999889,500.9286160999909,502.4458340999991,503.46291859999474,e,8.0,0.454684600001201,1,+10,111,-6.287412312061438,-0.009027465311103988,0.10629909698345985,491158.0,-4.921716044726836,-0.10306389061657639,0.05938942538554026,494693.0,,,,,495.4582871614948,491.92328716149484,
31,17,23,f,1,0,23.0,23,2,low,2 + 9 + 1 + 1 - 5,8,8,7,6,504.9800277999893,507.0077231999894,508.52315649999946,513.5418148999888,514.0646350999887,514.0646402999992,515.5811297999899,516.5977630999987,q,8.0,0.5228201999998419,1,+1,112,-8.373641733483197,-0.23955268150212206,0.19834880930308652,504226.0,0.590459617272268,-0.08296021789130892,0.12094313143883717,507760.0,,,,,508.5252871614948,504.9912871614948,
32,17,23,f,1,0,24.0,24,4,high,2 + 5 - 3 + 9 + 8,21,22,19,21,518.1146092999988,520.1426333999989,521.6578284999996,526.6762084999937,527.2165812999883,527.2165865999996,528.7332233999914,529.7500928999943,e,21.0,0.5403727999946568,1,+10,122,-0.5091053579472682,0.023191453426331332,-0.028603321694353756,517361.0,-16.80801477356847,0.09037110040535645,0.023203745560240296,520895.0,,,,,521.6602871614948,518.1262871614948,
33,17,23,f,1,0,25.0,25,1,high,7 + 1 + 4 + 1 - 1,12,11,13,12,531.2670034999901,533.2906081999972,534.805906900001,539.8247391999903,540.5045507999894,540.5045562000014,542.0210596999968,543.0386427999911,e,12.0,0.6798115999990841,1,+10,132,-17.158508773274804,0.013592410840865377,-0.10835359608889061,530509.0,-2.2755044028259945,-0.10063682573093113,0.04917304931438049,534043.0,,,,,534.8082871614948,531.2742871614948,
34,17,23,f,1,0,26.0,26,1,low,3 + 1 + 8 + 1 + 1,14,16,14,13,544.5563236000016,546.5851331000013,548.1004260999907,553.1192876999994,553.8325612999906,553.8325664000004,555.3491988999886,556.3662046999962,w,14.0,0.7132735999912256,1,+1,133,-19.733630862968546,-0.07764763512116035,0.03516516340050457,543804.0,-6.563897325573354,0.0003111234337818125,0.12174486139895624,547337.0,,,,,548.1022871614948,544.5692871614948,
35,17,23,f,1,0,27.0,27,3,low,2 + 9 + 1 - 5 + 7,14,12,14,15,557.8827975999884,559.9100675999944,561.4260540999967,566.4443975999893,567.1125240999972,567.1125298999978,568.6296434999967,569.6467097999994,w,14.0,0.6681265000079293,1,+1,134,9.251651037634046,0.02002702780252119,0.15612394721596767,557128.0,4.15377695585012,-0.037055022933434545,0.10345165419302571,560663.0,,,,,561.4282871614948,557.8932871614949,
36,17,23,f,1,0,28.0,28,1,low,2 + 1 + 9 + 1 - 1,12,11,12,13,571.1638263999921,573.1892183000018,574.7048605000018,579.7251243999926,580.3285656999942,580.3285707999894,581.8451476999908,582.8620243999903,w,12.0,0.6034413000015775,1,+1,135,9.776022792477592,-0.0728320325338645,0.05311711807973807,570407.0,-17.96431068868437,0.07166341739857685,-0.0005062190418541057,573943.0,,,,,574.7082871614948,571.1722871614949,
37,17,23,f,1,0,29.0,29,4,high,8 + 4 + 7 - 5 - 6,8,8,6,9,584.3788181999989,586.4063639999949,587.9213044999924,592.9402454999945,593.6566231999896,593.6566284,595.1730514999945,596.1907288999937,q,8.0,0.7163776999950642,1,+10,145,4.787291267176542,0.0815708606425607,-0.022172190851608153,583625.0,19.259817723416834,-0.025667716190725498,-0.17375153548175049,587159.0,,,,,587.9242871614948,584.3902871614948,
38,17,23,f,1,0,30.0,30,2,low,7 + 5 + 1 - 1 - 8,4,3,4,2,597.7072304999892,599.7339579999971,601.2491740999976,606.2685215999954,606.744609699992,606.7446146000002,608.2610720999946,609.278052099995,w,4.0,0.4760880999965593,1,+1,146,-36.05584925847559,-0.18858273828376193,0.07387722256037454,596952.0,1.6933163536894207,0.16482111898102247,0.15178309322359684,600487.0,,,,,601.2522871614948,597.7172871614948,
39,17,23,f,1,0,31.0,31,4,low,8 + 5 - 4 + 7 + 9,25,24,26,25,610.795243799992,612.8204646999948,614.3347371999989,619.3544752000016,620.1524978999951,620.1525031999918,621.669799299998,622.6868770000001,q,24.0,0.798022699993453,0,+0,146,-3.661932060744139,0.08798864367640102,-0.0591112202552917,610039.0,-5.324945539999257,0.20331257107037515,0.15662379580022545,613573.0,,,,,614.3382871614948,610.8042871614948,
40,17,23,f,1,0,32.0,32,2,low,6 + 1 + 1 + 8 - 9,7,5,7,9,624.2036812000006,626.2312678999879,627.7466238999914,632.7653132999985,634.352453799991,634.3524591999885,635.8688927999901,636.8858044999943,w,7.0,1.587140499992529,1,+1,147,-8.797540960640207,-0.07722862604420189,0.08281112943411184,623449.0,0.4174390816586637,0.055608276094376574,0.07682091650663403,626984.0,,,,,627.7492871614949,624.2142871614948,
41,17,23,f,1,0,33.0,33,2,high,6 + 1 + 1 + 7 - 9,6,8,6,4,638.4026490999968,640.4294162000006,641.94476269999,646.9646805999946,648.3765134999994,648.3765221999929,649.8931403999886,650.9104866999987,w,6.0,1.4118329000048109,1,+10,157,-16.89627425765598,-0.10088306739861119,-0.11187281937184768,637648.0,17.389188858284307,-1.1441994752940987,-0.4365512236044675,641183.0,,,,,641.9482871614948,638.4132871614948,
42,17,23,f,1,0,34.0,34,3,low,5 - 1 - 4 + 6 + 7,13,15,13,14,652.4264343999967,654.453665699999,655.968692800001,660.9870933999919,661.5683795999939,661.5683846999891,663.0853915999905,664.1028558999969,w,13.0,0.5812862000020687,1,+1,158,13.830176655584209,0.08476751330980514,0.02938033913566218,651672.0,-29.523283161025205,0.1899268736198758,0.05476476779818573,655205.0,,,,,655.9702871614949,652.4372871614949,
43,17,23,f,1,0,35.0,35,3,high,7 + 1 + 9 + 5 - 6,16,14,15,16,665.6193891000003,667.6410225,669.156298899994,674.1743745999993,675.4163839999965,675.4163888999901,676.9327408999961,677.9499999999971,w,15.0,1.2420093999971868,0,+0,158,17.23967946965733,0.20483710881693917,0.06028241221368846,664859.0,3.371904991121159,-0.02192661290378406,0.14782532388554537,668393.0,,,,,669.1582871614949,665.6242871614949,
44,17,23,f,1,0,36.0,36,1,low,7 - 1 + 1 + 9 - 1,15,15,14,13,679.4665869999881,681.4897720000008,683.0047868999973,688.0230492999981,688.752408299988,688.7524135999993,690.2684574000014,691.2853852999979,q,15.0,0.7293589999899268,1,+1,159,-3.986626574914725,-0.09826835406934564,-0.001873557074164589,678708.0,2.409114648248407,0.05166121176386529,0.16635017169290212,682241.0,,,,,683.0062871614948,679.4732871614948,
45,17,23,f,1,0,37.0,37,1,high,8 + 1 + 5 + 1 + 1,16,15,17,16,692.8024448999931,694.8297267000016,696.3450152000005,701.362877099993,702.2164069999999,702.2164120999951,703.7329602999962,704.7501723999885,e,16.0,0.8535299000068335,1,+10,169,-27.378863241101524,-0.08309748197369426,-0.062262644331879,692048.0,93.26667301632268,0.06814349561882427,0.03373206168295795,695581.0,,,,,696.3462871614948,692.8132871614948,
46,17,23,f,1,1,38.0,0,4,low,9 + 3 - 5 + 8 + 6,21,19,21,23,729.22821809999,731.254472399989,732.7696597999893,737.7891116999963,738.3843468999985,738.3843518999929,739.9011611999886,740.9182770999905,w,21.0,0.5952352000022074,1,+1,170,7.364116505435916,1.4376735395821023,0.995708695590074,728472.0,-4.168798309730336,-0.6610577403893911,0.002623055648659278,732007.0,,,,,732.7722871614948,729.2372871614948,
47,17,23,f,1,1,39.0,1,2,high,6 + 1 + 1 + 7 - 9,6,4,8,6,742.4350711000006,744.4586292999884,745.9739642999921,750.9942804999882,751.5363439999928,751.5363491999888,753.0536144999933,754.0707259999908,e,6.0,0.5420635000045877,1,+10,180,6.713125384309528,-0.42977723201558904,0.015468866165497586,741677.0,-0.6303851210603693,0.06382263665216015,-0.03753684718794115,745212.0,,,,,745.9772871614948,742.4422871614948,
48,17,23,f,1,1,40.0,2,2,low,4 + 7 + 1 + 1 - 8,5,5,4,7,755.5875702999911,757.6152296999935,759.1305251000013,764.1496279999992,766.4642883999913,766.4642934000003,767.9810327000014,768.9974555999943,q,5.0,2.314660399992136,1,+1,181,-11.145987599061643,0.10659975379858166,-0.5757638452228071,754833.0,-24.464686304085802,0.08582603762425678,-0.06611123360630655,758367.0,,,,,759.1322871614948,755.5982871614948,
49,17,23,f,1,1,41.0,3,2,low,4 + 9 - 7 + 1 - 1,6,6,8,5,770.5141559999902,772.5395886999904,774.0549463999923,779.073648199992,779.6243012999912,779.6243064000009,781.1410871999979,782.1586707999959,q,6.0,0.550653099999181,1,+1,182,4.383920394728061,0.14134635357355774,0.8396915272479095,769758.0,-30.027890790686435,-0.018586187297938483,0.12638986577407674,773292.0,,,,,774.0572871614949,770.5232871614949,
50,17,23,f,1,1,42.0,4,3,high,2 + 1 + 9 - 4 + 6,14,14,15,16,783.6754845999967,785.7008563999989,787.2161848999967,792.2346980000002,793.0083287999878,793.0083341999998,794.5248050999944,795.5424407999963,q,14.0,0.7736307999875862,1,+10,192,-1.4351902871480604,0.17193557644921187,-0.04664914465286829,782919.0,5.834861771332413,-0.002607059873990236,0.2504487285655308,786452.0,,,,,787.2172871614948,783.6842871614948,
51,17,23,f,1,1,43.0,5,3,high,3 + 1 + 6 - 8 + 9,11,13,11,12,797.0591912999953,799.0826813999884,800.5979057999939,805.6173175000004,806.1042476000002,806.1042524999939,807.6206648999942,808.637619000001,w,11.0,0.4869300999998813,1,+10,202,-5.421501379319794,0.7467614635147206,0.08992949987893661,796301.0,-23.96180127857041,0.21030755546967095,0.1209434922775825,799835.0,,,,,800.6002871614949,797.0662871614949,
52,17,23,f,1,1,44.0,6,3,high,5 + 6 - 4 - 1 + 8,14,14,15,16,810.1543852999894,812.1782188999932,813.6934307999909,818.7127457999886,820.8323162999877,820.8323224999913,822.3490277999954,823.3660609999934,q,14.0,2.1195704999990994,1,+10,212,0.47879893839943577,-0.03901543954382536,-0.43703570130441527,809396.0,-20.157598691695533,-0.006898152987163231,0.10176095745843328,812931.0,,,,,813.6962871614949,810.1612871614948,
53,17,23,f,1,1,45.0,7,3,high,4 + 8 - 3 + 5 - 1,13,13,14,12,824.8828252999956,826.9045897999895,828.4208668999927,833.4393685999967,833.9282349999994,833.9282403999969,835.4442521999881,836.461581800002,q,13.0,0.4888664000027347,1,+10,222,11.750248426757516,0.5865642252941603,0.834428114586665,824123.0,-9.336932557401955,0.17558583732098798,0.09750876553418397,827657.0,,,,,828.4222871614949,824.8882871614949,
54,17,23,f,1,1,46.0,8,4,high,3 + 8 - 5 + 9 - 7,8,6,8,7,837.9786804999894,840.0021090999944,841.5174090999935,846.5360387999972,847.0642621000006,847.0642671999958,848.5808299999917,849.5982284999918,w,8.0,0.5282233000034466,1,+10,232,-17.515450743181507,0.02709954420621319,-0.000784533063785231,837220.0,5.982812456136832,-0.1222103105806811,0.1096884777468945,840754.0,,,,,841.5192871614948,837.9852871614949,
55,17,23,f,1,1,47.0,9,3,low,9 - 1 + 5 - 6 + 8,15,14,15,17,851.1147841999918,853.1389118999941,854.6542184999998,859.6724256999878,860.2322790999897,860.2322844000009,861.748615199991,862.7656272000022,w,15.0,0.5598534000018844,1,+1,233,5.72383254518074,-0.11900961462633042,-0.03444199885744226,850357.0,-8.402484988042652,0.17100663369263702,0.07945402269135715,853890.0,,,,,854.6552871614948,851.1222871614948,
56,17,23,f,1,1,48.0,10,2,low,3 + 8 - 5 + 1 + 1,8,9,8,6,864.2825163999951,866.307249999998,867.82245159999,872.8404522999917,873.4481866999995,873.4481916999939,874.9646726999927,875.9816370999906,w,8.0,0.6077344000077574,1,+1,234,15.086291494222317,0.010381134326883812,-0.014608015202058677,863525.0,-14.784399244518346,-0.04493132567811586,0.07916361239389946,867058.0,,,,,867.8232871614948,864.2902871614948,
57,17,23,f,1,1,49.0,11,2,high,8 + 1 + 7 + 1 - 4,13,14,13,12,877.4983854999882,879.5265208999917,881.0417525999947,886.0604790999932,887.0082595999993,887.0082651999983,888.5249097999913,889.5421083999972,w,13.0,0.9477805000060472,1,+10,244,17.73705280465014,0.36354944069069517,-0.05057348555100716,876744.0,0.9784216461183775,-0.08004332833638972,0.2886819674679528,880278.0,,,,,881.0432871614948,877.5092871614949,
58,17,23,f,1,1,50.0,12,3,low,4 + 5 - 3 + 7 - 1,12,13,12,11,891.0588923999894,893.085588899994,894.6004555999971,899.6192396999977,900.0401454999956,900.0401505999907,901.5567587999976,902.5736705000018,w,12.0,0.420905799997854,1,+1,245,-3.3992847241452218,0.9319469608296076,0.048535996939599535,890303.0,25.7581041305995,-0.09489068175235493,-0.15286182561942052,893837.0,,,,,894.6022871614948,891.0682871614948,
59,17,23,f,1,1,51.0,13,1,high,6 + 1 + 1 + 7 - 1,14,14,13,12,904.0906374999904,906.1124299999938,907.6276642000012,912.645929499995,913.8322538999928,913.8322590999888,915.3488527000007,916.3665469999978,w,13.0,1.1863243999978297,0,+0,245,10.541156432235832,0.6490013375144952,0.6792493761360678,903330.0,-0.24930333558774187,-0.2936804494690175,0.15444683020945438,906864.0,,,,,907.6292871614949,904.0952871614949,
60,17,23,f,1,1,52.0,14,4,high,8 + 7 - 4 + 5 + 9,25,26,24,25,917.8837089000008,919.910541899997,921.4258092999952,926.4450031000016,927.8641809999972,927.8641863999948,929.3808379999972,930.3981843999936,e,25.0,1.4191778999957023,1,+10,255,-22.839312286466328,0.21613971351597616,0.07971277192613191,917128.0,39.984917000027416,-2.279379357979061,-2.9368405800065003,920662.0,,,,,921.4272871614949,917.8932871614949,
61,17,23,f,1,1,53.0,15,1,high,2 + 1 + 9 + 1 + 1,14,12,13,14,931.9147797999904,933.9415587999974,935.4568572999996,940.4750034999888,941.200163699992,941.2001690999896,942.7169060999876,943.7342913999892,e,14.0,0.7251602000033017,1,+10,265,-10.392764873391316,-0.018805159685886697,0.047660956543970956,931159.0,10.855040581085795,0.06677135344473473,0.08754829896948424,934692.0,,,,,935.4572871614948,931.9242871614948,
62,17,23,f,1,1,54.0,16,4,high,5 + 7 - 4 + 8 + 6,22,24,23,22,945.2512365000002,947.277332599988,948.7933002999926,953.8127214999986,954.6561449,954.6561502999976,956.1726371999976,957.1901158999972,e,22.0,0.843423400001484,1,+10,275,26.162495073777748,-0.23754520019480108,0.039763710634528326,944495.0,1.683452118794749,-0.06892521639539106,0.1456197008166793,948030.0,,,,,948.7952871614948,945.2602871614948,
63,17,23,f,1,1,55.0,17,4,low,3 + 8 - 7 + 9 - 5,8,7,9,8,958.7068408999912,960.7343981000012,962.2497065999924,967.2682020999928,967.856093800001,967.8560986999946,969.3723265000008,970.3887224999926,e,8.0,0.5878917000081856,1,+1,276,3.8698797217220466,0.30508158238923744,0.04217457554126969,957952.0,2.5734825776700383,-0.19883002335558575,0.13641609518740005,961486.0,,,,,962.2512871614948,958.7172871614948,
64,17,23,f,1,1,56.0,18,4,high,6 + 9 + 7 - 3 - 5,14,14,13,12,971.9055998999976,973.932175599999,975.447445999991,980.4661093999894,981.3360734000016,981.3360786999984,982.8529300999944,983.8701718999946,q,14.0,0.8699640000122599,1,+10,286,7.022353634920245,0.31087427662507383,0.10881451428927646,971150.0,0.8891396416102957,0.0531249543134138,0.043485224696881764,974684.0,,,,,975.4492871614948,971.9152871614948,
65,17,23,f,1,1,57.0,19,3,low,6 + 8 + 7 + 1 - 9,13,13,15,14,985.3869890999922,987.4117633999996,988.9271496,993.9456806999953,994.7680528999916,994.7680579000008,996.2846095999994,997.3008502000012,q,13.0,0.8223721999966074,1,+1,287,-21.33114451238926,0.03588971253688089,-0.04636499025578389,984629.0,17.383830051588525,0.01684736658252839,0.057563298325552736,988163.0,,,,,988.9282871614948,985.3942871614948,
66,17,23,f,1,1,58.0,20,4,low,6 + 5 - 7 + 8 - 9,3,3,5,4,998.8177708000004,1000.8455607999932,1002.3605663999916,1007.3791858999904,1008.5841213999956,1008.5841266999925,1010.1015464999946,1011.1185312999878,q,3.0,1.2049355000053763,1,+1,288,6.493851423269236,0.17775002300172038,0.08619330229287891,998063.0,10.331487086205438,-0.060507737078133506,-0.01754108962239931,1001597.0,,,,,1002.3622871614948,998.8282871614948,
67,17,23,f,1,1,59.0,21,3,high,3 + 8 - 7 - 1 + 9,12,14,12,13,1012.6362074999925,1014.6638123000012,1016.178644300002,1021.1969010999892,1021.920089399995,1021.9200948999932,1023.4367792999984,1024.4541587999993,w,12.0,0.7231883000058588,1,+10,298,24.230923906651853,0.14017192807177659,0.002645142183260951,1011881.0,8.823552165623955,-0.04836569754748821,0.10487529125122097,1015415.0,,,,,1016.1802871614948,1012.6462871614948,
68,17,23,f,1,1,60.0,22,1,low,8 + 1 + 1 - 1 - 4,5,3,6,5,1025.9709850999934,1027.9993074999948,1029.5150107999943,1034.5343169999978,1035.152024199997,1035.1520291999914,1036.6686473000009,1037.6852324999927,e,5.0,0.6177071999991313,1,+1,299,-15.059084260085502,0.4547716288801549,-0.030241587699702865,1025217.0,5.819701112291328,-0.21569874280899404,-0.03350237042291626,1028752.0,,,,,1029.5172871614948,1025.982287161495,
69,17,23,f,1,1,61.0,23,3,low,4 + 7 - 3 + 5 - 1,12,11,12,13,1039.2018514999943,1041.229743799995,1042.7451176999894,1047.7640696000017,1048.2320035000012,1048.232008299994,1049.7485009999946,1050.7654385999922,w,12.0,0.4679338999994797,1,+1,300,1.4974728461830686,-0.13851745757198763,0.06644507832663238,1038447.0,2.68427266732313,0.10443456609754898,-0.01908841861456545,1041981.0,,,,,1042.7462871614948,1039.2122871614947,
70,17,23,f,1,1,62.0,24,3,low,6 - 1 + 7 - 8 + 9,13,11,12,13,1052.2822842999883,1054.3054158000014,1055.8205879999878,1060.8392865999922,1063.9919517999951,1063.9919566999888,1065.5083988999977,1066.5250643999898,e,13.0,3.152665200002957,1,+1,301,-17.81590950749805,0.004417842974773656,-0.021864228578887257,1051523.0,32.506821251277,0.16237259888056443,0.06989126404265611,1055056.0,,,,,1055.8212871614949,1052.2882871614947,
71,17,23,f,1,1,63.0,25,1,low,5 + 8 - 1 + 1 + 1,14,14,12,16,1068.0422303999949,1070.0697595999957,1071.585031999988,1076.603469900001,1078.6240065999882,1078.6240152999962,1080.1408532999922,1081.157811600002,q,14.0,2.020536699987133,1,+1,302,5.302965955741538,0.5741177637678736,2.6286132698582154,1067287.0,22.042539500174204,0.026806979373259265,0.17381838608142752,1070821.0,,,,,1071.5862871614947,1068.0522871614949,
72,17,23,f,1,1,64.0,26,3,high,3 + 1 + 8 - 5 + 9,16,15,17,16,1082.6744701999996,1084.7027310999983,1086.217667799996,1091.2363478999905,1095.0239150999987,1095.023920599997,1096.5401784999997,1097.5574295999977,e,16.0,3.7875672000081977,1,+10,312,30.411322051855166,0.34688992150029385,0.2427479900369438,1081920.0,-29.4070315910066,-0.6891185506402926,-0.0816507887952651,1085453.0,,,,,1086.2182871614948,1082.685287161495,
73,17,23,f,1,1,65.0,27,4,high,5 + 6 - 4 + 7 + 9,23,24,23,25,1099.0742694999935,1101.0977103999903,1102.6127351999894,1107.6320080000005,1108.9919450999878,1108.9919498999952,1110.5084724999906,1111.525759799988,w,23.0,1.3599370999872915,1,+10,322,-18.630322992746674,0.09849714426642042,0.048300170132452136,1098315.0,3.164466705325823,-0.05225815319773641,-0.05528581952547529,1101849.0,,,,,1102.6142871614948,1099.0802871614949,
74,17,23,f,1,1,66.0,28,3,high,6 + 7 + 8 + 1 - 9,13,13,14,15,1113.0425170999952,1115.0655427999882,1116.5808528999914,1121.599540700001,1124.6799485999943,1124.679953999992,1126.1962832999998,1127.2133220999967,q,13.0,3.080407899993588,1,+10,332,-37.971981511095095,1.149702729082091,0.016146863559146185,1112283.0,3.8280704718189984,0.10719589407115948,-0.024492186704683228,1115817.0,,,,,1116.5822871614948,1113.0482871614947,
75,17,23,f,1,1,67.0,29,1,low,3 + 1 + 9 + 1 - 1,13,12,13,14,1128.729905699991,1130.7528885999927,1132.2679033999884,1137.286153699999,1138.103951600002,1138.1039568999986,1139.621023899992,1140.6383814,w,13.0,0.8177979000029154,1,+1,333,12.14981114670313,-0.057709906993304694,-0.04853280116805814,1127970.0,7.025333797985255,-0.0006811293440445176,0.025624843843166323,1131503.0,,,,,1132.2682871614948,1128.7352871614949,
76,17,23,f,1,1,68.0,30,3,low,4 + 7 + 1 + 9 - 5,16,16,17,18,1142.156259800002,1144.185475099992,1145.7008580999973,1150.7200044999918,1152.5278714000017,1152.5278766999982,1154.0442467999965,1155.0614644000016,w,17.0,1.8078669000096848,0,+0,333,15.658645734404177,0.18179061881187497,-0.03784783438802264,1141402.0,8.68571832539667,-0.21731248841236117,0.1813546417623677,1144937.0,,,,,1145.7022871614947,1142.1672871614949,
77,17,23,f,1,1,69.0,31,3,low,4 + 8 - 9 + 1 + 7,11,11,9,13,1156.5784446999896,1158.6023102999898,1160.1181362999923,1165.1362538999963,1166.439853799995,1166.4398587999897,1167.9556790999925,1168.9722197999945,q,11.0,1.3035998999985168,1,+1,334,-23.333174595569837,-0.08004990502875531,3.1866742972147266,1155819.0,-7.178111070628951,-0.24662170928165672,-0.94474396402159,1159353.0,,,,,1160.118287161495,1156.5842871614948,
78,17,23,f,1,1,70.0,32,4,high,4 + 7 + 9 - 5 + 7,22,23,22,24,1170.4888632999937,1172.511229600001,1174.026497400002,1179.0450020999997,1180.199844399991,1180.1998496000017,1181.7165983000014,1182.7338881999897,w,22.0,1.1548422999912873,1,+10,344,-21.811341525354905,-0.03392887227748265,0.06747312440720421,1169728.0,9.508545327964413,-0.26091058174930426,0.11625963840398357,1173262.0,,,,,1174.0272871614948,1170.493287161495,
79,17,23,f,1,1,71.0,33,1,low,4 + 7 + 1 - 1 - 1,10,11,10,9,1184.2508414999902,1186.2781886000012,1187.793404600001,1192.8117596999946,1193.415760799995,1193.4157661999925,1194.932215599998,1195.9495851999964,q,11.0,0.6040011000004597,0,+0,344,13.169882075750673,-0.11807896062096934,-0.10865225047576743,1183495.0,14.226304032183023,-0.02071043872270284,0.17100012874817083,1187029.0,,,,,1187.7942871614948,1184.2602871614947,
80,17,23,f,1,1,72.0,34,3,high,3 + 8 + 1 + 5 - 9,8,9,7,8,1197.4664668999903,1199.4946018999908,1201.0097031999903,1206.027803799996,1207.7119381999946,1207.7119432999898,1209.228596999994,1210.2453494999936,e,8.0,1.6841343999985838,1,+10,354,-21.20937035015792,-0.03190155211963419,0.01764660269814944,1196711.0,8.787122663330823,0.03618699009813309,0.1168933784218893,1200245.0,,,,,1201.0102871614947,1197.4762871614948,
81,17,23,f,1,1,73.0,35,4,low,8 + 4 + 7 - 5 - 6,8,7,9,8,1211.7624336000008,1213.7881853,1215.3031263000012,1220.3217012999958,1220.8957856999914,1220.895790900002,1222.412174099998,1223.429072599989,e,8.0,0.5740843999956269,1,+1,355,7.776438282025947,0.3252794475351588,0.13553299817190312,1211005.0,-3.9212294238008862,-0.07410972647723413,-0.004875957984661339,1214538.0,,,,,1215.3032871614948,1211.770287161495,
82,17,23,f,1,1,74.0,36,4,low,7 + 6 - 9 + 8 - 3,9,9,7,8,1224.9458803000016,1226.970209799998,1228.4855425999997,1233.504515499997,1237.111799899998,1237.111805099994,1238.6282317000005,1239.6454565000022,e,8.0,3.607284400000936,0,+0,355,24.375672478093982,0.19248342232946958,0.5438478298059155,1224187.0,21.35801399876268,-0.003818756603260587,0.14955288536835165,1227721.0,,,,,1228.4862871614948,1224.9522871614947,
83,17,23,f,1,1,75.0,37,4,high,5 + 7 - 4 - 6 + 9,11,12,13,11,1241.1621636999917,1243.1881791999913,1244.7036725999933,1249.7239310000004,1250.8557713999908,1250.8557803000003,1252.3725061000005,1253.389864299999,e,11.0,1.131840399990324,1,+10,365,10.951273833477165,-0.009223546055233234,-0.05669302924309427,1240405.0,-12.995161393629537,-0.0622513987606752,0.009856279250308742,1243940.0,,,,,1244.7052871614949,1241.1702871614948,
84,17,23,f,1,2,76.0,0,3,low,8 + 5 + 1 - 7 + 9,16,14,16,17,1289.7081010999973,1291.7348861999926,1293.2502454999922,1298.2702137999877,1298.7997453999997,1298.7997506999964,1300.3163204000011,1301.3332116999954,w,16.0,0.5295316000119783,1,+1,366,6.217867705233605,1.6196967816572512,-0.15905313427166812,1288951.0,-22.981668411765618,0.20339327129713425,-0.655301931729737,1292487.0,,,,,1293.252287161495,1289.7162871614948,
85,17,23,f,1,2,77.0,1,4,low,5 + 9 - 4 + 7 + 6,23,25,23,24,1302.8500425999955,1304.8776673999964,1306.3927800999954,1311.4116467999993,1311.863699499998,1311.8637047999946,1313.3804395999905,1314.3974661999964,w,23.0,0.4520526999986032,1,+1,367,-5.047067943844439,0.3525065320862675,-0.2136502426037783,1302094.0,-5.006834350946097,-0.19664696736067855,0.1367902720572911,1305628.0,,,,,1306.3932871614948,1302.8592871614949,
86,17,23,f,1,2,78.0,2,2,high,3 + 1 + 8 - 5 - 1,6,6,5,7,1315.9144376999902,1317.9380185999908,1319.4532875000004,1324.471539899998,1324.9916559999983,1324.9916614999966,1326.508461999998,1327.5256389999995,q,6.0,0.5201161000004504,1,+10,377,28.67859464630544,-0.5885104499858431,-0.16531633410015445,1315155.0,-46.81041417499412,-0.3104370764510418,-0.15290445695335575,1318688.0,,,,,1319.453287161495,1315.9202871614948,
87,17,23,f,1,2,79.0,3,1,low,6 + 1 + 8 + 1 + 1,17,17,16,15,1329.0426108999964,1331.0682637999998,1332.5833515999984,1337.6010495999944,1338.1436173999973,1338.143622299991,1339.66113339999,1340.678306899994,q,17.0,0.5425678000028711,1,+1,378,5.681102750203831,-0.5065067237657823,-0.11659077959416342,1328285.0,5.817227928033958,0.04331546524399332,0.043186045225566794,1331818.0,,,,,1332.5832871614948,1329.050287161495,
88,17,23,f,1,2,80.0,4,1,high,6 + 1 + 1 + 9 - 1,16,16,15,14,1342.1951067999908,1344.2230469999922,1345.7382102999982,1350.756475199989,1351.287661399998,1351.2876662999915,1352.8041995999956,1353.8214448999934,q,16.0,0.5311862000089604,1,+10,388,8.876596970628444,-0.07763814094180743,0.1196121068507181,1341440.0,-4.858703272277381,-0.12983579614895646,0.1478579694872555,1344973.0,,,,,1345.7382871614948,1342.2052871614949,
89,17,23,f,1,2,81.0,5,2,high,6 + 1 + 7 - 8 - 1,5,7,4,5,1355.3383158999932,1357.365198200001,1358.8805207999976,1363.8989240999945,1365.4396932999953,1365.439698599992,1366.9565166999964,1367.9738885999975,e,5.0,1.5407692000007955,1,+10,398,-9.960692542116794,0.24625361125320344,0.1614686805678247,1354582.0,-12.875057156282178,-0.49131543607371464,0.0351338736608362,1358115.0,,,,,1358.8802871614948,1355.347287161495,
90,17,23,f,1,2,82.0,6,1,high,8 - 1 + 1 + 6 + 1,15,16,14,15,1369.4904094999947,1371.5156038999994,1373.0309871999923,1378.050190199996,1378.6556131999969,1378.6556181999913,1380.1719094,1381.1891459999897,e,15.0,0.6054230000008829,1,+10,408,12.483192092749633,0.4024788478389638,1.4462629933163202,1368732.0,1.4501889121089135,-0.48670241685283333,-0.17641573817028444,1372267.0,,,,,1373.0322871614949,1369.4972871614948,
91,17,23,f,1,2,83.0,7,1,low,4 + 1 + 1 + 7 - 1,12,13,14,12,1382.705657300001,1384.7330389999988,1386.2483928,1391.2669693999924,1391.6955898999877,1391.6955948999966,1393.2121745999902,1394.2290647999907,e,12.0,0.4286204999953042,1,+1,409,-1.30278811051158,0.026553912727159457,0.09016145128139152,1381950.0,-37.72028830774029,-0.20346714787046594,0.05477057846683109,1385483.0,,,,,1386.2482871614948,1382.7152871614949,
92,17,23,f,1,2,84.0,8,1,low,4 + 9 + 1 - 1 - 1,12,11,12,13,1395.7458716999972,1397.7702916999988,1399.2856802999886,1404.3053745999932,1404.8795978999988,1404.8796028999932,1406.3960892999894,1407.4130028999934,w,12.0,0.5742233000055421,1,+1,410,-7.965452018000359,0.047330735703847715,-0.061716016913368366,1394987.0,16.913761337759993,-0.14447820546617995,0.03250310819222246,1398522.0,,,,,1399.2872871614948,1395.752287161495,
93,17,23,f,1,2,85.0,9,1,high,8 + 1 + 4 + 1 + 1,15,14,15,16,1408.9299952,1410.95793959999,1412.4732010000007,1417.4915536999906,1417.9915697999968,1417.991574899992,1419.5080568999983,1420.5254305999988,w,15.0,0.500016100006178,1,+10,420,-10.240361316065073,-0.10168709063001602,-0.05978247368918699,1408174.0,-6.996930340319835,-0.09795229263100502,-0.04102687736856181,1411708.0,,,,,1412.473287161495,1408.9392871614948,
94,17,23,f,1,2,86.0,10,2,high,7 + 1 + 9 - 1 - 8,8,7,6,8,1422.0418158999964,1424.0699416999996,1425.5851981000014,1430.603585799996,1431.4076163999998,1431.4076222000003,1432.924435599998,1433.9420806999988,w,6.0,0.8040306000038981,0,+0,420,-15.872569177699388,-0.06118355571794787,-0.0732835486682144,1421286.0,12.860141021093735,-0.036985106534085155,0.017222216697831305,1424820.0,,,,,1425.5852871614948,1422.0512871614949,
95,17,23,f,1,2,87.0,11,3,high,3 + 1 + 8 - 5 + 6,13,13,14,15,1435.459111899996,1437.484692699989,1438.999762899999,1444.0180282999936,1444.9275374999995,1444.9275426999957,1446.4438641999875,1447.4609748999935,q,13.0,0.9095092000061412,1,+10,430,-4.05686381895633,0.2656116347469082,-0.11426128679158865,1434701.0,-2.065941415452021,-0.05067351227734118,-0.09608940747885653,1438234.0,,,,,1438.9992871614947,1435.4662871614948,
96,17,23,f,1,2,88.0,12,2,low,7 + 6 + 1 - 1 - 8,5,5,3,4,1448.9784465999985,1451.004153899994,1452.5200987999997,1457.5390142999968,1458.4876360999915,1458.4876416999905,1460.004110299997,1461.0210687999934,q,5.0,0.9486217999947256,1,+1,431,2.7139365626105025,-0.5267980228189244,0.21568696166931467,1448220.0,-6.957307418818406,0.03867717024063522,-0.027479481918222914,1451755.0,,,,,1452.520287161495,1448.9852871614949,
97,17,23,f,1,2,89.0,13,2,low,5 + 8 + 1 - 1 + 9,22,22,21,23,1462.5377568999977,1464.5627355999895,1466.0780042999977,1471.0960874000011,1471.879631499993,1471.8796366999886,1473.396242799994,1474.4131848999968,q,22.0,0.783544099991559,1,+1,432,5.899072633053013,-0.024611655905560248,0.09548004162174628,1461779.0,-42.506535230891906,-0.2757599452777182,-0.08312429338404748,1465312.0,,,,,1466.0772871614947,1462.5442871614948,
98,17,23,f,1,2,90.0,14,3,high,6 - 1 + 7 - 8 + 9,13,12,11,13,1475.929797699995,1477.9562004999898,1479.4715620999923,1484.4904671999975,1485.640994100002,1485.640999700001,1487.1579419999907,1488.1751228999929,e,13.0,1.150526900004479,1,+10,442,9.455005859860558,0.0803063014424712,-0.33556239907420027,1475172.0,8.98546481681705,-0.12407895601322005,-0.10768773578817692,1478707.0,,,,,1479.472287161495,1475.9372871614949,
99,17,23,f,1,2,91.0,15,3,high,8 - 1 + 6 - 7 + 5,11,12,11,13,1489.691890099988,1491.716537699991,1493.2315870999882,1498.250307999988,1498.8955005999887,1498.8955059,1500.4125300000014,1501.430039400002,w,11.0,0.6451926000008825,1,+10,452,15.201069751381311,0.25906930004571427,0.045313060537746086,1488933.0,13.937569203431874,-0.4831093735662182,0.05894126119596299,1492466.0,,,,,1493.2312871614947,1489.6982871614948,
100,17,23,f,1,2,92.0,16,2,low,8 + 1 + 9 + 1 - 4,15,15,16,14,1502.9477093999883,1504.9736336999922,1506.4889335999906,1511.506803799988,1512.19148329999,1512.1914883999998,1513.7079004999978,1514.7249095000006,q,15.0,0.6846795000019483,1,+1,453,-88.41568345048384,0.2757457419959879,0.031809610296727575,1502190.0,-13.849737997044887,-0.10080650527586865,-0.12410885706602759,1505723.0,,,,,1506.4882871614948,1502.9552871614949,
101,17,23,f,1,2,93.0,17,4,low,5 + 8 - 6 + 7 + 4,18,18,19,17,1516.2416726999943,1518.267197299996,1519.7825716999942,1524.8011415999936,1525.8394552999962,1525.8394602999906,1527.3560818999977,1528.3731109999935,q,18.0,1.038313700002618,1,+1,454,-9.048617763036958,-0.00998992856627412,0.15027545982484614,1515483.0,20.90050214760562,-0.2480209362920074,0.08967805374051419,1519017.0,,,,,1519.7822871614949,1516.2482871614948,
102,17,23,f,1,2,94.0,18,1,low,6 + 9 + 1 + 1 - 1,16,15,16,14,1529.890016499994,1531.9168423999945,1533.4321302999888,1538.4502623000008,1539.0714107999956,1539.0714165999962,1540.5876223999949,1541.6044052999932,w,16.0,0.621148499994888,1,+1,455,10.503334722500389,-0.1190681642844682,0.08651121099344206,1529133.0,4.095273867877197,-0.2313464729316106,0.02935538823323136,1532666.0,,,,,1533.4312871614948,1529.8982871614949,
103,17,23,f,1,2,95.0,19,2,high,6 + 1 + 8 + 5 - 1,19,18,17,19,1543.1212699999887,1545.146995499992,1546.6620071999932,1551.6801481000002,1552.3034565999988,1552.3034618999957,1553.8200766999944,1554.837981699995,e,19.0,0.6233084999985294,1,+10,465,-21.377920519682537,-0.22357457673230563,-0.038282431704858455,1542363.0,-11.0239999528954,0.03765989099932909,0.2835646012935853,1545896.0,,,,,1546.6612871614948,1543.1282871614949,
104,17,23,f,1,2,96.0,20,1,low,6 + 9 + 1 + 1 - 1,16,14,16,15,1556.354896899997,1558.379591799996,1559.8948058999958,1564.9128943999967,1565.4874334999913,1565.4874385000005,1567.0037509999966,1568.0204883999977,w,16.0,0.5745390999945812,1,+1,466,29.238143092101144,0.38455912897797795,0.00789309427939533,1555596.0,-2.627894476288236,-0.03114673272668922,0.21740155900598124,1559130.0,,,,,1559.895287161495,1556.3612871614948,
105,17,23,f,1,2,97.0,21,4,high,9 + 4 - 6 + 8 + 7,22,21,22,24,1569.537268,1571.564278699996,1573.0796771999885,1578.098467399992,1578.791346500002,1578.7913514999964,1580.307766599988,1581.325020999997,w,22.0,0.6928791000100318,1,+10,476,16.52218006164296,-0.17558456702818592,0.10811238450215477,1568780.0,4.183534829075283,0.15263421874942207,0.0057592075217425265,1572314.0,,,,,1573.079287161495,1569.5452871614948,
106,17,23,f,1,2,98.0,22,4,low,5 + 7 - 4 - 6 + 9,11,11,12,13,1582.8418256000004,1584.8706157999986,1586.385714899996,1591.4043153999955,1591.9514823999923,1591.95148779999,1593.468099299993,1594.484949699996,q,11.0,0.547166999996989,1,+1,477,-9.48641917527153,0.15397746100684362,-0.033729413852902734,1582086.0,-38.72603533298027,0.04328829991332128,-0.011857167388233947,1585620.0,,,,,1586.3852871614947,1582.8512871614948,
107,17,23,f,1,2,99.0,23,2,high,8 + 1 + 1 + 9 - 4,15,15,16,14,1596.0017766999954,1598.0267819,1599.5421635999955,1604.559479299991,1605.1753674999927,1605.1753727999894,1606.692079799992,1607.7090610000014,q,15.0,0.6158882000017911,1,+10,487,7.899355805175276,-0.22819576885971404,0.05321601472593884,1595243.0,-28.431243017288093,-0.2509822387834806,-0.023060029121725112,1598776.0,,,,,1599.541287161495,1596.0082871614948,
108,17,23,f,1,2,100.0,24,2,low,9 + 6 + 1 + 7 + 1,24,25,23,24,1609.2259836000012,1611.253731299992,1612.7687888999935,1617.7878442999936,1618.7354309999937,1618.7354360999889,1620.2519561999943,1621.2688437999896,e,24.0,0.9475867000001016,1,+1,488,12.537108934284808,0.0012121296905824863,-0.09950181040105366,1608469.0,12.193207831966255,0.16793842268547454,0.010089062893219758,1612003.0,,,,,1612.7682871614948,1609.2342871614949,
109,17,23,f,1,2,101.0,25,2,high,3 + 9 - 1 - 5 + 1,7,7,5,6,1622.785609599989,1624.8130187999925,1626.3281422,1631.3464437999935,1632.119342399994,1632.119347499989,1633.6359746999951,1634.6531779999932,q,7.0,0.7728986000001896,1,+10,498,-2.980639891184083,0.0471479772065293,0.026342895413195677,1622029.0,-47.93631679331808,-0.5862497412132255,-0.09406939649520951,1625562.0,,,,,1626.3272871614947,1622.7942871614948,
110,17,23,f,1,2,102.0,26,2,low,3 - 1 + 9 - 5 + 1,7,5,7,6,1636.1702016999916,1638.1964589999989,1639.711716699996,1644.729897799989,1645.7033953999926,1645.7034010999923,1647.2201115999924,1648.237073700002,w,7.0,0.9734976000036112,1,+1,499,-38.284695063642815,0.08076279265710973,0.05715057473827434,1635412.0,26.70120824861444,-0.15727374583577314,3.2701910610555274e-06,1638946.0,,,,,1639.7112871614947,1636.1772871614949,
111,17,23,f,1,2,103.0,27,1,high,2 + 9 + 1 + 1 + 1,14,14,13,12,1649.7540015999984,1651.780970599997,1653.2960100999917,1658.313812399996,1659.279370999997,1659.2793763999944,1660.796086199989,1661.813347599993,q,14.0,0.9655586000008044,1,+10,509,37.34510558582701,-0.060909903815073996,-0.023254670627201435,1648996.0,-36.49851436236764,-0.2042648630321966,0.08499176294957866,1652530.0,,,,,1653.2952871614948,1649.761287161495,
112,17,23,f,1,2,104.0,28,3,high,6 + 1 + 8 + 7 - 9,13,15,13,14,1663.3322697999974,1665.356952000002,1666.8720773999958,1671.8906569999965,1673.6393062999996,1673.639311699997,1675.1558577999967,1676.1733076999951,e,14.0,1.748649300003308,0,+0,509,0.016716972405848907,0.11242345239369644,0.013427370440069586,1662573.0,23.393038361041835,-0.2821724140700992,0.07587399663558125,1666106.0,,,,,1666.8712871614948,1663.338287161495,
113,17,23,f,1,2,105.0,29,2,high,5 + 7 - 8 + 1 + 1,6,6,8,7,1677.6899583999912,1679.7173934999882,1681.233340699997,1686.251214799995,1687.0073409999895,1687.0073460999993,1688.5238959999988,1689.5412230999937,q,6.0,0.7561261999944691,1,+10,519,4.763437312695722,0.2651898555671841,0.6578276936081988,1676933.0,31.906965763969385,-0.12281344050811338,0.14958234371716728,1680468.0,,,,,1681.233287161495,1677.6982871614948,
114,17,23,f,1,2,106.0,30,2,high,9 + 5 - 6 + 1 - 1,8,9,8,7,1691.0574575999926,1693.081785699993,1694.597104299988,1699.6152932999976,1700.431199499988,1700.4312043999962,1701.9477700999996,1702.9649613999936,w,8.0,0.8159061999904225,1,+10,529,-6.082925488934784,1.7955837937659265,0.18728901092523587,1690297.0,1.3400527344284168,-1.4546998981000945,0.12959329314614831,1693831.0,,,,,1694.5962871614947,1691.0622871614949,
115,17,23,f,1,2,107.0,31,3,low,8 - 7 + 9 + 1 + 4,15,15,14,16,1704.4826887999952,1706.5109015999917,1708.0263066999903,1713.0451374999975,1713.6792882000009,1713.6792934999976,1715.1958327999891,1716.212746499994,q,15.0,0.6341507000033744,1,+1,530,4.1872543451098885,0.2289621829886741,-3.7747836514332795,1703726.0,0.8651122638296815,0.013049627777224515,-0.556792198793929,1707261.0,,,,,1708.0262871614948,1704.491287161495,
116,17,23,f,1,2,108.0,32,1,low,7 + 1 + 4 + 1 - 1,12,13,14,12,1717.7295247000002,1719.7566432999884,1721.2719623000012,1726.2906560999982,1726.8952109999957,1726.8952160999906,1728.4118550999992,1729.4291354000015,e,12.0,0.6045548999973107,1,+1,531,-19.99676298874013,-0.05707383837326274,0.12736556460074522,1716972.0,10.179018275186177,-0.2117622261392076,-0.07085629254194892,1720506.0,,,,,1721.271287161495,1717.7372871614948,
117,17,23,f,1,2,109.0,33,2,high,9 + 4 + 5 + 1 - 1,18,17,18,19,1730.9461456999998,1732.9712918000005,1734.4855982000008,1739.5041448999982,1740.159216,1740.159221199996,1741.6756938999897,1742.6934272999931,w,18.0,0.6550711000018055,1,+10,541,-31.676217409616147,0.8836037909369785,2.2031763777714417,1730187.0,24.387027742016446,0.17934466369831847,-0.39553189710986025,1733720.0,,,,,1734.4852871614949,1730.9522871614947,
118,17,23,f,1,2,110.0,34,1,high,6 + 1 + 8 + 1 - 1,15,15,13,14,1744.2101770000008,1746.237731000001,1747.7528010999958,1752.770737999992,1753.3511497,1753.351158999998,1754.8675936999934,1755.8856297999882,q,15.0,0.5804117000079714,1,+10,551,17.638736693382892,-0.10924063377660209,-0.026568572980703475,1743453.0,-5.583115603748494,-0.30989155135728863,-0.1005381091709956,1746986.0,,,,,1747.751287161495,1744.2182871614948,
119,17,23,f,1,2,111.0,35,3,high,8 + 4 + 1 - 7 + 9,15,15,16,13,1757.402225599988,1759.427251599991,1760.942552099994,1765.9627694999945,1767.039187199989,1767.0391925000004,1768.5559844999952,1769.5731299999898,q,15.0,1.0764176999946358,1,+10,561,1.5881195724247235,0.14657636928625362,0.3775695896658311,1756642.0,4.833750950142409,-0.5203747318610819,-0.33313303672633254,1760178.0,,,,,1760.943287161495,1757.4072871614949,
120,17,23,f,1,2,112.0,36,4,low,3 + 9 - 5 + 8 - 7,8,7,9,8,1771.0899013000017,1773.1176231999998,1774.6329721999937,1779.6516735999903,1780.4792641999957,1780.4792697999949,1781.9960372999922,1783.012682399989,e,8.0,0.827590600005351,1,+1,562,33.18794193723831,0.09248757697131671,0.04148650662316555,1770333.0,23.317461247797958,-0.03257131679414149,0.10234809221043673,1773867.0,,,,,1774.6322871614948,1771.098287161495,
121,17,23,f,1,2,113.0,37,4,high,4 + 7 - 8 + 9 - 3,9,9,8,11,1784.5296974999949,1786.5577091000014,1788.0734875999915,1793.091307199997,1794.1671514999907,1794.1671578999958,1795.683776699996,1796.701024599999,q,9.0,1.0758442999940598,1,+10,572,9.340834721477865,-0.1289394376649904,-0.07890579415549026,1783773.0,15.29102969662489,-0.061348295101203654,-0.004152370364389757,1787307.0,,,,,1788.0722871614948,1784.5382871614947,
122,17,23,f,1,3,114.0,0,4,low,6 + 9 - 7 + 8 - 5,11,13,11,12,1821.883378499988,1823.909520699992,1825.4246166999949,1830.444728599992,1831.055095799995,1831.055101099992,1832.5714497000008,1833.588469099996,w,11.0,0.6103672000026563,1,+1,573,-9.404792881113007,-4.036675603629106,-14.328039803236665,1821124.0,11.70442322928034,-0.466397556688686,-0.21072033791552958,1824660.0,,,,,1825.425287161495,1821.8892871614948,
123,17,23,f,1,3,115.0,1,2,high,7 + 6 + 1 + 8 + 1,23,21,23,22,1835.1049587000016,1837.129115699994,1838.644385499996,1843.662853599992,1844.2630777000013,1844.263082599995,1845.7791527999943,1846.796380499989,w,23.0,0.6002241000096546,1,+10,583,-5.904192215097623,-0.03950033687248489,0.06773885587621731,1834344.0,7.768743344299136,0.2025549333083725,0.04530833853077065,1837878.0,,,,,1838.6432871614948,1835.1092871614949,
124,17,23,f,1,3,116.0,2,2,high,5 + 9 - 8 + 1 + 1,8,8,9,7,1848.3131288000004,1850.337537799991,1851.8528491999896,1856.8710796999949,1857.63105679999,1857.6310620000004,1859.1476619999885,1860.1644612999955,q,8.0,0.7599770999950124,1,+10,593,-13.508224259642976,0.6368466025398929,-0.05257155947562353,1847552.0,12.277030825493869,0.1128650693952924,-0.14315403049147868,1851086.0,,,,,1851.8512871614948,1848.3172871614947,
125,17,23,f,1,3,117.0,3,1,low,5 + 1 + 1 + 6 + 1,14,16,14,13,1861.681247799992,1863.7086830999904,1865.2240203999968,1870.2424863999915,1870.799057199998,1870.7990621999925,1872.3156610000003,1873.3324514999983,w,14.0,0.5565708000067389,1,+1,594,-35.278516639733354,-0.19840431927176727,0.058740336271312366,1860924.0,-27.856983139787097,-0.052482569622974484,0.04129870673807767,1864457.0,,,,,1865.222287161495,1861.6892871614948,
126,17,23,f,1,3,118.0,4,4,high,8 + 4 + 7 - 5 - 6,8,6,9,8,1874.849127399997,1876.875917199999,1878.3912179999895,1883.4110585000017,1884.223049799999,1884.223055099996,1885.7395406,1886.756826699988,e,8.0,0.8119912999973167,1,+10,604,-2.397186893512373,0.4252728934440997,-0.00789890924481429,1874091.0,-3.6631071437184914,0.08825774592678792,0.016705362167665605,1877626.0,,,,,1878.3912871614948,1874.8562871614947,
127,17,23,f,1,3,119.0,5,1,high,7 + 1 + 4 + 1 - 1,12,13,11,12,1888.273449699991,1890.298290599996,1891.8135361999884,1896.831732199993,1897.615028299988,1897.6150332999969,1899.1307509999897,1900.1483826999904,e,12.0,0.7832960999949137,1,+10,614,15.553202117816328,0.022486251348422748,0.01795336727305874,1887513.0,18.825519949215014,0.0785088987616791,-0.009584642885622774,1891047.0,,,,,1891.8122871614949,1888.2782871614947,
128,17,23,f,1,3,120.0,6,1,high,2 + 1 + 9 + 1 - 1,12,11,12,13,1901.6652369999936,1903.6904896999915,1905.205788499996,1910.224076300001,1911.0550128999892,1911.0550183000012,1912.571391299993,1913.589269899996,w,12.0,0.8309365999884903,1,+10,624,-8.069598503446556,0.33509891835966776,0.014325642957894846,1900905.0,13.213972145012272,-0.19207842944056486,-0.056050534163421206,1904439.0,,,,,1905.204287161495,1901.6702871614948,
129,17,23,f,1,3,121.0,7,2,high,2 + 9 - 4 + 1 + 1,9,11,8,9,1915.1069923999892,1917.1342447999923,1918.6495619999916,1923.667907199997,1924.478963299989,1924.4789685,1925.995143399996,1927.0123175999904,e,9.0,0.811056099992129,1,+10,634,-12.356302410039268,0.13990649886817907,-0.07991747505998759,1914349.0,-1.634020022964073,-0.24216151231507155,0.09157342029666404,1917883.0,,,,,1918.6482871614949,1915.1142871614948,
130,17,23,f,1,3,122.0,8,3,high,3 - 7 + 5 + 1 + 9,11,11,13,12,1928.529749099995,1930.5561937999885,1932.0714290999892,1937.0909230999969,1938.7669761,1938.7669809999932,1940.2835360999889,1941.3007346999948,e,12.0,1.6760530000028666,0,+0,634,-16.346331868879478,0.3508579118375259,-0.0004963929469659067,1927771.0,3.7045646559463012,0.07058901287175523,-0.15020828226040206,1931306.0,,,,,1932.0712871614949,1928.5362871614948,
131,17,23,f,1,3,123.0,9,2,high,2 + 1 + 9 - 4 + 1,9,8,11,9,1942.8176317999896,1944.8445818999896,1946.3594968999969,1951.3778642999969,1953.103019199989,1953.103024600001,1954.619512199992,1955.636804199996,e,9.0,1.7251548999920487,1,+10,644,27.658301054307014,-0.029074528857893522,0.07484617392326331,1942059.0,-7.333647034470989,-0.09087864583746397,0.0010311157123850112,1945593.0,,,,,1946.358287161495,1942.8242871614948,
132,17,23,f,1,3,124.0,10,1,high,5 + 6 + 1 + 1 + 1,14,13,16,14,1957.1535715999928,1959.1790071,1960.6940133999888,1965.712220199988,1966.278946599996,1966.2789515999905,1967.7952407999985,1968.812505199996,e,14.0,0.5667264000076102,1,+10,654,24.16033302879967,0.15663096719224967,0.554102303378865,1956394.0,-17.757456561850983,-0.11436779898748561,0.009637287529701277,1959927.0,,,,,1960.6922871614947,1957.1592871614948,
133,17,23,f,1,3,125.0,11,1,high,9 + 7 + 1 + 1 + 1,19,19,20,18,1970.329182100002,1972.3533661999973,1973.8689028999945,1978.887475899988,1979.679014399997,1979.679019999996,1981.1955052999983,1982.2128072999917,q,19.0,0.7915385000087554,1,+10,664,-42.73149288458556,0.14272450931959524,-0.00353471866494659,1969568.0,-2.444109685768831,0.15080733130880075,0.12845957653038997,1973102.0,,,,,1973.867287161495,1970.3332871614948,
134,17,23,f,1,3,126.0,12,2,low,3 + 9 + 1 - 5 + 1,9,7,9,8,1983.7296385999944,1985.7547710999931,1987.2697439999904,1992.2877325000009,1993.1509338999892,1993.1509389999992,1994.6673639999933,1995.6841218999907,w,9.0,0.8632013999886112,1,+1,665,-18.56401195311587,0.14288403256477267,0.05216490342617153,1982969.0,-23.986361067219494,-0.1496151274915114,0.09831272811318081,1986502.0,,,,,1987.2672871614948,1983.7342871614949,
135,17,23,f,1,3,127.0,13,4,low,8 + 3 - 4 + 5 + 9,21,23,22,21,1997.200821099992,1999.229848499992,2000.7449464999956,2005.763210399993,2008.4870701999896,2008.4870757999888,2010.0040037,2011.020986399992,w,22.0,2.723859799996717,0,+0,665,23.26475501664036,0.9523346876170438,0.2085440313298088,1996444.0,1.6923910700178801,-0.3610694511981616,-0.7455990547958806,1999978.0,,,,,2000.743287161495,1997.2092871614948,
136,17,23,f,1,3,128.0,14,2,high,4 + 8 + 1 + 1 - 5,9,8,11,9,2012.5388093999936,2014.560824100001,2016.0761088,2021.0942693999968,2021.8468613000005,2021.846866699998,2023.363482899993,2024.3806574999908,e,9.0,0.7525919000036083,1,+10,675,-43.71409137464864,-1.656792690893509,0.7712209007123194,2011776.0,17.070997102144215,-2.752714528409542,-0.5286249991894496,2015309.0,,,,,2016.0742871614948,2012.541287161495,
137,17,23,f,1,3,129.0,15,3,low,2 + 9 - 3 + 4 + 1,13,13,14,11,2025.8976028999896,2027.9254358999897,2029.440698599996,2034.4594747999945,2035.367020799997,2035.3670259999928,2036.8834854000013,2037.9003969999903,q,13.0,0.9075460000021848,1,+1,676,34.87120071510063,0.7827032078609375,0.019418157509024203,2025140.0,4.877356997856813,0.10775299319953247,0.07825479680978908,2028674.0,,,,,2029.4392871614948,2025.905287161495,
138,17,23,f,1,3,130.0,16,3,high,7 - 6 + 8 + 1 + 7,17,16,15,17,2039.4173643999968,2041.4421771999916,2042.957084199996,2047.9757207999935,2048.518863899997,2048.5188692999945,2050.035347799989,2051.052870899992,e,17.0,0.5431431000033626,1,+10,686,-12.553819487414664,-0.3117145114455422,-0.04608854577329202,2038657.0,25.243912008611268,0.11408390282651126,0.04011470068458034,2042190.0,,,,,2042.9552871614949,2039.4222871614948,
139,17,23,f,1,3,131.0,17,1,high,8 + 1 + 1 + 1 - 4,7,8,7,5,2052.569869400002,2054.5959379999986,2056.110908499992,2061.12912659999,2061.766863500001,2061.7668688999984,2063.283628099991,2064.3009290999908,w,7.0,0.6377369000110775,1,+10,696,-8.225841864216846,0.10661962110204737,0.13690249988354264,2051810.0,0.12228423392787535,-0.049422864824610446,-0.0015334787842899988,2055343.0,,,,,2056.1082871614944,2052.5752871614945,
140,17,23,f,1,3,132.0,18,3,low,8 + 6 - 7 + 1 - 4,4,3,5,4,2065.8177877999988,2067.8420872999995,2069.357474599994,2074.37746589999,2074.8548384999885,2074.854843499997,2076.3713553999987,2077.3883626999886,e,4.0,0.477372599998489,1,+1,697,-22.572227215690425,0.016058021357530983,0.033989745981015895,2065056.0,-14.049594679663311,-0.04761555401197004,0.08153660684886166,2068592.0,,,,,2069.3572871614947,2065.8212871614946,
141,17,23,f,1,3,133.0,19,4,high,9 + 7 - 5 + 8 + 6,25,27,25,24,2078.9048728999915,2080.92686159999,2082.4421344,2087.460685400001,2088.07886899999,2088.078874499988,2089.5955442999984,2090.612655799996,w,25.0,0.6181835999886971,1,+10,707,17.286276230453637,-0.044455106496606334,0.012972255604305705,2078141.0,9.806059397973165,0.04873779406047474,0.07823024083508856,2081675.0,,,,,2082.440287161495,2078.9062871614947,
142,17,23,f,1,3,134.0,20,2,low,5 - 8 + 7 + 1 + 1,6,8,7,6,2092.12938459999,2094.156294699991,2095.6715554999973,2100.690120200001,2103.206773599988,2103.206779,2104.723645899998,2105.7409424999933,q,8.0,2.5166533999872627,0,+0,707,8.725698578335077,0.9501520519939759,0.011935631079021292,2091370.0,-23.730330670492638,0.023056130487327575,-0.12380981487168508,2094904.0,,,,,2095.6692871614946,2092.1352871614945,
143,17,23,f,1,3,135.0,21,1,high,8 + 1 + 1 + 1 - 3,8,8,9,6,2107.2574909999967,2109.2852697999915,2110.800562299992,2115.819705099988,2116.5509250999894,2116.5509304000007,2118.067533499998,2119.0848718999914,q,8.0,0.7312200000014855,1,+10,717,22.441917003944265,0.06428918660641081,-0.05476853216117128,2106499.0,15.32489666529197,0.06348907101352008,0.09876593316101334,2110034.0,,,,,2110.7992871614947,2107.2642871614944,
144,17,23,f,1,3,136.0,22,4,high,9 + 8 - 5 - 7 + 6,11,13,10,11,2120.601895,2122.6237526999903,2124.1390287999966,2129.157660500001,2129.6547547999944,2129.654760699996,2131.1721196,2132.1894785999903,e,11.0,0.4970942999934777,1,+10,727,0.06240266832005403,0.27228715053965535,0.02007910032743143,2119838.0,14.425605481407095,-0.35945450368213416,0.08459417558801197,2123372.0,,,,,2124.1372871614944,2120.603287161495,
145,17,23,f,1,3,137.0,23,1,high,3 + 1 + 1 + 8 - 1,12,12,14,13,2133.7062902999896,2135.728701,2137.2439902999904,2142.262247599996,2142.9347634000005,2142.934768499996,2144.4515934999945,2145.468740799988,q,12.0,0.6725158000044758,1,+10,737,28.498806621350685,-0.4881380168968481,0.03880906489609148,2132943.0,17.055189193140354,-0.005691513872705833,-0.04527438670261752,2136476.0,,,,,2137.2412871614947,2133.708287161495,
146,17,23,f,1,3,138.0,24,4,low,3 + 8 - 4 + 9 + 6,22,22,21,23,2146.9853984999936,2149.0089897,2150.5240560999955,2155.5423132,2156.174794199993,2156.1747994999896,2157.691489199992,2158.7084416,q,22.0,0.6324809999932768,1,+1,738,-4.5669721903381415,-0.1550629782354669,0.09201783245474782,2146223.0,-48.742546577953775,-0.24162823236949293,0.18562901462264403,2149756.0,,,,,2150.5212871614945,2146.9882871614946,
147,17,23,f,1,3,139.0,25,1,high,7 - 1 + 9 + 1 - 1,15,13,15,14,2160.225362799989,2162.2523038999934,2163.767443299992,2168.7862133000017,2169.422741999995,2169.422746899989,2170.939470600002,2171.9571181999927,w,15.0,0.6365286999935051,1,+10,748,35.899793734481676,0.17589751031704592,-0.051651923053462445,2159466.0,-59.34094681145392,0.2193413605057879,-0.0008372599660824154,2163000.0,,,,,2163.7652871614946,2160.2312871614945,
148,17,23,f,1,3,140.0,26,1,low,9 + 8 + 1 + 1 - 1,18,19,18,17,2173.4738431000005,2175.500465199992,2177.0157062999933,2182.033436999991,2182.822768400001,2182.822774100001,2184.3395806999906,2185.3574302999914,w,18.0,0.7893314000102691,1,+1,749,8.080482173702954,0.14419527581673197,0.06819858225053865,2172714.0,-10.060049673853287,-1.1301836083556531,0.21230081052461292,2176248.0,,,,,2177.0132871614946,2173.4792871614945,
149,17,23,f,1,3,141.0,27,1,low,3 + 1 + 9 + 1 + 1,15,15,17,14,2186.8741100999905,2188.8971104999946,2190.4124587999977,2195.43041619999,2196.206949200001,2196.206972499989,2197.7232821999933,2198.7401925000013,q,15.0,0.7765330000111135,1,+1,750,6.054487105898132,0.07335008436010426,-0.041603773890768636,2186111.0,-10.364080154660572,0.03604265758626157,0.05029435435512064,2189644.0,,,,,2190.4092871614944,2186.8762871614945,
150,17,23,f,1,3,142.0,28,4,low,3 + 9 - 5 + 6 + 8,21,21,22,23,2200.256934399993,2202.281253299996,2203.796328099997,2208.8145272999973,2212.0387630999903,2212.0387686999893,2213.5554850999906,2214.5723975,w,22.0,3.224235799993039,0,+0,750,-15.856393724694916,0.03448274386572159,-0.00909317448296898,2199495.0,0.4404533147317302,-0.013359522222644582,-0.03203430357834769,2203029.0,,,,,2203.7942871614946,2200.2602871614945,
151,17,23,f,1,3,143.0,29,1,low,2 + 9 + 1 + 1 + 1,14,12,14,13,2216.089518199995,2218.1143774999946,2219.629459899996,2224.6475502999965,2225.1666158000007,2225.1666205999936,2226.683204699992,2227.7000695999886,w,14.0,0.519065500004217,1,+1,751,-15.68001331033182,0.840480749426717,-0.08643027881173504,2215328.0,14.739262804475329,-0.08943279567000229,0.05612329276754213,2218861.0,,,,,2219.6262871614945,2216.0932871614946,
152,17,23,f,1,3,144.0,30,3,high,7 - 1 + 8 - 6 + 4,12,11,13,12,2229.2170102999958,2231.2428358999896,2232.758045900002,2237.777033099992,2238.4226501999947,2238.4226550999883,2239.938436099997,2240.9549823999987,e,12.0,0.6456171000027098,1,+10,761,-0.006353640100400071,0.008689149818603692,-0.09745930362443023,2228457.0,-38.89401402981074,-0.40415456886304657,-0.13391105051648378,2231991.0,,,,,2232.7562871614946,2229.2222871614945,
153,17,23,f,1,3,145.0,31,1,low,5 + 9 - 1 + 1 + 1,15,17,13,15,2242.4718273999897,2244.4989761999896,2246.0142771999963,2251.032349199988,2251.694669699995,2251.6946745999885,2253.21151139999,2254.228553199995,e,15.0,0.6623205000068992,1,+1,762,34.24199586895601,-0.07636193797033242,0.0695861223401657,2241713.0,7.920820718701787,-0.013442934009843643,0.10106665041345186,2245246.0,,,,,2246.0112871614947,2242.478287161495,
154,17,23,f,1,3,146.0,32,3,low,2 + 1 + 9 - 7 + 6,11,12,13,11,2255.7453277999884,2257.770355000001,2259.2851028000005,2264.3049287999893,2264.942623800001,2264.942628699995,2266.459035299995,2267.475811299999,e,11.0,0.6376950000121724,1,+1,763,-5.659149429398634,0.15863606632922078,0.02202189407586652,2254984.0,-14.476707452410698,-0.08389933894934742,-0.015032867931720206,2258519.0,,,,,2259.2842871614944,2255.7492871614945,
155,17,23,f,1,3,147.0,33,4,high,4 + 7 + 8 - 3 + 9,25,26,24,25,2268.9935373999906,2271.0176202,2272.532824399997,2277.5507771999983,2279.886601099992,2279.8866063999885,2281.403158999994,2282.420210199998,e,25.0,2.335823899993557,1,+10,773,2.947401576479421,-2.784746346142869,-11.944786194728076,2268231.0,-12.092452221055938,0.21285587468579914,0.056791799791675146,2271765.0,,,,,2272.5302871614945,2268.996287161495,
156,17,23,f,1,3,148.0,34,2,low,6 + 1 + 7 + 5 - 1,18,18,17,16,2283.9370163999997,2285.965317299997,2287.480756399993,2292.499231499998,2293.238573800001,2293.2385784999933,2294.755226699999,2295.7720389999886,q,18.0,0.7393423000030452,1,+1,774,-5.571968857841574,-1.4215032335895046,-6.829402482275039,2283179.0,5.946512835311509,0.3090024468066104,0.019252599086527766,2286713.0,,,,,2287.478287161495,2283.9442871614947,
157,17,23,f,1,3,149.0,35,4,low,7 + 8 - 4 + 6 - 5,12,13,11,12,2297.2891957999964,2299.31534239999,2300.8305324999965,2305.849374799989,2306.3505952999985,2306.3506009999983,2307.867134999993,2308.883979099992,e,12.0,0.5012205000093672,1,+1,775,26.102328076910656,-0.4464275938220723,0.10708042651434213,2296529.0,-30.914827525465306,-0.4045596068893169,-1.3521820361303003,2300063.0,,,,,2300.8282871614947,2297.2942871614946,
158,17,23,f,1,3,150.0,36,2,low,9 + 6 + 1 + 7 + 1,24,25,24,23,2310.40073709999,2312.426624,2313.9417311,2318.960011499992,2319.7585341999948,2319.7585393999907,2321.2750275,2322.2919334999897,w,24.0,0.7985227000026498,1,+1,776,7.709157987447569,-0.0997291499202273,0.88336510380761,2309640.0,20.115170110111347,0.14003089707368055,-0.09085243941201515,2313173.0,,,,,2313.9382871614944,2310.4052871614945,
159,17,23,f,1,3,151.0,37,1,high,2 + 1 + 1 + 9 - 1,12,11,13,12,2323.808769299998,2325.834084000002,2327.349421299994,2332.3673614,2333.078537299996,2333.0785423999914,2334.5950116999884,2335.611878099997,e,12.0,0.7111758999963058,1,+10,786,-2.678243434616024,0.8445383205403223,0.15551016598807887,2323048.0,-0.3725366257337539,-0.4786347035407803,0.13874628958689428,2326581.0,,,,,2327.3462871614947,2323.8132871614944,
160,17,23,f,1,4,152.0,0,4,low,6 + 7 + 9 - 3 + 5,24,22,23,24,2364.274651899992,2366.3023562000017,2367.8174665999977,2372.837421899996,2373.7585560000007,2373.7585616,2375.275211699991,2376.293033399997,e,24.0,0.921134100004565,1,+1,787,3.961120524143846,1.2430446326190756,4.062271051546225,2363516.0,13.34340732465891,-0.8888279598777307,-0.4721339650380263,2367051.0,,,,,2367.8162871614945,2364.2812871614947,
161,17,23,f,1,4,153.0,1,4,high,6 + 9 + 7 - 3 - 5,14,13,14,15,2377.8102762999915,2379.8382985999924,2381.3533731999923,2386.3721476999926,2387.798467399989,2387.7984724999988,2389.315007600002,2390.3329158999986,w,14.0,1.426319699996384,1,+10,797,7.786469146024297,1.2340121316119972,-0.01534358708118666,2377052.0,2.106501264873378,-0.46380721431653615,0.01912351347546437,2380586.0,,,,,2381.3512871614944,2377.8172871614947,
162,17,23,f,1,4,154.0,2,2,high,7 + 8 + 1 + 9 + 1,26,26,25,24,2391.8495028999896,2393.874676499996,2395.389911499995,2400.4096751999896,2401.094515399993,2401.094520499988,2402.611269899993,2403.6287454999983,q,26.0,0.6848402000032365,1,+10,807,10.607300650128057,0.1030771926828824,0.038473047370317426,2391088.0,-3.255590259569547,0.09161252994996882,-0.10280646685439065,2394623.0,,,,,2395.3882871614946,2391.853287161495,
163,17,23,f,1,4,155.0,3,4,low,4 + 7 - 8 + 9 - 4,8,8,7,9,2405.145607300001,2407.1700933999964,2408.684844999996,2413.703102599989,2414.326424400002,2414.3264299,2415.8429542999947,2416.8599139,q,8.0,0.6233218000124907,1,+1,808,1.3459962741242926,-0.06897948064782788,0.03584098489043619,2404383.0,-23.740110829690945,-0.06017367040790367,0.0823949677951672,2407917.0,,,,,2408.6822871614945,2405.1482871614944,
164,17,23,f,1,4,156.0,4,2,high,4 + 1 + 9 + 1 - 6,9,8,9,7,2418.3771522999887,2420.402646699993,2421.917860699992,2426.935850199996,2427.774433999992,2427.7744392999884,2429.290710000001,2430.308038399992,w,9.0,0.8385837999958312,1,+10,818,-6.9632593519760775,-0.9307594585627834,-6.621650707011283,2417616.0,11.882761277652923,-0.4199574565854034,0.030298596310782244,2421149.0,,,,,2421.9142871614945,2418.3812871614946,
165,17,23,f,1,4,157.0,5,3,low,8 + 3 + 1 - 7 + 9,14,14,15,12,2431.8248760999995,2433.8524396,2435.367862999992,2440.386408999999,2440.8944080999936,2440.894413599992,2442.4112716999957,2443.4281661999994,q,14.0,0.5079990999947768,1,+1,819,-15.216901606866564,0.6108175436078556,0.019773617350321793,2431066.0,12.01353089494938,-1.4435344298004096,0.11102027010151128,2434600.0,,,,,2435.3652871614945,2431.8312871614944,
166,17,23,f,1,4,158.0,6,2,low,6 + 8 + 1 + 1 - 7,9,9,8,11,2444.944985199996,2446.97026419999,2448.4862818999973,2453.5065799000004,2454.318415799993,2454.318420800002,2455.8342970999947,2456.850952599998,q,9.0,0.8118358999927295,1,+1,820,24.19179030721765,0.2929538943325314,-0.06768374527098486,2444184.0,-12.347881878224165,-0.2924382432310577,0.1345905695056706,2447720.0,,,,,2448.4852871614944,2444.949287161495,
167,17,23,f,1,4,159.0,7,4,low,5 + 8 - 4 - 6 + 9,12,12,13,14,2458.367469799996,2460.3948195999983,2461.9100334999966,2466.928420199998,2467.526430599988,2467.526435599997,2469.0424375,2470.059072899996,q,12.0,0.5980103999900166,1,+1,821,-1.6569622553595087,0.2085956948668528,-0.030350071537904144,2457608.0,4.844733228833472,-0.3437673360179305,-0.08178824791602635,2461142.0,,,,,2461.9072871614944,2458.3732871614948,
168,17,23,f,1,4,160.0,8,1,high,6 + 9 + 1 + 1 - 1,16,14,15,16,2471.576054199992,2473.603951199999,2475.1191371999885,2480.1377637999976,2481.4304329000006,2481.430438299998,2482.947133499998,2483.9644326999987,e,16.0,1.2926691000029678,1,+10,831,-0.8096305341696048,0.6062298118797269,-0.014653687253974867,2470817.0,29.478223542969513,-0.4446246341208684,0.07382451875923768,2474351.0,,,,,2475.1162871614947,2471.5822871614946,
169,17,23,f,1,4,161.0,9,3,low,2 + 1 + 9 - 5 + 6,13,14,13,11,2485.481317599988,2487.5063427999994,2489.021625900001,2494.039989099998,2494.486360099996,2494.4863650999905,2496.002336799997,2497.0195220999885,w,13.0,0.4463709999981802,1,+1,832,-1.19046347039116,1.3912349797066312,-1.215110654976971,2484718.0,0.15425110303415113,-0.52556019877782,-0.0909263524000774,2488253.0,,,,,2489.0182871614948,2485.4832871614944,
170,17,23,f,1,4,162.0,10,2,high,2 + 1 + 9 - 4 + 1,9,8,9,11,2498.536269199991,2500.563045899995,2502.0790932999957,2507.0968424999883,2507.8223784,2507.8223837999976,2509.339057399993,2510.3562466000003,w,9.0,0.7255359000118915,1,+10,842,0.43334812819243496,1.4035717292994474,0.21680709507067641,2497777.0,13.068224480419246,-0.9979781112753643,-0.5255297029598818,2501311.0,,,,,2502.0762871614947,2498.5422871614946,
171,17,23,f,1,4,163.0,11,2,high,5 - 1 + 1 + 8 + 9,22,21,23,22,2511.8729704,2513.897001899997,2515.412467599992,2520.430439699994,2521.1662799999904,2521.166285,2522.682973499992,2523.700236699995,e,22.0,0.7358402999961982,1,+10,852,-2.7504137284553503,0.29340688863651376,0.026235646620560216,2511110.0,13.31434021670714,-1.2984502653884764,-0.6209321300687347,2514644.0,,,,,2515.4092871614944,2511.8752871614947,
172,17,23,f,1,4,164.0,12,4,low,4 + 7 + 8 - 3 + 9,25,24,25,26,2525.216964499996,2527.241432099996,2528.7564944999904,2533.7746488999983,2534.5663119999954,2534.5663171999918,2536.082790999993,2537.100204599992,w,25.0,0.7916630999970948,1,+1,853,-20.350918870693118,-0.6383679968500036,0.04693650242476033,2524454.0,-13.479497028149254,0.09041971327691156,-0.0890724913033849,2527988.0,,,,,2528.7532871614944,2525.219287161495,
173,17,23,f,1,4,165.0,13,2,high,4 + 8 + 1 + 1 - 6,8,8,9,7,2538.617024199993,2540.642548599993,2542.157535299993,2547.1754293999984,2548.166329,2548.1663346999994,2549.6824464999954,2550.6997148999944,q,8.0,0.9908996000012849,1,+10,863,29.123191288390974,0.056031728581332985,0.011418066865077403,2537855.0,12.691081988393616,0.07251939816436748,-0.013398815145682752,2541389.0,,,,,2542.1542871614947,2538.6202871614946,
174,17,23,f,1,4,166.0,14,4,high,2 + 9 - 4 + 8 + 7,22,23,22,21,2552.2164931000007,2554.2439012999967,2555.7599191999907,2560.7782833999954,2561.982315699992,2561.982320700001,2563.498703999998,2564.515949499997,w,22.0,1.20403229999647,1,+10,873,-18.486508755934903,-0.034277057883683515,0.10499401720819401,2551457.0,6.562222535314651,0.029333877771881234,0.08118138718122014,2554992.0,,,,,2555.757287161495,2552.2222871614945,
175,17,23,f,1,4,167.0,15,2,low,9 + 1 + 6 + 7 + 1,24,23,24,25,2566.032702299999,2568.0589555999904,2569.5743150999915,2574.593214499997,2575.166245100001,2575.166249899994,2576.682678500001,2577.7000905999885,w,24.0,0.573030600004131,1,+1,874,-21.32053575937588,1.9672683204365446,1.8906610962819024,2565272.0,7.71543393111884,-0.13423927693836246,-0.6870783636146485,2568806.0,,,,,2569.5712871614946,2566.0372871614945,
176,17,23,f,1,4,168.0,16,1,low,4 + 8 + 1 - 1 - 1,11,13,9,11,2579.216480099989,2581.242251499993,2582.7573963999894,2587.7765493999905,2588.9021981999977,2588.9022034999944,2590.4189385999925,2591.435845299988,e,11.0,1.125648800007184,1,+1,875,17.81811149811085,1.1165501696688356,0.10150365553657048,2578455.0,-1.1035172766428047,-0.7760146857536583,-0.053931844526121875,2581989.0,,,,,2582.7542871614946,2579.2202871614945,
177,17,23,f,1,4,169.0,17,4,low,7 + 6 - 4 + 9 - 5,13,12,13,14,2592.9525994,2594.978919699992,2596.4938912999933,2601.513710300001,2602.1902749,2602.190280499999,2603.7068617999903,2604.7234874999995,w,13.0,0.6765645999985281,1,+1,876,2.6661390672285314,0.3902834858943467,0.18524637008333023,2592192.0,16.341326747492033,0.07479279351495638,-0.0054082200819425275,2595727.0,,,,,2596.4922871614945,2592.9572871614946,
178,17,23,f,1,4,170.0,18,2,low,4 + 9 + 1 - 7 - 1,6,5,6,8,2606.240571000002,2608.267937600001,2609.7832531999884,2614.802243099999,2615.566225999996,2615.566230899989,2617.0823294,2618.099179699988,w,6.0,0.7639828999963356,1,+1,877,-23.73261194969934,-0.1627974462497419,0.10081660861875608,2605481.0,12.496950357493986,-0.7370270950943318,0.07664569994185211,2609015.0,,,,,2609.7802871614945,2606.246287161495,
179,17,23,f,1,4,171.0,19,3,high,5 + 6 - 4 - 1 + 7,13,14,15,13,2619.6159149000014,2621.6424890999915,2623.157848899995,2628.1774005999905,2629.1662627999904,2629.1662681000016,2630.68363639999,2631.7013824999885,e,13.0,0.9888621999998576,1,+10,887,-12.340411776938096,-0.19378620709061778,-0.03590314107304127,2618855.0,2.982366374190488,-0.29724187234516775,-0.00984584566314739,2622390.0,,,,,2623.1552871614945,2619.6202871614946,
180,17,23,f,1,4,172.0,20,1,high,3 + 1 + 8 - 1 + 1,12,12,10,13,2633.217948199992,2635.2429507999914,2636.757963799988,2641.776109499988,2642.6061671999923,2642.6061722000013,2644.123211999992,2645.140558400002,q,12.0,0.830057700004545,1,+10,897,-5.397950981182181,-0.40446480173676624,-0.03693260697655609,2632456.0,18.753847399412123,-0.6674373572079051,0.1272284860105628,2635989.0,,,,,2636.7542871614946,2633.2212871614947,
181,17,23,f,1,4,173.0,21,4,low,7 + 6 - 9 + 8 - 3,9,8,9,7,2646.6574523000018,2648.684365699999,2650.1995893999992,2655.2184272000013,2656.654215999996,2656.6542224000004,2658.1702724999923,2659.187861300001,w,9.0,1.435788799994043,1,+1,898,-24.567542630690877,0.25607394054219723,-0.002570489993911851,2645897.0,10.931426118786067,0.14548069762642912,-0.02527329840449899,2649431.0,,,,,2650.1962871614946,2646.6622871614945,
182,17,23,f,1,4,174.0,22,2,high,6 + 1 + 8 + 7 - 1,21,19,21,23,2660.704544599997,2662.728651799989,2664.2437633999944,2669.262224299993,2670.0621600000013,2670.0621651999973,2671.579612299989,2672.5970848,w,21.0,0.7999357000080636,1,+10,908,17.898756118500923,1.005098417596526,0.2947396587922413,2659941.0,-65.19742669576922,-0.6831139069149654,-2.943710217021899,2663475.0,,,,,2664.2402871614945,2660.7062871614944,
183,17,23,f,1,4,175.0,23,4,high,7 + 8 - 4 + 6 + 5,22,21,22,23,2674.1135969999887,2676.139634199993,2677.6548766999917,2682.673300099996,2683.9341944999906,2683.934199700001,2685.450689199992,2686.467998799999,w,22.0,1.260894399994868,1,+10,918,2.0692584471631825,0.5329901013019231,0.18908527585077728,2673352.0,-16.372250693643966,-0.8945175150458953,0.03435392225163447,2676886.0,,,,,2677.6512871614946,2674.1172871614945,
184,17,23,f,1,4,176.0,24,1,low,5 + 6 + 1 + 1 + 1,14,15,14,16,2687.984736300001,2690.0125704999955,2691.527802600001,2696.54533909999,2697.0541562,2697.0541615999973,2698.5704810999887,2699.587395499999,w,14.0,0.5088171000097645,1,+1,919,17.448462611635065,-0.1439494889135906,0.022926862414177185,2687225.0,-2.0077533116314754,0.057802724720377174,-0.02410474898021131,2690758.0,,,,,2691.5232871614944,2687.9902871614945,
185,17,23,f,1,4,177.0,25,3,low,2 - 4 + 9 + 7 + 1,15,15,13,16,2701.104217299988,2703.131977500001,2704.6473676999885,2709.6658599999937,2712.326107199988,2712.3261123999982,2713.843359499995,2714.8603372999933,q,15.0,2.6602471999940462,1,+1,920,6.753247747909533,0.46005648499255924,-0.15897300733122122,2700345.0,-31.67598325949678,-0.0660933615889947,0.11551683396921653,2703878.0,,,,,2704.6432871614948,2701.1102871614944,
186,17,23,f,1,4,178.0,26,4,low,3 + 8 - 4 + 9 + 7,23,24,23,22,2716.3771805,2718.403828999988,2719.918444899988,2724.9371084000013,2727.5740731999977,2727.5740783999936,2729.0920031999995,2730.1079784999893,e,22.0,2.636964799996349,0,+0,920,-18.770002913531183,0.07305603657895476,0.0008619357224579627,2715616.0,-28.08313064166228,-0.5857918201746428,0.10537610500948391,2719150.0,,,,,2719.9152871614947,2716.3812871614946,
187,17,23,f,1,4,179.0,27,4,high,2 + 9 - 6 + 8 - 4,9,7,11,9,2731.624720199994,2733.650247599988,2735.165592899997,2740.18428039999,2741.7900658,2741.7900716000004,2743.307248500001,2744.3248318999977,w,11.0,1.605785400010063,0,+0,920,10.687291953232037,0.8468938195181042,0.49375480739604183,2730863.0,-2.68438255286895,-1.0616973740834172,-1.8640845944761752,2734397.0,,,,,2735.1622871614945,2731.6282871614944,
188,17,23,f,1,4,180.0,28,3,high,9 + 3 - 4 + 6 + 7,21,23,21,22,2745.841728799991,2747.866163300001,2749.3813303999923,2754.399627699997,2755.526062799996,2755.526067599989,2757.042390699993,2758.059743199992,w,21.0,1.126435099999071,1,+10,930,20.556944750803805,1.4016196087785309,0.27895007826716833,2745078.0,1.1856086144857798,-0.462468742400747,0.020028100544933203,2748612.0,,,,,2749.3772871614947,2745.8432871614946,
189,17,23,f,1,4,181.0,29,4,high,2 + 9 - 3 + 5 + 8,21,21,23,22,2759.576530399994,2761.601812399997,2763.1173407999886,2768.136706699996,2768.838020399998,2768.838025399993,2770.354677999989,2771.3721946000005,q,21.0,0.7013137000030838,1,+10,940,38.568954714354426,1.1171380267892999,0.0341978666976992,2758814.0,-6.911947870404678,0.12481221100839779,0.09704286770080617,2762348.0,,,,,2763.1132871614946,2759.5792871614944,
190,17,23,f,1,4,182.0,30,3,high,3 + 8 - 7 + 1 + 9,14,12,14,13,2772.8890645999927,2774.9157146999933,2776.431149600001,2781.4494246999966,2784.4300271999964,2784.4300326999946,2785.946756099991,2786.9640042999963,w,14.0,2.9806024999998044,1,+10,950,1.500929015748743,0.2561238835632538,0.02006924866059756,2772128.0,-9.613293999538929,-0.37025270307412805,0.12232241864715876,2775662.0,,,,,2776.4272871614944,2772.8932871614948,
191,17,23,f,1,4,183.0,31,3,low,4 + 1 + 8 + 9 - 5,17,17,18,19,2788.480686099996,2790.505905500002,2792.0212747999904,2797.039392699997,2798.693999199997,2798.6940044999938,2800.2103835000016,2801.227419799994,q,17.0,1.6546065000002272,1,+1,951,-19.336084449686034,0.3835000041424741,-0.032855960362173864,2787718.0,19.521643552127674,-0.46060203177563297,0.04088829754098855,2791252.0,,,,,2792.0172871614946,2788.4832871614944,
192,17,23,f,1,4,184.0,32,2,low,7 + 5 + 1 + 9 + 1,23,21,23,22,2802.7444460999977,2804.772465000002,2806.287691599995,2811.306455599988,2813.0140642999904,2813.014069699988,2814.530776899992,2815.5477106999897,w,23.0,1.7076087000023108,1,+1,952,-21.378218385449493,0.5182856542249055,0.12293942041221739,2801984.0,-8.946972631825277,-1.0233475368873632,-0.12482006943526436,2805518.0,,,,,2806.2832871614946,2802.7492871614945,
193,17,23,f,1,4,185.0,33,1,high,9 + 1 + 1 + 7 - 1,17,16,17,19,2817.0645266999927,2819.091531099999,2820.6067662999994,2825.6265157000016,2826.358005000002,2826.3580104,2827.874110299992,2828.891344499993,w,17.0,0.7314893000002485,1,+10,962,5.833873681513056,0.45824909874574216,-0.09314250631952126,2816304.0,49.49652848567781,-0.6483250034433259,-0.3088165938134597,2819839.0,,,,,2820.6042871614945,2817.0692871614947,
194,17,23,f,1,4,186.0,34,1,low,7 - 1 + 8 + 1 - 1,14,14,12,13,2830.407898399993,2832.447166699989,2833.9622031999897,2838.9807658999925,2839.8220239999937,2839.8220291999896,2841.338535899995,2842.355443099994,q,14.0,0.8412581000011414,1,+1,963,-6.482838466348136,-0.15426831392310092,0.0342560715266107,2829659.0,-7.375956282551652,-0.6265143913933335,0.24766330516775992,2833193.0,,,,,2833.958287161495,2830.4242871614947,
195,17,23,f,1,4,187.0,35,4,high,4 + 9 - 7 + 8 + 5,19,21,20,19,2843.8725470999925,2845.8982468999893,2847.413007899988,2852.433814799995,2854.190013899992,2854.190019099988,2855.706756399988,2856.7240833999967,e,19.0,1.7561990999965928,1,+10,973,9.632111411498538,0.22773148020636214,-0.04895306739180283,2843110.0,0.12600989057458634,-0.004602873476104108,0.11831572689013292,2846645.0,,,,,2847.4102871614946,2843.8752871614947,
196,17,23,f,1,4,188.0,36,2,low,8 + 1 + 9 + 1 - 5,14,14,13,15,2858.241036399995,2860.267423799989,2861.7829334999988,2866.8008616000006,2870.925908099991,2870.9259133000014,2872.442576100002,2873.4596165999974,q,14.0,4.125046499990276,1,+1,974,-50.82462719926062,0.25673999175839324,-0.028468717016890688,2857479.0,0.7945288746701671,-0.2693255721632055,0.9471849380138808,2861013.0,,,,,2861.7782871614945,2858.2442871614944,
197,17,23,f,1,4,189.0,37,2,low,5 + 1 + 7 - 6 + 1,8,7,6,8,2874.976507899992,2877.0002708999964,2878.5156135,2883.534128,2884.1019196999987,2884.101924799994,2885.6180139999924,2886.635052400001,e,8.0,0.5677916999993613,1,+1,975,24.054862379574928,0.07483034432915803,0.04157302771773952,2874212.0,-37.66091043326327,-0.26777195911964213,-0.062881073146271,2877746.0,,,,,2878.5112871614947,2874.9772871614946,
198,17,23,f,1,5,190.0,0,4,low,4 + 8 + 9 - 3 + 7,25,24,25,26,2917.0343368999893,2919.062351799992,2920.577362099997,2925.597277199995,2926.1738767999923,2926.173881900002,2927.6904155999946,2928.707343199989,w,25.0,0.5765995999972802,1,+1,976,31.786914530985143,2.405059270057656,2.9971248350223623,2916274.0,-29.86579219984305,-0.4606353420977438,-1.3337593625272426,2919809.0,,,,,2920.574287161495,2917.0392871614945,
199,17,23,f,1,5,191.0,1,1,low,9 + 8 + 1 + 1 - 1,18,20,17,18,2930.2243786999898,2932.251563500002,2933.766856199989,2938.785102900001,2939.5498586999893,2939.5498641000013,2941.066399699994,2942.08356069999,e,18.0,0.7647557999880519,1,+1,977,-7.688227455807398,0.10280973277848293,-0.1924294322993494,2929463.0,-14.77454514745542,-0.761771801227797,-0.08388257696137069,2932997.0,,,,,2933.7622871614944,2930.228287161495,
