,id,age,sex,cued,block,trial,trialinblock,efflev,rewlev,calc,corAns,option1,option2,option3,tstart,ITI1Time,probTime,respTime,selectTime,ITI2Time,fbTime,ITI3Time,key_press,chosenAns,RT,acc,feedback,total_points,cuescr,cuecor,cuezyg,cuetime,probscr,probcor,probzyg,probtime,fbscr,fbcor,fbzyg,fbtime,probtime_c,cuetime_c,fbtime_c
0,18,27,m,0,Practice,,0,1,0,4 + 1 + 9 + 1 + 1,16,15,14,16,46.96067630000471,,46.96067840000615,51.98896630000672,54.26085610000882,54.26086249999935,55.77804259999539,56.79972379999526,e,16.0,2.2718898000021,1,Correct,0,,,,,-10.056643738795316,0.9040285125136189,0.16754502373565083,46246.0,-4.797936249971821,-0.7582928258442645,0.08994490511941744,55056.0,46.9752012720018,,55.78520127200179
1,18,27,m,0,Practice,,1,1,0,3 + 1 + 1 + 8 - 1,12,12,11,10,58.31635649999953,,58.31635979999555,63.33890010000323,66.16499170000316,66.16499760000443,67.68199320000713,68.70006820000708,q,12.0,2.826091599999927,1,Correct,0,,,,,-17.948652322801998,0.17307443492946062,0.024196259821781974,57596.0,-41.42924954845935,-0.168358582113612,0.0837360784655039,66957.0,58.32520127200179,,67.68620127200178
2,18,27,m,0,Practice,,2,2,0,8 + 1 + 6 + 1 - 4,12,12,11,10,70.2183839000063,,70.21839069999987,75.238408300007,76.46075949999795,76.46076560000074,77.97774750000099,78.9955833999993,q,12.0,1.222351199990953,1,Correct,0,,,,,7.762574955533826,0.5241154360788811,-0.2682510619439442,69495.0,1.3638115269761535,0.024874596016607686,-0.053024062907004454,77253.0,70.22420127200179,,77.98220127200179
3,18,27,m,0,Practice,,3,2,0,9 + 4 - 6 + 1 - 1,7,5,7,6,80.51236799999606,,80.51237110000511,85.53138319999562,92.39682199999515,92.3968279999972,93.91406140000618,94.9321445999958,w,7.0,6.865438799999538,1,Correct,0,,,,,33.86997096698026,-0.37738776880005975,0.11127657469284769,79788.0,13.342269644407,-24.7484319709432,-0.21955431670086956,93189.0,80.51720127200178,,93.91820127200178
4,18,27,m,0,Practice,,4,3,0,9 + 3 - 5 + 6 + 7,20,21,22,20,96.44938980000734,,96.44939290000184,101.46979529999952,113.90100090000487,113.90100680000614,115.41810840000107,116.43758720000916,w,22.0,12.431205600005342,0,Incorrect,0,,,,,-3.932392346571909,-0.047818538099126506,0.10707337022426944,95727.0,16.124346915626358,-1.1736110458592215,-0.031812117840386955,114695.0,96.45620127200179,,115.42420127200178
5,18,27,m,0,Practice,,5,3,0,2 + 1 + 9 - 7 + 6,11,9,10,11,117.95461450000585,,117.95461810000415,122.97528719999536,129.19700630000443,129.19701230000646,130.71376700000835,131.7313587999961,e,11.0,6.221719100009068,1,Correct,0,,,,,-31.91013032069965,0.0741680143468244,0.043392282113306146,117232.0,-1.0163310515458068,-0.40071641242164135,0.12592729712039863,129989.0,117.96120127200179,,130.7182012720018
6,18,27,m,0,Practice,,6,4,0,4 + 8 + 5 - 3 + 7,21,22,23,21,133.24867010000162,,133.24867319999612,138.26875040000596,140.76494720000483,140.76495359999535,142.28228590000072,143.30009099999734,e,21.0,2.49619679999887,1,Correct,0,,,,,11.643456838083607,0.37919935468554833,1.3424711513477547,132526.0,-20.135290145724053,-0.06822294692112862,0.13206814117025267,141557.0,133.2552012720018,,142.2862012720018
7,18,27,m,0,Practice,,7,4,0,5 + 8 - 4 + 6 + 9,24,22,23,24,144.81738290000067,,144.81738599999517,149.83695939999598,159.1728948000091,159.17290059999505,160.68996770000376,161.70815819999552,q,22.0,9.335935400013112,0,Incorrect,0,,,,,-0.5766683707595632,-0.6675291504756333,0.12354312188250005,144094.0,-17.04343895294821,-0.6695026755757785,-0.04594754894460329,159965.0,144.8232012720018,,160.6942012720018
8,18,27,m,1,0,0.0,0,2,low,4 + 1 + 9 + 1 - 6,9,8,9,7,264.5063300000038,266.5344398000016,268.0498583000008,273.0685875000054,278.085602799998,278.0856053000025,279.6024066999962,280.6246802999958,,,,0,Too Slow!,0,-10.270633287935812,0.8629973148871448,10.956675162832676,263791.0,-7.241908891487112,1.196817997240788,-3.330774994743159,267325.0,-2.9892827088603973,0.4123165344436166,0.20334070919757607,278881.0,268.05420127200176,264.52020127200177,279.61020127200175
9,18,27,m,1,0,1.0,1,3,low,6 - 1 + 7 - 8 + 9,13,13,12,11,282.1420632000081,284.1683680999995,285.68363909999607,290.70267359999707,293.3942698000028,293.394275300001,294.9112172000023,295.9282303000073,w,12.0,2.6915962000057334,0,+0,0,12.993526106552274,-0.11314012117103545,0.24702418456964326,281425.0,27.710925572586905,-0.09056317896290444,0.06594469387703761,284959.0,4.881024604038477,0.12528756565947186,0.04395164622971448,3268436.0,285.6882012720018,282.1542012720018,3269.165201272002
10,18,27,m,1,0,2.0,2,3,low,7 + 1 + 9 + 5 - 6,16,14,15,16,297.445409100008,299.4673632000049,300.9826419000019,306.00236810000206,308.8422738000081,308.84227900000405,310.3592723000038,311.3763297999976,e,16.0,2.839905700006057,1,+1,1,4.2965477027537275,-0.035525370949815116,-1.4270035225097968,296724.0,-1.6451261768762855,-0.02417840715103292,-0.06065536729293486,300259.0,,,,,300.9882012720018,297.45320127200176,
11,18,27,m,1,0,3.0,3,2,high,8 + 1 + 7 + 1 - 4,13,14,12,13,312.89305500000773,314.92014980000386,316.4353087000054,321.45439420000184,323.7782317000092,323.7782368000044,325.29457890000776,326.3115303999948,e,13.0,2.323837500007357,1,+10,11,6.938403675772983,-0.8930906897643704,0.08130634573288265,312177.0,2.847864360868975,-0.11890994195930293,0.039583904573697204,315711.0,,,,,316.4402012720018,312.9062012720018,
12,18,27,m,1,0,4.0,4,2,low,5 + 1 + 7 - 6 + 1,8,7,6,8,327.82788480000454,329.85363090000465,331.3689149999991,336.3890517999971,337.5142149000021,337.5142201999988,339.0310798999999,340.0480969000055,e,8.0,1.125163100005011,1,+1,12,5.634044113946112,-0.25034715947780173,-0.07274488284351888,327110.0,-8.581649166865779,0.3039185857839368,-0.056830513654188675,330646.0,,,,,331.3752012720018,327.8392012720018,
13,18,27,m,1,0,5.0,5,3,high,3 + 1 + 8 - 5 + 6,13,14,15,13,341.5648329999967,343.59258070000215,345.10854040000413,350.12695330000133,353.72215040000447,353.7221553999989,355.2388715999987,356.25613890000386,w,15.0,3.595197100003133,0,+0,12,-7.401366234446455,0.07257894310118074,2.117808187710642,340849.0,-4.043227462502379,0.2792336769186834,-0.0870249315120768,344383.0,,,,,345.11220127200176,341.57820127200176,
14,18,27,m,1,0,6.0,6,4,high,9 + 4 - 6 + 8 + 7,22,21,22,24,357.7729825999995,359.7974510000058,361.3127935000084,366.3317437000078,367.4661606000009,367.4661655000091,368.9829354999965,370.0004027999967,w,22.0,1.1344168999930844,1,+10,22,24.643045734863506,-0.5853043174100927,-0.1939128113572719,357054.0,12.434289027165024,-0.24447955294118628,0.0548155054124726,360588.0,,,,,361.3172012720018,357.78320127200175,
15,18,27,m,1,0,7.0,7,3,low,5 - 1 - 4 + 6 + 7,13,14,13,15,371.5171803999983,373.5414071999985,375.05683970000246,380.0754145999963,381.3062168000033,381.3062224000023,382.8228471000039,383.83989600000496,w,13.0,1.2308022000070196,1,+1,23,4.961126675096935,0.38478765132070913,0.10304408236480023,370797.0,-3.2770255606116585,0.5418042189853685,0.19146722213630185,374332.0,,,,,375.06120127200177,371.5262012720018,
16,18,27,m,1,0,8.0,8,2,high,7 + 6 + 1 - 1 - 8,5,5,4,3,385.3565538999974,387.38050090000615,388.8957706000074,393.9144381000078,395.0342917000089,395.0342973000079,396.5517051000061,397.5689571999974,q,5.0,1.119853600001079,1,+10,33,40.067567661136934,-0.35391683055994605,-0.1661253501819855,384637.0,-33.49930054968003,0.6428171118955324,0.0876396984477521,388171.0,,,,,388.90020127200177,385.3662012720018,
17,18,27,m,1,0,9.0,9,2,high,8 + 1 + 1 + 9 - 4,15,15,14,16,399.0857270999986,401.11315289999766,402.62849289999576,407.6469219999999,408.5302512000053,408.53025710000657,410.04694300000847,411.0648052000033,q,15.0,0.8833292000053916,1,+10,43,0.6203358753442334,-0.3256608788893276,-0.05907421536635371,398369.0,21.10845108269126,-0.46527230757668114,0.01790239670432947,401903.0,,,,,402.6322012720018,399.0982012720018,
18,18,27,m,1,0,10.0,10,4,low,3 + 9 - 5 + 6 + 8,21,23,21,22,412.5814030000038,414.6056877000083,416.1209779000055,421.1403089000087,421.9941269999981,421.9941323999956,423.51035070000216,424.52717570000095,w,21.0,0.8538180999894394,1,+1,44,-3.9472480351833994,0.10934523719063316,0.0874532639948562,411862.0,19.712388036484164,0.220542261108156,0.0732743267064706,415396.0,,,,,416.1252012720018,412.5912012720018,
19,18,27,m,1,0,11.0,11,2,high,7 + 1 + 9 - 1 - 8,8,7,6,8,426.0440766999964,428.0706706000056,429.5860249999969,434.6045947000093,435.634332600006,435.6343380000035,437.151013900002,438.1684294000006,e,8.0,1.0297378999966895,1,+10,54,5.141628426140126,0.03522069536654149,0.19885374757871088,425327.0,5.669570769801169,-0.07372984435253738,0.02476241825262293,428861.0,,,,,429.59020127200176,426.0562012720018,
20,18,27,m,1,0,12.0,12,3,high,8 + 5 + 1 - 7 + 9,16,14,16,17,439.6855726000067,441.7135344999988,443.22873499999696,448.2481166000071,449.7141455000092,449.7141512000089,451.2309785999969,452.2497158000042,w,16.0,1.4660289000021294,1,+10,64,-3.7004338152053027,0.20785074436075934,-0.009543660904629325,438970.0,15.85595060799136,0.2853478340834821,-0.3520206595446891,442503.0,,,,,443.23220127200176,439.6992012720018,
21,18,27,m,1,0,13.0,13,4,high,9 + 3 - 5 + 8 + 6,21,19,21,23,453.7666089999984,455.7904764999985,457.3057392000046,462.3240846999979,463.378077100002,463.3780832000048,464.8945999999996,465.912020600008,w,21.0,1.0539924000040628,1,+10,74,12.680651544469546,-0.13551022180707628,-0.34954589774057854,453047.0,14.863313489435098,-0.09379467093724125,0.07399593175881658,456580.0,,,,,457.30920127200176,453.7762012720018,
22,18,27,m,1,0,14.0,14,2,high,3 + 8 + 1 - 5 + 1,8,9,8,6,467.4288057000085,469.453525799996,470.96871480000846,475.9869667000021,477.94605250000313,477.9460585000052,479.4627767000056,480.4801908000081,w,8.0,1.9590858000010485,1,+10,84,-23.902672799811384,-0.25830056358916487,-11.068036491175443,466710.0,11.016319461800567,-0.5197437922193644,-0.18248663068015736,470243.0,,,,,470.97220127200177,467.43920127200175,
23,18,27,m,1,0,15.0,15,4,low,5 + 7 - 4 + 8 + 6,22,24,23,22,481.9969840999984,484.0222848999984,485.5375754999986,490.5566659000033,491.63411050000286,491.6341159000003,493.15079509999487,494.1677376000007,e,22.0,1.0774445999995803,1,+1,85,-59.297707443348855,-1.2235123222900204,20.461880694224703,481278.0,24.1008021487986,0.6594501635520884,-0.058146657793139545,484813.0,,,,,485.54220127200176,482.0072012720018,
24,18,27,m,1,0,16.0,16,2,low,7 + 6 + 1 + 8 + 1,23,23,21,22,495.6842890999978,497.7098111000087,499.2252344000008,504.2450491000054,505.1460296000005,505.1460344000079,506.662370200007,507.6792598000029,q,23.0,0.9009804999950576,1,+1,86,-17.51133639408742,-0.738032613636229,-0.09587515186167161,494966.0,-7.952835552402611,-0.7017701928744922,-0.034031807267171255,498501.0,,,,,499.23020127200175,495.6952012720018,
25,18,27,m,1,0,17.0,17,1,high,4 + 8 + 1 - 1 - 1,11,9,13,11,509.1963309999992,511.22435410000617,512.7396863000031,517.7579150000092,519.0020111000049,519.0020164000016,520.5179558999953,521.5352405000012,e,11.0,1.2440960999956587,1,+10,96,8.568958913958252,-0.050246180739496715,0.0594720375237745,508480.0,-39.757672502156055,0.5412917888339086,0.20674842487993117,512014.0,,,,,512.7432012720018,509.2092012720018,
26,18,27,m,1,0,18.0,18,1,low,7 + 1 + 4 + 1 - 1,12,11,12,13,523.052062600007,525.0795507000003,526.5948337000009,531.6137746000022,532.4980370999983,532.4980429999996,534.0151140999951,535.032214699997,w,12.0,0.8842624999961117,1,+1,97,-10.909128430967876,0.22046480941493485,-0.1253543254570586,522336.0,-22.089540346246853,0.5123647291662623,-0.16991404721738412,525869.0,,,,,526.5982012720018,523.0652012720018,
27,18,27,m,1,0,19.0,19,3,high,7 - 1 + 9 - 5 + 4,14,13,14,15,536.5490960000025,538.5753417000087,540.0906027000019,545.1089703000034,548.2259464999952,548.2259517000057,549.7426377000083,550.7605957000051,q,13.0,3.116976199991768,0,+0,97,5.104585817790136,-0.7369273870938771,0.31491714650125324,535831.0,-29.72074333058316,-0.33415511811511456,-0.4245321905705699,539365.0,,,,,540.0942012720018,536.5602012720018,
28,18,27,m,1,0,20.0,20,1,low,7 - 1 + 9 + 1 - 1,15,13,14,15,552.277376500002,554.302774900003,555.8181171000033,560.8371843000059,562.5459706999973,562.5459761000093,564.0627708999964,565.0797645999992,e,15.0,1.708786399991368,1,+1,98,-28.485830639807403,-0.2849837482642923,0.10366094026227923,551559.0,-24.162138039830545,0.16829630610968715,0.05913082084739574,555092.0,,,,,555.8212012720018,552.2882012720017,
29,18,27,m,1,0,21.0,21,3,low,7 - 6 + 8 + 1 + 7,17,16,17,15,566.596269200003,568.623883799999,570.1393755000026,575.157743600008,577.0820046000008,577.0820093000075,578.5986453000078,579.6163289999968,w,17.0,1.924260999992839,1,+1,99,0.9689120671503844,-0.4553489418139405,0.11343483997721826,565880.0,-8.085865306626308,0.6166198619153231,-0.7336213472466384,569414.0,,,,,570.1432012720018,566.6092012720018,
30,18,27,m,1,0,22.0,22,1,high,7 + 1 + 6 + 1 + 1,16,16,17,18,581.133044999995,583.1573546,584.6726607000019,589.6906641999958,590.8421705000073,590.8421761000063,592.3586947000003,593.3763036000018,q,16.0,1.151506300011533,1,+10,109,5.064045113547994,0.4245374642267117,0.04923822793034094,580413.0,-28.15762766125065,0.07328693992248381,0.03350263728722269,583946.0,,,,,584.6752012720018,581.1422012720018,
31,18,27,m,1,0,23.0,23,2,high,9 + 6 + 1 + 7 + 1,24,24,25,23,594.892823000002,596.9187851000024,598.4340031000029,603.4524379000068,606.6178872000019,606.6178924999986,608.1344237000012,609.1513108000072,q,24.0,3.165449299995089,1,+10,119,-11.363008033643084,0.07061039732842467,-0.05072235649895385,594174.0,-31.24651223617111,0.18258774279201972,0.15437024146798262,597708.0,,,,,598.4372012720017,594.9032012720018,
32,18,27,m,1,0,24.0,24,3,low,6 + 1 + 8 + 7 - 9,13,15,13,14,610.6681981000002,612.6957492000074,614.2108669000008,619.2299540999957,621.1939311000024,621.1939364999998,622.710172799998,623.7268865000078,w,13.0,1.9639770000067076,1,+1,120,7.5920495778885275,-0.80197353135096,-7.349799910849137,609951.0,8.032568817400666,-0.04147266976261843,0.1284035321344945,613486.0,,,,,614.2152012720018,610.6802012720018,
33,18,27,m,1,0,25.0,25,4,low,2 + 5 - 3 + 9 + 8,21,22,21,19,625.2437500999949,627.2696031000087,628.7848844999971,633.8032831000019,636.8100031000067,636.8100080000004,638.3266189999995,639.3439486999996,e,19.0,3.006720000004861,0,+0,120,-8.777469927943912,-0.3506074647347064,0.100124054506741,624525.0,23.187652926383958,0.03753861735155439,0.05027454430947853,628059.0,,,,,628.7882012720017,625.2542012720018,
34,18,27,m,1,0,26.0,26,3,low,2 + 1 + 9 - 4 + 6,14,15,14,16,640.8609910000087,642.8884695000015,644.4037504000007,649.4219871999958,650.6098329000088,650.609838000004,652.126145400005,653.1431771000061,w,14.0,1.1878457000129856,1,+1,121,-14.347617788221218,-0.280518514871114,-0.040045634662408736,640143.0,-18.273933126815493,0.12569769420955978,-0.1250857546971753,643678.0,,,,,644.4072012720018,640.8722012720018,
35,18,27,m,1,0,27.0,27,3,low,5 + 6 + 7 - 1 - 9,8,7,8,9,654.6601955000078,656.684880300003,658.1997824999999,663.2179899000039,665.9219146999967,665.9219197000057,667.4391735999961,668.4560236999969,w,8.0,2.7039247999928198,1,+1,122,-19.39897914998142,0.17588033836818306,0.0419786707332126,653940.0,21.71723528014172,0.021275895896374575,0.03521297114388977,657474.0,,,,,658.2032012720018,654.6692012720018,
36,18,27,m,1,0,28.0,28,1,low,7 + 1 + 4 + 1 - 1,12,13,12,14,669.9724363999994,671.9998984999984,673.515167000005,678.5334566000092,679.4178437000082,679.4178486000019,680.9339048999973,681.9511673000088,q,13.0,0.8843870999990031,0,+0,122,7.53406691505389,0.3446854287874963,-0.09151433470012904,669255.0,1.8929955049580114,0.34046590714079317,0.1294547302667446,672789.0,,,,,673.5182012720018,669.9842012720018,
37,18,27,m,1,0,29.0,29,1,low,6 + 1 + 8 + 1 + 1,17,17,15,16,683.4675788000022,685.4924639000092,687.0076914000092,692.0259094000066,693.8418278000026,693.8418334000016,695.3581845000008,696.3750327000016,q,17.0,1.815918399996008,1,+1,123,24.61337941087649,0.1395053330101219,-0.06310574929173285,682748.0,-4.201266537853542,0.005907454464309847,0.03660043270530999,686281.0,,,,,687.0102012720017,683.4772012720018,
38,18,27,m,1,0,30.0,30,2,low,3 + 9 - 1 - 5 + 1,7,7,6,5,697.8924437999958,699.9180013000005,701.4333320000005,706.4522762999986,707.7218055999983,707.7218108000088,709.2383238000039,710.2556723000016,w,6.0,1.2695292999997037,0,+0,123,7.539672861463313,0.10147524194503621,0.03342649691507704,697173.0,-29.090850276745638,0.10773588824621294,-0.16554406951688772,700708.0,,,,,701.4372012720017,697.9022012720018,
39,18,27,m,1,0,31.0,31,3,high,7 - 1 + 8 - 6 + 4,12,13,12,11,711.7726962000015,713.800868499995,715.3161155999987,720.3349663999979,721.2338525999949,721.2338579000061,722.7504512000014,723.767726200007,w,12.0,0.8988861999969231,1,+10,133,-3.525574891642931,0.029092613657172528,0.11406047604300062,711056.0,0.0017688901459038675,-0.13881998282143115,0.10565703429441564,714590.0,,,,,715.3192012720018,711.7852012720018,
40,18,27,m,1,0,32.0,32,2,high,9 + 4 + 5 + 1 - 1,18,19,17,18,725.2846178000036,727.3129996000062,728.827560699996,733.8458386999991,734.9057775999972,734.9057830000093,736.4221044000005,737.4392574000085,e,18.0,1.0599388999980874,1,+10,143,3.1753552206274662,-1.0976750335294954,0.051952959311793556,724569.0,-42.303554556821155,-0.03177853245493889,-0.00713469639876152,728101.0,,,,,728.8302012720018,725.2982012720017,
41,18,27,m,1,0,33.0,33,2,high,5 - 8 + 7 + 1 + 1,6,6,8,7,738.9566081000085,740.9808559000085,742.4960081000027,747.5146669999958,748.3777762999962,748.3777812000044,749.8944658999972,750.9119484999974,q,6.0,0.8631093000003602,1,+10,153,-1.9302455680833006,-0.5214160039493136,-0.0005724986998947301,738236.0,10.480603547505641,0.030129727662572492,0.04686344663644926,741770.0,,,,,742.4992012720018,738.9652012720018,
42,18,27,m,1,0,34.0,34,1,high,3 + 1 + 1 + 8 - 1,12,13,14,12,752.4290478000039,754.4572797000001,755.9726143000007,760.9908261000091,764.4017789000063,764.4017848000076,765.9185937000002,766.9360468000086,e,12.0,3.410952799997176,1,+10,163,20.094957867432008,-0.6821844607465399,-0.02610528293429981,751712.0,-35.715378900475514,0.06280372085510111,-0.03339828790774013,755246.0,,,,,755.9752012720018,752.4412012720018,
43,18,27,m,1,0,35.0,35,4,high,3 + 8 - 4 + 9 + 7,23,23,22,24,768.4526277999976,770.4780686000013,771.9929915999965,777.0114733000082,779.2896981000085,779.2897036000068,780.8063161000027,781.8237366999965,q,23.0,2.2782248000003165,1,+10,173,0.32617408691210414,-0.8934494510511084,-0.13391722040461063,767733.0,2.427261254369183,-0.2524719481452711,0.07206010996009393,771267.0,,,,,771.9962012720018,768.4622012720017,
44,18,27,m,1,0,36.0,36,1,low,8 - 1 + 1 + 6 + 1,15,15,16,14,783.3404398999992,785.3681995000079,786.8833662999969,791.9015562999994,794.5456373000052,794.5456432000065,796.0623092000023,797.0795733999985,w,16.0,2.6440810000058264,0,+0,173,37.36273972851567,-0.11262499573900042,0.0523370601255182,782623.0,3.851442835272385,0.25148921120175105,0.006666236729963693,786157.0,,,,,786.8862012720018,783.3522012720018,
45,18,27,m,1,0,37.0,37,4,low,2 + 9 - 3 + 5 + 8,21,22,23,21,798.5962888000067,800.6246012000047,802.1398958000063,807.158588300008,808.2658056000073,808.2658108000032,809.7826350999967,810.7998248000076,e,21.0,1.10721729999932,1,+1,174,-9.977854153336235,-1.887531251019423,-3.1379516275462667,797880.0,-9.189921609068096,0.21413827441371192,0.00011142170843947419,801414.0,,,,,802.1432012720018,798.6092012720018,
46,18,27,m,1,1,38.0,0,1,high,8 + 1 + 1 + 1 - 3,8,6,8,9,873.3501583000034,875.3772090999992,876.8924351000023,881.9122911000013,882.9616561000003,882.9616615999985,884.4789020000026,885.4972263000091,w,8.0,1.049364999998943,1,+10,184,9.231240831788142,1.0198908715008357,1.7949993272166962,872632.0,18.43135083524622,-0.5082537765490933,-1.414676040657842,876167.0,,,,,876.8962012720018,873.3612012720017,
47,18,27,m,1,1,39.0,1,1,low,7 + 1 + 4 + 1 - 1,12,13,11,12,887.0145729000069,889.0417780999996,890.5577081000083,895.5775252000021,896.5936406999972,896.5936461000092,898.1104338000005,899.1268334000051,e,12.0,1.0161154999950668,1,+1,185,-42.844732477866444,-0.12005550742676263,-0.12393178207262467,886296.0,27.23541233962112,-0.024151299038874807,-0.09086743591226454,889832.0,,,,,890.5612012720018,887.0252012720018,
48,18,27,m,1,1,40.0,2,4,low,7 + 8 - 4 + 6 - 5,12,13,12,11,900.6440007000056,902.6711286000065,904.186372600001,909.2052274000016,911.3775689000032,911.3775738999976,912.8941053000016,913.910916000008,e,11.0,2.172341500001494,0,+0,185,21.485436427052683,0.42775475980594724,-0.15035238796459316,899926.0,12.023297730208569,0.04411280918238081,0.014997415514809154,903460.0,,,,,904.1892012720018,900.6552012720018,
49,18,27,m,1,1,41.0,3,4,low,6 + 9 - 7 + 8 - 5,11,11,12,13,915.4283461000014,917.4522213000018,918.9675942000032,923.9865187999968,925.0255322000012,925.0255372999964,926.542138799996,927.5592134000036,q,11.0,1.0390134000044782,1,+1,186,-2.8313443839614436,-0.07260473912981968,0.19591857364988075,914707.0,-14.425128054684496,0.23419221193357087,-0.010467820003448702,918241.0,,,,,918.9702012720018,915.4362012720018,
50,18,27,m,1,1,42.0,4,3,high,6 - 1 + 7 - 8 + 9,13,13,11,12,929.075995399995,931.1043948000006,932.6192299999966,937.6376539000048,940.5215325000026,940.5215373999964,942.0381253999948,943.0558472999984,q,13.0,2.8838785999978427,1,+10,196,42.497683651082,-0.0073137821909354805,0.08379481469145245,928359.0,14.920404896016018,-0.2749153117730514,0.0880333321488862,931893.0,,,,,932.6222012720018,929.0882012720018,
51,18,27,m,1,1,43.0,5,1,low,5 + 8 - 1 + 1 + 1,14,14,12,16,944.572805200005,946.6003477000048,948.115535600009,953.1337814,954.1215612999948,954.1215666000062,955.6381742000084,956.6551779,q,14.0,0.9877798999950756,1,+1,197,0.8319316436885984,-0.1650352606468366,-0.06622769676840212,943855.0,-22.480878756628663,-14.584701301531467,-15.932287472250493,947388.0,,,,,948.1172012720018,944.5842012720018,
52,18,27,m,1,1,44.0,6,1,low,5 + 1 + 1 + 6 + 1,14,13,14,16,958.1719845000044,960.195565300004,961.7107308999985,966.7284589000046,967.633622399997,967.6336280999968,969.1502514000022,970.1672289999988,w,14.0,0.9051634999923408,1,+1,198,14.59314484715022,0.08687949235083448,-0.0390404638733477,957450.0,16.072453915013483,-0.04653804602987721,0.040699371089180536,960983.0,,,,,961.7122012720017,958.1792012720018,
53,18,27,m,1,1,45.0,7,3,high,2 + 9 - 3 + 4 + 1,13,14,11,13,971.6841470000072,973.7098234000003,975.225262699998,980.2436261999974,981.3214681999962,981.321473300006,982.8379931999953,983.8556430000026,e,13.0,1.0778419999987818,1,+10,208,-8.925962496554893,0.12183089623868781,0.052339722943721245,970964.0,32.76710612296252,-0.5397225712749529,0.2918504638750272,974498.0,,,,,975.2272012720018,971.6932012720018,
54,18,27,m,1,1,46.0,8,3,low,9 - 1 + 5 - 6 + 8,15,14,17,15,985.3724649000068,987.3963683000038,988.9116544999996,993.9306347999956,994.8495505000028,994.8495561000018,996.3662015000008,997.382980800001,e,15.0,0.9189157000073463,1,+1,209,-16.07028864542432,-0.25808730032520266,-0.12665881433180215,984651.0,15.034319990904674,-0.014780470315474581,0.06025021561456034,988185.0,,,,,988.9142012720017,985.3802012720017,
55,18,27,m,1,1,47.0,9,3,high,9 - 5 - 1 - 6 + 8,5,5,4,7,998.8996878000034,1000.9229025999956,1002.437659400006,1007.456007300003,1010.4094756999984,1010.4094813999982,1011.9261451000056,1012.9433950999957,w,4.0,2.9534683999954723,0,+0,209,11.949316463090549,0.0029340547568370567,0.042557224006303684,998177.0,-24.428099105524254,0.21909231453811762,-0.1942188871960393,1001710.0,,,,,1002.4392012720018,998.9062012720018,
56,18,27,m,1,1,48.0,10,3,low,3 + 1 + 8 - 5 + 9,16,15,16,17,1014.460239299995,1016.4853337999956,1018.001147899995,1023.019598800005,1024.8736279000004,1024.8736329999956,1026.3901028999971,1027.4071186000074,w,16.0,1.8540290999953868,1,+1,210,-11.355286162932375,0.14922033591009587,0.03561605559653813,1013740.0,9.510413950692406,0.7584486058457238,0.023440279861715263,1017274.0,,,,,1018.0032012720018,1014.4692012720018,
57,18,27,m,1,1,49.0,11,1,low,3 + 1 + 9 + 1 + 1,15,15,17,14,1028.923950299999,1030.9507235000056,1032.4665867000003,1037.4856332000054,1038.3614294,1038.3614344000089,1039.877904599998,1040.8947533000028,q,15.0,0.875796199994511,1,+1,211,6.327868945590599,-0.7098036212855936,0.04523924190201467,1028205.0,7.196974349130583,-0.09537509653689336,0.07513260170830693,1031740.0,,,,,1032.4692012720018,1028.9342012720017,
58,18,27,m,1,1,50.0,12,4,high,8 + 3 - 4 + 5 + 9,21,23,22,21,1042.411540400004,1044.4364015000028,1045.9516323999997,1050.971238099999,1054.0653515000013,1054.0653568999987,1055.581749200006,1056.598949799998,e,21.0,3.094113400002243,1,+10,221,-9.551366784796535,-0.5490058556548507,0.07829075185628787,1041691.0,7.518084262843683,-0.22806868497130095,-0.07589847087911439,1045226.0,,,,,1045.955201272002,1042.4202012720018,
59,18,27,m,1,1,51.0,13,1,high,7 - 1 + 1 + 9 - 1,15,13,14,15,1058.115577500008,1060.141306599995,1061.6565925000032,1066.6750485000084,1068.8254840000009,1068.8254893999983,1070.342443200003,1071.3597074999998,e,15.0,2.1504354999924544,1,+10,231,20.405149823457318,-0.28032609906716477,0.13620900966236316,1057396.0,28.137766962954338,0.4557562109817459,-0.01877018960047061,1060929.0,,,,,1061.6582012720019,1058.1252012720017,
60,18,27,m,1,1,52.0,14,2,high,5 + 9 - 8 + 1 + 1,8,8,7,9,1072.876564899998,1074.904211800007,1076.419432199997,1081.437635000009,1082.3934172000008,1082.3934224999975,1083.9099720000086,1084.9272272999951,q,8.0,0.9557821999915176,1,+10,241,-15.64044330372909,-0.0418467453948419,0.10134049532870781,1072158.0,3.3033957085149392,0.13614303286140883,-0.00887336846297715,1075692.0,,,,,1076.4212012720018,1072.8872012720017,
61,18,27,m,1,1,53.0,15,3,high,6 + 7 + 8 + 1 - 9,13,15,14,13,1086.443906200002,1088.4720705000072,1089.9873564000009,1095.0059481000062,1095.8654252999986,1095.8654307999968,1097.382033300004,1098.3993792999972,e,13.0,0.8594771999923978,1,+10,251,32.54332452585987,-24.70038752644709,-20.892711077921952,1085727.0,1.0433295374280949,0.3857078955326889,-0.008056038504237861,1089260.0,,,,,1089.9892012720018,1086.4562012720019,
62,18,27,m,1,1,54.0,16,2,high,6 + 1 + 1 + 8 - 9,7,9,5,7,1099.9160059999997,1101.9445259000058,1103.4599182000093,1108.4780271000054,1109.6254208000028,1109.6254259999987,1111.1415568000084,1112.159211899998,e,7.0,1.1473936999973375,1,+10,261,13.172094133107404,0.7537604013036727,1.4262182281867237,1099199.0,-8.809644760984991,0.5724479045269426,0.054428411317185565,1102732.0,,,,,1103.4612012720017,1099.9282012720018,
63,18,27,m,1,1,55.0,17,4,high,7 + 6 - 9 + 8 - 3,9,8,9,7,1113.6760513000045,1115.704045999999,1117.219454200007,1122.2380816000075,1124.6573714999977,1124.657376800009,1126.174069200002,1127.1914881999985,w,9.0,2.4192898999899626,1,+10,271,-38.47796807948511,-0.2711621367973267,8.59747610050022,1112958.0,-27.414426599151916,0.5479808648090834,-0.10710548510986939,1116492.0,,,,,1117.2212012720017,1113.6872012720019,
64,18,27,m,1,1,56.0,18,4,low,6 + 9 + 7 - 3 - 5,14,15,14,13,1128.707651699995,1130.733481999996,1132.248646299995,1137.267342399995,1138.2972958000028,1138.297300899998,1139.813867799996,1140.830804199999,w,14.0,1.0299534000077983,1,+1,272,27.848564652994483,-0.12783160084510214,-0.028662063722664,1127988.0,-6.163200419542928,0.1185581500913333,-0.008381546370522797,1131521.0,,,,,1132.2502012720017,1128.7172012720018,
65,18,27,m,1,1,57.0,19,2,high,6 + 8 + 1 + 1 - 7,9,8,11,9,1142.3470250999962,1144.3706970000055,1145.886031800008,1150.9045649000036,1153.505409999998,1153.5054166000043,1155.0220120000013,1156.039280800003,w,11.0,2.6008450999943307,0,+0,272,-1.9431808098479628,0.10111980925830588,-2.6526817848849342,1141625.0,-30.879622643011047,0.1036085518609231,0.2066115627400591,1145159.0,,,,,1145.8882012720019,1142.3542012720018,
66,18,27,m,1,1,58.0,20,2,high,4 + 9 - 7 + 1 - 1,6,5,8,6,1157.5558917000017,1159.5804512000032,1161.0956632000016,1166.1144788999954,1167.1133078999992,1167.1133136999997,1168.6301749999984,1169.6476082000008,e,6.0,0.9988290000037524,1,+10,282,-17.822359944933936,-0.1435599656191533,-11.834669546014602,1156835.0,-12.631048508623156,0.14521670384476915,-0.0044923737883904025,1160368.0,,,,,1161.0972012720017,1157.5642012720018,
67,18,27,m,1,1,59.0,21,3,high,3 + 1 + 6 - 8 + 9,11,11,12,13,1171.1644438000076,1173.1916014000017,1174.7065797999967,1179.7248950000069,1180.5373263000074,1180.5373315000031,1182.0544328999968,1183.072474200002,q,11.0,0.8124313000007533,1,+10,292,30.271780212930274,0.2258841502216713,0.006028045466655252,1170446.0,0.6682129532829642,-0.19914417433500953,0.003230425107521695,1173979.0,,,,,1174.7082012720018,1171.1752012720017,
68,18,27,m,1,1,60.0,22,1,high,5 + 9 - 1 + 1 + 1,15,17,13,15,1184.5903622000042,1186.6126928000012,1188.1278315999953,1193.1459676999948,1194.2413024999987,1194.241307999997,1195.758488499996,1196.7758201999968,e,15.0,1.0953348000039114,1,+10,302,-21.015749175830063,0.4116230573584003,-0.02861234762853293,1183867.0,-32.82731310568081,-0.4803230539316803,0.13048714374137083,1187400.0,,,,,1188.1292012720019,1184.5962012720017,
69,18,27,m,1,1,61.0,23,4,high,9 + 7 - 5 + 8 + 6,25,24,27,25,1198.2926260999957,1200.3159304,1201.830819900002,1206.849350000004,1209.449271400008,1209.4492765000032,1210.9660067000077,1211.9833332999988,w,27.0,2.59992140000395,0,+0,302,-45.695560463355974,-0.11051820156545,-0.12386094893567434,1197570.0,-13.163335884801729,0.35603839835778883,0.006984315313197875,1201104.0,,,,,1201.8332012720018,1198.2992012720017,
70,18,27,m,1,1,62.0,24,1,low,3 + 1 + 8 + 1 + 1,14,13,16,14,1213.4995130000025,1215.5268224000029,1217.0428886000009,1222.0606847000015,1223.1452280000085,1223.1452333000052,1224.662253900009,1225.679594900008,e,14.0,1.0845433000067717,1,+1,303,-43.81804882008873,0.1833562062017129,-0.03007460495037151,1212781.0,23.92998758238294,0.23208976891013178,0.052021259547363696,1216315.0,,,,,1217.0442012720018,1213.5102012720017,
71,18,27,m,1,1,63.0,25,2,high,9 + 6 + 1 + 7 + 1,24,23,24,25,1227.1964013999968,1229.2235873000027,1230.7388414000015,1235.7568992000015,1236.753295100003,1236.7533003999995,1238.2701407999994,1239.287713800004,w,24.0,0.9963959000015166,1,+10,313,-53.0064608250046,-0.15310086717933968,0.19931857166796485,1226477.0,14.080748535601808,0.10246485109564762,0.105709006695343,1230011.0,,,,,1230.7402012720017,1227.2062012720019,
72,18,27,m,1,1,64.0,26,1,high,5 + 1 + 1 + 9 + 1,17,16,19,17,1240.8046146999986,1242.8314116999973,1244.3472509999992,1249.3649928999948,1250.4491307999997,1250.4491361999972,1251.966364100008,1252.9838324000011,e,17.0,1.084137900004862,1,+10,323,42.836839202031186,-0.5393180489072229,0.20232898658347298,1240085.0,-5.766012705158282,-0.21499821682575382,-0.02222457241225695,1243619.0,,,,,1244.3482012720017,1240.8142012720018,
73,18,27,m,1,1,65.0,27,1,high,9 + 7 + 1 + 1 + 1,19,20,18,19,1254.5002066000015,1256.5251332000043,1258.0404288999998,1263.0584356000036,1264.297208300006,1264.2972136000026,1265.8142151000063,1266.8315067000076,e,19.0,1.2387727000023006,1,+10,333,18.312939548131745,-0.12103086041317379,-0.2797220011339736,1253779.0,15.854123926074028,0.006458869318616056,0.024088332273849655,1257312.0,,,,,1258.0412012720017,1254.5082012720018,
74,18,27,m,1,1,66.0,28,4,high,5 + 7 - 4 - 6 + 9,11,11,13,12,1268.3484555000032,1270.3729773999949,1271.8884141000017,1276.907037500001,1277.7451555000007,1277.7451606999966,1279.2613529000082,1280.2796913000057,q,11.0,0.8381179999996675,1,+10,343,2.7858589209211395,0.2914914591640061,0.13667232850297784,1267626.0,48.50825851904411,0.5299214977386209,0.011494176133831857,1271161.0,,,,,1271.8902012720018,1268.3552012720018,
75,18,27,m,1,1,67.0,29,4,low,5 + 8 - 6 + 7 + 4,18,18,17,19,1281.7966047000082,1283.824263500006,1285.3394739000069,1290.3586205000029,1292.5611256999982,1292.5611307000072,1294.0776520000072,1295.0936038000073,q,18.0,2.202505199995357,1,+1,344,9.297930832791184,0.0007697160594268837,0.06313915531198777,1281078.0,0.43048104693259504,0.2434088361542428,-0.049756297864446575,1284612.0,,,,,1285.3412012720019,1281.8072012720017,
76,18,27,m,1,1,68.0,30,4,low,9 + 8 - 5 - 7 + 6,11,11,13,10,1296.609962400005,1298.632823100008,1300.1485055000085,1305.1668291999958,1306.2651549000002,1306.2651604999992,1307.7819137000042,1308.799197400003,q,11.0,1.0983257000043525,1,+1,345,-50.856976994560284,0.24140106541841888,-0.03123020865263526,1295886.0,-14.681696277728735,-0.34092322046335166,-0.04738077615461167,1299421.0,,,,,1300.1502012720018,1296.6152012720017,
77,18,27,m,1,1,69.0,31,1,high,8 + 1 + 4 + 1 + 1,15,15,16,14,1310.3163719000004,1312.3445899000071,1313.8599195999996,1318.8775218000085,1321.057059400002,1321.057064499997,1322.5738415000087,1323.590564099999,q,15.0,2.179537599993637,1,+10,355,45.433118138830956,0.0980295408349372,0.09512399670726057,1309598.0,13.26011991034068,0.03178021454494395,-0.029554827511569792,1313131.0,,,,,1313.8602012720019,1310.3272012720017,
78,18,27,m,1,1,70.0,32,4,high,2 + 9 - 4 + 8 + 7,22,23,21,22,1325.1071366999968,1327.130871900008,1328.6460226000054,1333.665869000004,1334.5450773000048,1334.545082800003,1336.0621114999958,1337.079517200007,e,22.0,0.8792083000007551,1,+10,365,3.421514949843518,-0.06093803843287837,-0.07693506305251407,1324384.0,-20.141470881065462,-0.07490099567131292,-0.00987050886071228,1327919.0,,,,,1328.6482012720019,1325.1132012720018,
79,18,27,m,1,1,71.0,33,1,high,3 + 1 + 9 + 1 - 1,13,13,12,14,1338.596266499997,1340.6220830999955,1342.1374043999967,1347.1573492000025,1348.2010784000013,1348.2010835999972,1349.7177263000049,1350.7350047000073,q,13.0,1.0437291999987792,1,+10,375,-10.550911870306505,-0.1414084813525882,-0.02646825625861826,1337875.0,3.972386118830922,0.6667609451416934,0.013082138672557031,1341410.0,,,,,1342.1392012720019,1338.6042012720018,
80,18,27,m,1,1,72.0,34,2,low,8 + 1 + 9 + 1 - 5,14,13,14,15,1352.2520662000024,1354.2795613000053,1355.7949571000065,1360.813871499995,1361.689126199999,1361.689131799998,1363.2054121999972,1364.2223393000022,w,14.0,0.8752547000040067,1,+1,376,2.7140675950046047,-0.18941574583496656,-0.0437318088861689,1351532.0,14.888110406899576,0.3039336504279282,-0.05056618439880456,1355066.0,,,,,1355.7952012720018,1352.2612012720017,
81,18,27,m,1,1,73.0,35,4,high,3 + 9 - 5 + 8 - 7,8,8,9,7,1365.739091299998,1367.7640902999992,1369.279275599998,1374.299127899998,1378.3531308999954,1378.3531362000067,1379.8697405999992,1380.8870091999995,w,9.0,4.054002999997465,0,+0,376,-19.45758561177579,0.03705919702132432,0.061511235469839054,1365017.0,17.38109649214833,0.046988474799523505,0.07238343728301633,1368552.0,,,,,1369.2812012720017,1365.7462012720018,
82,18,27,m,1,1,74.0,36,4,low,3 + 9 - 4 + 7 + 6,21,21,20,19,1382.403692200009,1384.4327206000016,1385.9480271000066,1390.9669329000026,1391.8330335000064,1391.833038900004,1393.3495646000083,1394.366422200008,q,21.0,0.8661006000038469,1,+1,377,9.36874350337123,-0.3206803127394502,0.21555814619445512,1381686.0,16.19736759984248,0.18842776157565355,-0.2035561286181542,1385220.0,,,,,1385.9492012720018,1382.4152012720017,
83,18,27,m,1,1,75.0,37,2,low,9 + 4 - 6 + 1 - 1,7,8,7,9,1395.8831348999956,1397.9091009999977,1399.4246267999988,1404.444074400002,1405.233058800004,1405.2330645000038,1406.7498407999956,1407.766832399997,w,7.0,0.7889844000019366,1,+1,378,-4.2484207764535995,-0.031114943392186234,0.10795796814151104,1395162.0,12.275045471714506,0.3406137906659019,0.043759117295225636,1398697.0,,,,,1399.4262012720017,1395.8912012720018,
84,18,27,m,1,2,76.0,0,4,low,4 + 7 - 8 + 9 - 3,9,8,9,11,1473.5411166999984,1475.5678686000028,1477.083620599995,1482.103687499999,1485.232887300008,1485.232892400003,1486.7496045000007,1487.767190300001,e,11.0,3.1291998000087915,0,+0,378,12.369882450349628,0.7900666926745017,0.740991289963465,1472821.0,18.443978914299777,-0.38908368538293514,-0.10805630470628946,1476356.0,,,,,1477.0852012720018,1473.5502012720017,
85,18,27,m,1,2,77.0,1,2,low,8 + 1 + 4 - 7 + 1,7,6,5,7,1489.2835882000072,1491.308766400005,1492.8241009000049,1497.8442136000083,1500.8329292999988,1500.8329344000083,1502.350321799997,1503.366842500007,e,7.0,2.98871569999028,1,+1,379,-18.998518534071366,0.053786994433586255,0.012615160209083154,1488561.0,19.054275308561934,0.37211009606146317,0.08558584050551277,1492097.0,,,,,1492.8262012720018,1489.2902012720017,
86,18,27,m,1,2,78.0,2,1,low,6 + 9 + 1 + 1 - 1,16,16,14,15,1504.8835323999956,1506.9092305000086,1508.4245069000026,1513.443266999995,1514.2808897000068,1514.2808947000012,1515.797342699996,1516.814312900009,q,16.0,0.8376227000117069,1,+1,380,-35.340703372872454,-0.1419362444397283,0.02144750807459972,1504162.0,12.229824164441679,0.21462102527198912,0.02944862237192547,1507696.0,,,,,1508.4252012720017,1504.8912012720018,
87,18,27,m,1,2,79.0,3,2,low,5 + 8 + 1 - 1 + 9,22,22,21,23,1518.3309042000035,1520.3593952000083,1521.8753061000025,1526.893710999997,1527.7688753999971,1527.7688808999956,1529.2854537999956,1530.3024689000013,q,22.0,0.875164400000358,1,+1,381,-10.511066261724954,-0.14558908818879757,0.019058385525078547,1517612.0,-24.294707072792157,0.3780895224810574,0.050088465032533724,1521146.0,,,,,1521.8752012720017,1518.3412012720019,
88,18,27,m,1,2,80.0,4,2,low,6 + 1 + 8 + 7 - 1,21,19,21,23,1531.818922499995,1533.842876900002,1535.3581208999967,1540.3774298000062,1541.2809129000088,1541.2809185000078,1542.7975417999987,1543.8144603999972,w,21.0,0.9034831000026315,1,+1,382,-13.349070986062461,-0.3695774047142426,0.08940063250753472,1531096.0,2.8625538224299873,0.23858609382811613,-0.01673637988129384,1534630.0,,,,,1535.3592012720019,1531.8252012720018,
89,18,27,m,1,2,81.0,5,4,high,8 + 4 + 7 - 5 - 6,8,8,6,9,1545.3313046999974,1547.3579116000035,1548.8731563000038,1553.891805100007,1558.8088945000054,1558.8089001000044,1560.3254795999965,1561.3426706000027,e,9.0,4.917089399998076,0,+0,382,4.75676324023746,-0.6427157921640494,0.14988808248825425,1544611.0,22.739072854098342,-0.012822527562624586,0.038702819141380296,1548144.0,,,,,1548.8732012720018,1545.3402012720019,
90,18,27,m,1,2,82.0,6,3,low,5 + 6 - 4 - 1 + 8,14,16,15,14,1562.8594534000003,1564.8830243999982,1566.397530000002,1571.4172437000088,1572.8088698000065,1572.8088757000078,1574.3263852999953,1575.3436633000092,q,16.0,1.3916260999976655,0,+0,382,27.828564821820002,0.1318396219165261,0.03915021604115587,1562136.0,23.95494579375106,0.09350792874852187,-0.03572765365726216,1565670.0,,,,,1566.3992012720018,1562.8652012720017,
91,18,27,m,1,2,83.0,7,2,high,2 + 1 + 9 - 4 + 1,9,8,9,11,1576.860659900005,1578.8876571,1580.402683799999,1585.4212480999995,1586.296809499996,1586.2968155999988,1587.813436299999,1588.830790699998,w,9.0,0.8755613999965135,1,+10,392,27.452569922963637,-0.12864768075068111,0.03694848593547917,1576140.0,21.032168036606546,0.13315979842144277,0.1246583897311202,1579673.0,,,,,1580.4022012720018,1576.8692012720019,
92,18,27,m,1,2,84.0,8,1,high,4 + 7 + 1 - 1 - 1,10,9,11,10,1590.347853600004,1592.3723704000004,1593.887533400004,1598.9075830000074,1599.7848755000014,1599.784880799998,1601.3016997999948,1602.3189272000018,e,10.0,0.8772924999939278,1,+10,402,-23.101159316552124,-0.12255821108101372,-0.10853195492772749,1589625.0,18.745763140166556,0.3254327247690747,0.002531639392948648,1593160.0,,,,,1593.8892012720019,1590.3542012720018,
93,18,27,m,1,2,85.0,9,3,high,4 + 8 - 9 + 1 + 7,11,11,13,9,1603.8356676999974,1605.8605010000028,1607.3748505999974,1612.3932705000043,1613.280816800005,1613.2808226000052,1614.7975305,1615.8148534000063,q,11.0,0.8875463000003947,1,+10,412,3.858203431112286,-0.6924052098206384,-0.2844563718865287,1603113.0,-27.463969875076984,0.4706249316901947,0.010803710208131978,1606646.0,,,,,1607.3752012720017,1603.8422012720018,
94,18,27,m,1,2,86.0,10,2,low,3 + 9 + 1 - 5 + 1,9,9,8,7,1617.3316147000005,1619.3588965999952,1620.8740800000087,1625.8924617000011,1628.2247119999956,1628.2247174000076,1629.7413765999954,1630.7583761999997,q,9.0,2.3322502999944845,1,+1,413,-20.888638132091227,-0.1773988198712897,0.03108986380306855,1616611.0,-8.554842116986983,-0.03909482649292473,0.10855387795966376,1620145.0,,,,,1620.8742012720018,1617.3402012720019,
95,18,27,m,1,2,87.0,11,4,high,4 + 9 - 7 + 8 + 5,19,21,19,20,1632.2752278999978,1634.3035747999966,1635.8188882999966,1640.8376698000066,1641.8566684999969,1641.8566737000074,1643.372984200003,1644.3904380000022,w,19.0,1.018998699990334,1,+10,423,13.38184743007832,0.1327978429358727,0.05231585563677843,1631556.0,-14.73077664175344,0.040935397003093676,0.03480820127448858,1635090.0,,,,,1635.8192012720017,1632.2852012720018,
96,18,27,m,1,2,88.0,12,3,low,2 + 9 + 1 - 5 + 7,14,14,12,15,1645.9067860000068,1647.9319695000013,1649.446958200002,1654.4654885000054,1655.6407859000028,1655.6407916000026,1657.157460900009,1658.1743992999982,q,14.0,1.175297399997362,1,+1,424,14.557219866221455,-0.03730356249496314,0.07398534515137833,1645184.0,20.042918168567585,0.3613756710048426,-0.03614607969690686,1648717.0,,,,,1649.4462012720019,1645.9132012720017,
97,18,27,m,1,2,89.0,13,1,high,8 + 1 + 5 + 1 + 1,16,17,16,15,1659.6912863000034,1661.7162057999958,1663.2315397000057,1668.2494454999978,1670.0566350000008,1670.056640099996,1671.573410500001,1672.590809900008,q,17.0,1.8071895000030052,0,+0,424,49.397520939131965,0.04716200081147015,-0.001199721338989157,1658968.0,-17.409403498666187,0.2101625097764317,0.09705147409163639,1662502.0,,,,,1663.2312012720017,1659.6972012720018,
98,18,27,m,1,2,90.0,14,4,high,3 + 8 - 7 + 9 - 5,8,8,9,7,1674.1071758000037,1676.134586100001,1677.6491303000075,1682.6680897000042,1686.2407332000002,1686.2407390000008,1687.757868700006,1688.775030799996,q,8.0,3.5726434999960475,1,+10,434,9.44411927234858,0.1482963109155775,0.10060657836648046,1673387.0,-42.952865541731754,0.2910434653255294,-0.015076285011043078,1676920.0,,,,,1677.6492012720018,1674.1162012720017,
99,18,27,m,1,2,91.0,15,2,low,9 + 5 - 6 + 1 - 1,8,8,7,9,1690.2915470000007,1692.317736099998,1693.8329896000068,1698.8523949000082,1699.7606572000077,1699.760662200002,1701.277102299995,1702.2943941999984,q,8.0,0.9082622999994784,1,+1,435,2.181687193096251,-0.960391432270224,-1.6286964683265959,1689570.0,1.5922889330715364,0.3190870340548595,0.03699055862558187,1693104.0,,,,,1693.8332012720018,1690.2992012720017,
100,18,27,m,1,2,92.0,16,3,low,3 + 8 + 1 + 5 - 9,8,9,8,7,1703.8113179000063,1705.838177900005,1707.353983100009,1712.3721535000077,1713.424648100001,1713.4246534999984,1714.9408641000043,1715.9577795000075,w,8.0,1.0524945999932245,1,+1,436,11.740092468516043,-0.11675732434273778,-0.07165460966750548,1703090.0,-26.338541676985635,0.36460414729628887,0.04996055734341698,1706624.0,,,,,1707.3532012720018,1703.8192012720017,
101,18,27,m,1,2,93.0,17,4,low,4 + 7 + 8 - 3 + 9,25,25,26,24,1717.4744866999972,1719.5006636000037,1721.0159105000057,1726.0365786000038,1729.4570383999962,1729.457044499999,1730.9739946000043,1731.9913197999997,q,25.0,3.4204597999923863,1,+1,437,-6.264288941940567,0.3347917978166923,-0.05825893784303182,1716753.0,-6.585731627461332,0.045834917158181554,0.014320458515782564,1720288.0,,,,,1721.0172012720018,1717.4822012720017,
102,18,27,m,1,2,94.0,18,3,low,5 + 7 + 1 - 4 + 6,15,13,15,17,1733.5079229999974,1735.5329201999994,1737.0477287999963,1742.0661362999963,1743.2246980000054,1743.2247036000044,1744.7414019999997,1745.7583901000037,w,15.0,1.1585617000091588,1,+1,438,-2.005381292745465,-15.749413055273479,-19.501725790571275,1732785.0,-2.25945691211969,-0.08998418055344226,-0.2194803684327178,1736318.0,,,,,1737.0472012720018,1733.5142012720019,
103,18,27,m,1,2,95.0,19,4,high,3 + 8 - 4 + 9 + 6,22,21,23,22,1747.2752130000008,1749.2988672000065,1750.8141281999997,1755.832447199995,1756.7766462,1756.7766518999997,1758.293312099995,1759.3109220000042,e,22.0,0.9441990000050282,1,+10,448,10.44566566780774,-0.6898639455708242,0.15525837413391286,1746551.0,-5.388362874027706,-0.4440068096695966,0.042760750551322335,1750084.0,,,,,1750.8132012720018,1747.2802012720017,
104,18,27,m,1,2,96.0,20,2,high,4 + 8 + 1 + 1 - 5,9,11,8,9,1760.8277275,1762.8559897999949,1764.3712581,1769.3902053000056,1770.264671099998,1770.2646768999984,1771.7814717,1772.7988445000085,e,9.0,0.874465799992322,1,+10,458,2.5708227708790705,-0.0706550987598269,0.09936165550318199,1760108.0,-40.59594935476142,-0.018698832640738683,-0.10278679085168463,1763642.0,,,,,1764.3712012720018,1760.8372012720017,
105,18,27,m,1,2,97.0,21,4,low,8 + 4 + 7 - 5 - 6,8,9,7,8,1774.315212600006,1776.339735600006,1777.8547900999984,1782.873649000001,1783.9926497999986,1783.992655199996,1785.5090973000042,1786.526010200003,e,8.0,1.1190007999975933,1,+1,459,3.511905423851082,0.12422830288376963,-0.05026559108914852,1773591.0,-11.803281396902515,0.513775265405493,0.09377669455846616,1777125.0,,,,,1777.8542012720018,1774.3202012720017,
106,18,27,m,1,2,98.0,22,2,low,4 + 9 - 7 + 1 - 1,6,6,8,5,1788.042698300007,1790.0704473000078,1791.5862414000003,1796.6049908999994,1797.4725801000022,1797.4725851999974,1798.9891273999965,1800.006062200002,q,6.0,0.8675892000028398,1,+1,460,27.940353581092797,0.0945279780174384,-0.007485724111942371,1787322.0,46.988687386082404,0.5481269754754825,0.051981404174624934,1790857.0,,,,,1791.5862012720017,1788.0512012720017,
107,18,27,m,1,2,99.0,23,4,high,8 + 4 + 7 - 5 - 6,8,8,6,9,1801.5231127000009,1803.5520132999957,1805.0673462999985,1810.0862227000036,1810.992586000008,1810.9925916000063,1812.5088820999956,1813.526063800004,q,8.0,0.9063633000041592,1,+10,470,-5.466852967821531,-0.1671961476917443,0.04362462668851563,1800803.0,12.461129316517225,0.6616464794834283,0.09036268887918841,1804338.0,,,,,1805.0672012720017,1801.5322012720019,
108,18,27,m,1,2,100.0,24,3,low,2 - 4 + 9 + 7 + 1,15,16,13,15,1815.043333099995,1817.0671197000047,1818.5824021000008,1823.6008766000011,1825.2645223,1825.264527499996,1826.781111500008,1827.798246300008,w,13.0,1.663645699998597,0,+0,470,-15.70958965244145,0.22229080012964997,0.08344869969033786,1814319.0,11.451205419976162,0.47255818640651404,0.10844181991031632,1817853.0,,,,,1818.5822012720018,1815.0482012720017,
109,18,27,m,1,2,101.0,25,3,high,4 + 5 - 3 + 7 - 1,12,13,12,11,1829.315073100006,1831.3373704999976,1832.852648,1837.8714813999975,1838.848538499995,1838.8485438000064,1840.365122400006,1841.3824325000023,w,12.0,0.9770570999971824,1,+10,480,-63.963519666222645,0.03348453281339969,0.06309648041220783,1828589.0,8.099878380453124,0.19702337416149085,0.0763248499806366,1832123.0,,,,,1832.8522012720018,1829.3182012720017,
110,18,27,m,1,2,102.0,26,4,high,3 + 8 - 5 + 9 - 7,8,8,6,7,1842.8992321999976,1844.924995399997,1846.440167199995,1851.458635700008,1852.3124583000024,1852.3124637,1853.828267200006,1854.845673799995,q,8.0,0.8538225999946008,1,+10,490,-3.2159046800610787,-0.12571679936875046,0.041799925588579034,1842176.0,1.051965270204649,-0.1424621923250622,0.04147660112644247,1845710.0,,,,,1846.4392012720018,1842.9052012720017,
111,18,27,m,1,2,103.0,27,3,low,8 + 3 + 1 - 7 + 9,14,12,15,14,1856.362199199997,1858.387303800002,1859.9025511000077,1864.922787600008,1868.656534199996,1868.656539100004,1870.1728546000088,1871.1901545,w,15.0,3.733746599988081,0,+0,490,32.389972284638375,-0.5539328940633399,0.06313172937817924,1855639.0,10.671845083550743,0.11513166102974948,0.00463158983905454,1859174.0,,,,,1859.9032012720018,1856.3682012720017,
112,18,27,m,1,2,104.0,28,4,high,7 + 6 + 8 - 4 + 5,22,21,23,22,1872.7069409999967,1874.734090900005,1876.2490282000072,1881.2689855000065,1884.968418200005,1884.9684232,1886.4849521,1887.5023572000064,w,23.0,3.6994326999993055,0,+0,490,-47.06207541659652,0.5547993965273506,-0.013166953673989124,1871986.0,-4.651353129685376,0.15726934492535705,-0.06583060500162352,1875520.0,,,,,1876.2492012720018,1872.7152012720019,
113,18,27,m,1,2,105.0,29,3,low,7 - 5 + 9 + 1 - 4,8,9,8,7,1889.0194452,1891.0447614000004,1892.5597731000016,1897.579384900004,1899.720461200006,1899.7204666000036,1901.237268500001,1902.2542197,w,8.0,2.141076300002169,1,+1,491,-11.806548237720548,-0.3013992806049606,1.2970754390835815,1888296.0,6.508080229376063,0.12668929701399145,-0.12663760099071553,1891831.0,,,,,1892.5602012720017,1889.0252012720018,
114,18,27,m,1,2,106.0,30,3,low,6 - 1 + 7 - 8 + 9,13,11,12,13,1903.7709399000012,1905.7983716000017,1907.3142429,1912.3332326999955,1916.360454099995,1916.360459600008,1917.8770606000037,1918.8948720000044,q,11.0,4.027221399999689,0,+0,491,12.061096476877005,-0.3241306308942389,-0.0268105101407754,1903050.0,0.8829960337710503,0.06772373323120284,0.07205360980705922,1906584.0,,,,,1907.3132012720018,1903.7792012720017,
115,18,27,m,1,2,107.0,31,3,high,8 + 4 + 1 - 7 + 9,15,13,15,16,1920.4116038000063,1922.4379344000045,1923.9531367000016,1928.973074399997,1932.448389600002,1932.4483954000025,1933.9652061000088,1934.983009500007,w,15.0,3.475315200004843,1,+10,501,5.099517489678451,-0.023256476024691608,0.046047227441416094,1919690.0,8.76628583538116,-0.41472375431080843,0.15658124785383065,1923224.0,,,,,1923.9532012720017,1920.4192012720018,
116,18,27,m,1,2,108.0,32,1,low,6 + 1 + 1 + 7 - 1,14,14,13,12,1936.5004800000024,1938.528206000003,1940.043243399996,1945.063461099999,1946.0404598000025,1946.0404652,1947.5570677000069,1948.5741661000063,q,14.0,0.9769987000036052,1,+1,502,-30.3510681186507,0.1746375379131866,0.04540030925024241,1935779.0,19.202780352682908,0.4967242708795627,0.08970510168366541,1939314.0,,,,,1940.0432012720019,1936.5082012720018,
117,18,27,m,1,2,109.0,33,3,low,3 - 7 + 5 + 1 + 9,11,13,12,11,1950.0907009000075,1952.1182713000017,1953.6333575000024,1958.652518899995,1960.016372500002,1960.0163778999995,1961.5327114999964,1962.5497481000057,e,11.0,1.3638536000071326,1,+1,503,30.229466272957957,-1.6808229657146665,-4.101957680813537,1949369.0,4.981459232102649,-0.5375899228097372,0.03954556810260601,1952903.0,,,,,1953.6322012720018,1950.0982012720017,
118,18,27,m,1,2,110.0,34,3,high,5 + 1 + 7 - 8 + 6,11,9,13,11,1964.0664951000072,1966.090338599999,1967.6055392999988,1972.6242599999969,1974.392369699999,1974.392374700008,1975.9088694000093,1976.9263096000068,e,11.0,1.768109700002242,1,+10,513,5.839366537561741,-0.07245266287930452,-0.017634112497617815,1963341.0,-1.517876353863267,0.5886644156463645,-0.004640390839391495,1966875.0,,,,,1967.6042012720018,1964.0702012720017,
119,18,27,m,1,2,111.0,35,4,low,4 + 7 + 9 - 5 + 7,22,23,24,22,1978.4430001,1980.4676387000072,1981.9829495000013,1987.0018139000024,1988.808405200005,1988.808410800004,1990.324665699998,1991.341931200004,e,22.0,1.806591300002765,1,+1,514,14.646453149225986,0.3548595441546665,-0.019406204049607467,1977719.0,14.176725214143934,0.216500495866228,-0.025068582215670654,1981253.0,,,,,1981.9822012720017,1978.4482012720018,
120,18,27,m,1,2,112.0,36,4,high,8 + 5 - 4 + 7 + 9,25,25,26,24,1992.8587744999968,1994.8856820000076,1996.4006820000068,2001.4194057999996,2005.632389300008,2005.632398300004,2007.1490333999973,2008.1663350000017,e,24.0,4.212983500008704,0,+0,514,5.521551578830236,14.82140152167049,14.677057902785808,1992137.0,2.493535761307947,0.18392543594863797,-0.008287676719747283,1995670.0,,,,,1996.3992012720018,1992.8662012720017,
121,18,27,m,1,2,113.0,37,1,high,2 + 9 + 1 + 1 + 1,14,14,12,13,2009.6832952999976,2011.7089949000076,2013.2240662999973,2018.2421728000045,2019.3122688000003,2019.3122738999955,2020.8284774000056,2021.845601100009,q,14.0,1.0700959999958286,1,+10,524,-10.72679053928915,0.09870345850965112,0.06144467878717408,2008960.0,-3.9970525127384633,-0.23750148106068725,0.13700180975456866,2012493.0,,,,,2013.2222012720017,2009.6892012720018,
122,18,27,m,1,3,114.0,0,3,low,4 + 1 + 8 + 9 - 5,17,17,18,19,2090.260764400009,2092.287330200008,2093.802423000001,2098.8218928999995,2099.904259600007,2099.904265100005,2101.420948500003,2102.4378390000056,q,17.0,1.0823667000076966,1,+1,525,-4.728565926747038,0.18712282202655528,0.09574081306012472,2089538.0,50.40140815590343,0.37272607370181277,0.1022407005575161,2093073.0,,,,,2093.8022012720016,2090.267201272002,
123,18,27,m,1,3,115.0,1,1,high,8 + 1 + 1 + 1 - 4,7,5,7,8,2103.954813899996,2105.977399900002,2107.4925954000064,2112.510566900004,2113.608294000005,2113.6082998000056,2115.1248643,2116.1422863000043,w,7.0,1.097727100001066,1,+10,535,8.481250511281347,0.1618569205880669,-0.07042792168691547,2103228.0,19.454020338624417,0.2090089340779966,0.14524464598258935,2106761.0,,,,,2107.4902012720017,2103.957201272002,
124,18,27,m,1,3,116.0,2,2,low,5 - 1 + 1 + 8 + 9,22,21,22,23,2117.659139700001,2119.684099899998,2121.199366800007,2126.2162719000044,2127.944219800004,2127.9442248999985,2129.4605588999984,2130.477406000005,w,22.0,1.7279478999989806,1,+1,536,-2.273817336387811,0.08357105297249046,0.037770474217194705,2116935.0,5.995942510475643,0.34132405618951367,0.033184962977869326,2120468.0,,,,,2121.1972012720016,2117.6642012720017,
125,18,27,m,1,3,117.0,3,2,high,6 + 1 + 1 + 7 - 9,6,4,6,8,2131.994191500009,2134.0214964000043,2135.536527000004,2140.555374000003,2141.5601185999985,2141.5601236000075,2143.076745600003,2144.094039300005,w,6.0,1.0047445999953195,1,+10,546,15.466980450687899,0.23074597413310682,-0.0033060636167019375,2131272.0,2.5471821398785686,-0.258544010034929,0.07171803274532662,2134806.0,,,,,2135.535201272002,2132.0012012720017,
126,18,27,m,1,3,118.0,4,2,low,7 + 8 + 1 + 9 + 1,26,24,25,26,2145.610868100004,2147.638812899997,2149.1540628000075,2154.172505099996,2155.8641348999954,2155.864140699996,2157.3810958999966,2158.3981370999973,e,26.0,1.691629799999646,1,+1,547,6.93411467847004,-0.2030879038744824,-0.6452591348796965,2144889.0,7.431566718662904,0.42893477779094313,0.05976786439982851,2148423.0,,,,,2149.1522012720015,2145.618201272002,
127,18,27,m,1,3,119.0,5,2,low,4 + 8 + 1 + 1 - 6,8,8,7,9,2159.9151674000022,2161.938353999998,2163.4534013000084,2168.471795999998,2169.456203900001,2169.4562095,2170.972735500007,2171.989771000008,q,8.0,0.9844079000031344,1,+1,548,1.3716283313679822,-0.34290765152875124,0.036433367964907815,2159189.0,13.708628994254095,0.06963954086945323,0.1355343330622658,2162722.0,,,,,2163.451201272002,2159.9182012720016,
128,18,27,m,1,3,120.0,6,1,high,8 + 1 + 1 - 1 - 4,5,5,3,6,2173.506502999997,2175.5301954000024,2177.045505700007,2182.063950900003,2183.216149700005,2183.216154900001,2184.7329321,2185.7503963000054,e,6.0,1.1521988000022247,0,+0,548,38.05990964840183,-0.36072349366995926,0.03306451111774944,2172780.0,7.991777357557597,0.10806751550226146,0.07368695958236193,2176314.0,,,,,2177.0432012720016,2173.509201272002,
129,18,27,m,1,3,121.0,7,2,high,6 + 1 + 7 - 8 - 1,5,4,5,7,2187.266412900004,2189.293224599998,2190.808619999996,2195.827282900005,2196.6800781000056,2196.680083600004,2198.196194300006,2199.2137518999957,w,5.0,0.8527952000004007,1,+10,558,1.2891448567990054,0.06007265259260963,-0.9665254836397739,2186543.0,-3.7255911701333915,0.17660422909869578,0.07743210925939192,2190077.0,,,,,2190.806201272002,2187.272201272002,
130,18,27,m,1,3,122.0,8,4,low,4 + 8 + 9 - 3 + 7,25,24,25,26,2200.7305918000056,2202.754780100004,2204.269981400008,2209.288442300007,2211.6801962000027,2211.6802019000024,2213.197113400005,2214.2144551999954,w,25.0,2.39175389999582,1,+1,559,13.003054953581254,-0.48022994466591173,-0.0009430390075735318,2200005.0,-10.92326478207554,-0.49927891357610177,0.18449226279861342,2203539.0,,,,,2204.268201272002,2200.734201272002,
131,18,27,m,1,3,123.0,9,1,low,3 + 1 + 8 - 1 + 1,12,12,10,13,2215.7311743000027,2217.754906400005,2219.270229800008,2224.288098899997,2225.120215000002,2225.1202201999986,2226.6367605999985,2227.6536887999973,q,12.0,0.8321161000058055,1,+1,560,-12.869695830057728,0.2740455565261555,-0.7159404267417391,2215005.0,-7.016000903817499,0.27918890326345247,0.07707137696706812,2218539.0,,,,,2219.268201272002,2215.734201272002,
132,18,27,m,1,3,124.0,10,1,high,6 + 9 + 1 + 1 - 1,16,14,16,15,2229.1706375000067,2231.197736400005,2232.713078600005,2237.7312138999987,2238.7840824000014,2238.784087399996,2240.300626299999,2241.3178901000065,w,16.0,1.05286850000266,1,+10,570,35.05975385234388,-0.34769272728304346,-0.016469854734441958,2228448.0,9.60548295649153,-0.09930284759669217,0.026568032508742956,2231981.0,,,,,2232.710201272002,2229.1772012720016,
133,18,27,m,1,3,125.0,11,4,high,6 + 7 + 9 - 3 + 5,24,22,24,23,2242.8346420000016,2244.8597750000044,2246.375159100004,2251.395339499999,2253.824057200007,2253.8240624000027,2255.3405596000084,2256.357855399998,w,24.0,2.4287177000078373,1,+10,580,3.0758606133976816,0.25230887982069117,0.037358988673343196,2242109.0,-3.939899833472948,0.16888290430553354,0.09845836862076562,2245645.0,,,,,2246.3742012720018,2242.8382012720017,
134,18,27,m,1,3,126.0,12,4,high,8 + 7 - 4 + 5 + 9,25,26,24,25,2257.874731300006,2259.8964359999954,2261.4116295999997,2266.4300618999987,2270.256149199995,2270.2561545000062,2271.773088500005,2272.790509700004,e,25.0,3.826087299996289,1,+10,590,-4.999949255114929,0.07373806203550703,-0.10521362092753161,2257146.0,-31.596214361881927,0.3136358356009463,0.07625759151345424,2260680.0,,,,,2261.4092012720016,2257.875201272002,
135,18,27,m,1,3,127.0,13,2,low,6 + 1 + 1 + 7 - 9,6,4,6,8,2274.307238399997,2276.3358057000005,2277.850890600006,2282.8695982000063,2284.976068300006,2284.9760744000087,2286.4928296,2287.509969200008,w,6.0,2.1064700999995694,1,+1,591,-11.163949919364887,0.29212688902300155,-0.09578109872188878,2273585.0,-25.76103663202958,0.2547135033663266,0.06056097970182739,2277119.0,,,,,2277.848201272002,2274.314201272002,
136,18,27,m,1,3,128.0,14,2,low,4 + 7 + 1 + 1 - 8,5,5,7,4,2289.0270530999987,2291.0506635000056,2292.5658218000026,2297.5840191000025,2298.456265400004,2298.4562742999988,2299.9725172000035,2300.9894458000053,q,5.0,0.8722463000012795,1,+1,592,17.609540815839974,0.04873695686141222,0.07518272343076204,2288301.0,40.11864938130404,-0.1311966789127874,0.010694028401724953,2291834.0,,,,,2292.5632012720016,2289.0302012720017,
137,18,27,m,1,3,129.0,15,1,high,3 + 1 + 1 + 9 - 1,13,13,12,14,2302.506248999998,2304.530801700006,2306.046235700007,2311.064478600005,2311.9280345000006,2311.9280396999966,2313.4446169000003,2314.462748300008,q,13.0,0.8635558999958448,1,+10,602,20.139819027185744,-0.07476883960178071,1.1635676620928643,2301781.0,6.1742860946844305,0.22697080158479999,-0.24413900799283628,2305314.0,,,,,2306.0432012720016,2302.5102012720017,
138,18,27,m,1,3,130.0,16,2,low,3 + 1 + 8 - 5 - 1,6,6,5,7,2315.9798600000067,2318.008036900006,2319.523350500007,2324.541874900009,2325.4000638,2325.400068999996,2326.9166504000023,2327.9329606999963,q,6.0,0.8581888999906369,1,+1,603,6.94490946344215,0.03451633871892712,-0.09953871780765855,2315258.0,15.613486385662378,0.140030084451074,0.12196650163423195,2318792.0,,,,,2319.5212012720017,2315.9872012720016,
139,18,27,m,1,3,131.0,17,2,high,7 + 5 + 1 - 1 - 8,4,3,4,2,2329.4498639000085,2331.4750707000057,2332.990283100007,2338.010024300005,2339.047970200001,2339.047976500005,2340.564383999997,2341.582171700007,w,4.0,1.0379458999959752,1,+10,613,27.2870980405609,0.049997474093673944,-0.0358413107145108,2328725.0,0.4210113692230646,-0.2708329667325051,0.034468261880615136,2332260.0,,,,,2332.989201272002,2329.4542012720017,
140,18,27,m,1,3,132.0,18,2,low,2 + 9 + 1 + 1 - 5,8,7,6,8,2343.0990096000023,2345.1268091000093,2346.6422467000084,2351.6605933999963,2352.5601349000062,2352.560140300004,2354.076757600007,2355.0934628999967,e,8.0,0.8995415000099456,1,+1,614,4.321702802793283,0.1890560035408857,-0.02821674202267177,2342376.0,49.64585870742833,0.26558985357899934,-0.007032914510300303,2345910.0,,,,,2346.6392012720016,2343.105201272002,
141,18,27,m,1,3,133.0,19,4,low,6 + 5 - 7 + 8 - 9,3,3,5,4,2356.6104453000007,2358.636729300008,2360.152020199996,2365.172287299996,2368.447903799999,2368.447909099996,2369.964730499996,2370.9817782000027,q,3.0,3.2756165000027977,1,+1,615,-17.31272404446313,-0.6998344916980779,0.051627785564806405,2355887.0,-12.808388936396149,0.24174890548111216,-0.005629417399640291,2359422.0,,,,,2360.151201272002,2356.616201272002,
142,18,27,m,1,3,134.0,20,1,low,5 + 6 + 1 + 1 + 1,14,13,14,16,2372.4988246,2374.5268244000035,2376.042021500005,2381.059820800001,2382.055953899995,2382.0559595000086,2383.5725479999965,2384.589112600006,w,14.0,0.99613309999404,1,+1,616,-5.719598968931194,-0.6422973920707595,0.15412729048397233,2371776.0,6.2703710480108175,-0.009354647474394628,0.10467234702582084,2375309.0,,,,,2376.038201272002,2372.5052012720016,
143,18,27,m,1,3,135.0,21,2,high,8 + 1 + 9 + 1 - 4,15,14,15,16,2386.105811800008,2388.1315598000074,2389.6468284,2394.6651311000023,2398.8879126999964,2398.8879181000084,2400.404580500006,2401.421916300009,w,15.0,4.22278159999405,1,+10,626,-4.060718939069043,0.07626287060634862,0.07517402573699794,2385381.0,4.991017638029263,-0.3569695464495144,-0.026327242970091147,2388915.0,,,,,2389.6442012720017,2386.1102012720016,
144,18,27,m,1,3,136.0,22,3,high,2 + 1 + 9 - 7 + 6,11,12,13,11,2402.9391166999994,2404.963805899999,2406.4789953,2411.4975340999954,2412.399874499999,2412.399879699995,2413.9165414000017,2414.9341854000086,e,11.0,0.9023404000035952,1,+10,636,14.413242358767153,-0.07326087612800514,0.06339915419118847,2402213.0,6.391577495345409,0.7695932896051185,-0.018547470799215926,2405747.0,,,,,2406.4762012720016,2402.942201272002,
145,18,27,m,1,3,137.0,23,2,high,9 + 1 + 6 + 7 + 1,24,24,25,23,2416.4509808000003,2418.477541,2419.9929686999967,2425.0110510000086,2425.8718551000056,2425.871860500003,2427.3883709000074,2428.4062431000057,q,24.0,0.8608040999970399,1,+10,646,-13.627061513871592,-0.11143415105740395,0.004143180613348285,2415727.0,8.306706342790033,-0.22531735959533394,0.0422469461450079,2419261.0,,,,,2419.9902012720017,2416.4562012720016,
146,18,27,m,1,3,138.0,24,3,high,9 + 3 - 4 + 6 + 7,21,21,23,22,2429.922940100005,2431.9504083000065,2433.4657364000013,2438.485619400002,2443.199917699996,2443.1999235999974,2444.7166134,2445.7336988000025,w,23.0,4.71429829999397,0,+0,646,17.533110323811854,0.11973958772890692,0.010093069757953321,2429199.0,2.275195449360039,1.2226584740863098,0.008996106146285987,2432735.0,,,,,2433.464201272002,2429.928201272002,
147,18,27,m,1,3,139.0,25,3,low,4 + 8 - 3 + 5 - 1,13,13,12,14,2447.2504461000062,2449.2744562000007,2450.7887850999978,2455.807075100005,2456.871889300004,2456.8718945,2458.3901663,2459.4076262000017,q,13.0,1.0648141999990912,1,+1,647,-3.104709913752812,0.2786126499624424,0.014027476949035389,2446524.0,-0.8365624476003575,0.17639667733287467,-0.00921742736533604,2450056.0,,,,,2450.785201272002,2447.2532012720017,
148,18,27,m,1,3,140.0,26,1,low,7 - 1 + 8 + 1 - 1,14,14,13,12,2460.9242871000024,2462.948689800003,2464.463841500008,2469.482285000005,2470.5038473000022,2470.503852599999,2472.020368500001,2473.037393599996,q,14.0,1.0215622999967309,1,+1,648,-28.88219963280679,-0.24931254586036733,0.15408263318183835,2460198.0,1.810080408728414,0.23094009447411468,0.1013152931721002,2463732.0,,,,,2464.4612012720017,2460.9272012720016,
149,18,27,m,1,3,141.0,27,3,high,4 + 1 + 8 + 9 - 5,17,18,19,17,2474.5541317000025,2476.582366100003,2478.097555100001,2483.115829800008,2484.3117893000017,2484.3117948,2485.8281567000085,2486.8453359999985,e,17.0,1.195959499993478,1,+10,658,1.3668010427605815,0.02394080328923076,0.14031611339651606,2473831.0,9.329847403358855,-0.22650063820576394,0.10982283039915997,2477365.0,,,,,2478.0942012720016,2474.560201272002,
150,18,27,m,1,3,142.0,28,4,low,6 + 9 + 7 - 3 - 5,14,13,14,12,2488.3624616000016,2490.390674399998,2491.906026299999,2496.9248565000016,2497.935768800002,2497.935773799996,2499.4521983000013,2500.4690127000067,w,14.0,1.0109123000002,1,+1,659,-39.8727744457305,-0.27199537144804964,0.08653353650954876,2487640.0,4.772843840828736,-0.6106966378483221,0.039576315814825236,2491174.0,,,,,2491.9032012720018,2488.3692012720016,
151,18,27,m,1,3,143.0,29,2,high,7 + 5 + 1 + 9 + 1,23,22,21,23,2501.986279799996,2504.0102493000013,2505.525500799995,2510.543706500001,2514.959876000008,2514.959882700001,2516.476547500002,2517.494051800008,e,23.0,4.416169500007527,1,+10,669,20.368950980671215,0.18363634449465138,-0.03516831718277036,2501259.0,11.51487112582468,0.1460059611751401,-0.08033199417911119,2504793.0,,,,,2505.522201272002,2501.988201272002,
152,18,27,m,1,3,144.0,30,1,low,9 + 1 + 1 + 7 - 1,17,16,17,19,2519.010805099999,2521.0393264000013,2522.5541079999966,2527.572625700006,2528.5597620000044,2528.559767500002,2530.0764832999994,2531.093310700002,w,17.0,0.987136299998383,1,+1,670,10.559526469803547,-0.8947197573798764,0.1432824145895062,2518288.0,59.25918985552075,-0.7058790199844251,-2.8407715697848355,2521822.0,,,,,2522.551201272002,2519.017201272002,
153,18,27,m,1,3,145.0,31,1,low,4 + 1 + 1 + 7 - 1,12,14,13,12,2532.6100684999983,2534.634245399997,2536.1494045,2541.167739800003,2542.111734200007,2542.1117401000083,2543.628284899998,2544.6452151999983,e,12.0,0.9439944000041578,1,+1,671,-6.2476521390616515,-0.01371178210371271,0.1081049292868328,2531883.0,8.86718118542996,0.1826469894708933,0.07282090947671449,2535417.0,,,,,2536.1462012720017,2532.6122012720016,
154,18,27,m,1,3,146.0,32,2,low,4 + 9 + 1 - 7 - 1,6,8,6,5,2546.1626819000085,2548.188954600002,2549.704219799998,2554.7227521000023,2555.4956921999983,2555.495697400009,2557.012216100004,2558.0295481000067,w,6.0,0.772940099996049,1,+1,672,40.86905333820767,-0.32244595579155444,-0.02275448684701864,2545438.0,38.12056734513896,-0.028741110040153117,-0.17299114372226265,2548972.0,,,,,2549.701201272002,2546.167201272002,
155,18,27,m,1,3,147.0,33,1,high,2 + 1 + 9 + 1 - 1,12,13,12,11,2559.546730000002,2561.5745409000083,2563.089529100005,2568.107678500004,2568.9117271,2568.9117318000062,2570.428352200004,2571.4458435999986,w,12.0,0.8040485999954399,1,+10,682,15.550585793003162,0.3138620575070523,0.0048442369629513315,2558824.0,-4.364916271097638,0.21664505585867877,0.14408148063377513,2562357.0,,,,,2563.0862012720017,2559.553201272002,
156,18,27,m,1,3,148.0,34,2,low,6 + 1 + 7 + 5 - 1,18,17,18,16,2572.962636199998,2574.9878567999986,2576.503122000009,2581.522193099998,2582.359768099996,2582.359773000004,2583.876029100007,2584.892896999998,w,18.0,0.8375749999977415,1,+1,683,8.509148805254316,-0.0987792795791802,-0.017051114942211676,2572237.0,-10.04394255505395,0.17632888752661202,0.0805493256279981,2575771.0,,,,,2576.500201272002,2572.966201272002,
157,18,27,m,1,3,149.0,35,2,high,5 + 7 - 8 + 1 + 1,6,6,7,8,2586.4099377000093,2588.4361953000043,2589.951376500001,2594.9701183,2595.8316374999995,2595.8316429999977,2597.347953000004,2598.3647646000027,q,6.0,0.8615191999997478,1,+10,693,42.07537982376983,0.16478744390515487,0.27522498000802575,2585685.0,-21.35876675815499,-0.7630539556123201,-1.458713447220261,2589219.0,,,,,2589.948201272002,2586.4142012720017,
158,18,27,m,1,3,150.0,36,3,high,8 + 6 - 7 + 1 - 4,4,5,3,4,2599.881630600008,2601.909822100002,2603.425003199998,2608.4432300000044,2609.327785600006,2609.327790800002,2610.844444000002,2611.861552900009,e,4.0,0.8845556000014767,1,+10,703,-8.363687920366768,-0.5325637441392157,0.14925215723914564,2599159.0,13.25534474794473,0.018682129305658268,0.021241187739809098,2602692.0,,,,,2603.421201272002,2599.888201272002,
159,18,27,m,1,3,151.0,37,3,low,7 - 1 + 8 - 6 + 4,12,13,12,11,2613.3782795000006,2615.4020359999995,2616.917165200008,2621.9364378000028,2622.887637299995,2622.887642300004,2624.4044204999955,2625.421277900008,w,12.0,0.9511994999920717,1,+1,704,5.435374068257184,-0.0005343105411372839,0.08188451674035813,2612651.0,31.681899566564795,0.0736106105164942,0.02885055398648273,2616185.0,,,,,2616.9142012720017,2613.3802012720016,
160,18,27,m,1,4,152.0,0,3,low,3 + 8 - 7 - 1 + 9,12,12,14,13,2650.4600696999987,2652.4867502999987,2654.002022400004,2659.022198000006,2659.975624800005,2659.9756310000084,2661.492968000006,2662.510031500002,q,12.0,0.9534267999988516,1,+1,705,8.862801729496962,-0.353125308569306,0.2769931825343519,2649734.0,-1.8863826716545562,0.1964971341552122,-0.09648764976295121,2653271.0,,,,,2654.000201272002,2650.4632012720017,
161,18,27,m,1,4,153.0,1,3,high,6 + 8 + 7 + 1 - 9,13,15,13,14,2664.026837199999,2666.053394900009,2667.568597000005,2672.5871077000047,2675.663566999996,2675.6635722000065,2677.180371900002,2678.1979505000054,w,13.0,3.076459299991257,1,+10,715,9.052817288061192,0.08310404424117612,0.11829268792557346,2663302.0,0.3111589494921603,0.07571805781198337,-0.025732603228107997,2666836.0,,,,,2667.5652012720016,2664.031201272002,
162,18,27,m,1,4,154.0,2,4,low,4 + 7 + 8 - 3 + 9,25,25,24,26,2679.714653300005,2681.742110499996,2683.2574715000083,2688.277436000004,2692.6636424000026,2692.663648200003,2694.1804768,2695.1971277999983,q,25.0,4.386206399998628,1,+1,716,6.527061022490294,0.4846179853863628,4.4185020308560095,2678991.0,-1.094437530077263,-0.6490985708562653,-1.0130647270791142,2682526.0,,,,,2683.2552012720016,2679.7202012720018,
163,18,27,m,1,4,155.0,3,2,low,2 + 9 - 4 + 1 + 1,9,8,9,11,2696.713795799995,2698.7418152000027,2700.257003000006,2705.2751638000045,2706.143643999996,2706.143649100006,2707.6612800000003,2708.678177900001,w,9.0,0.868480199991609,1,+1,717,-5.673825334411914,-0.1385081925875271,0.05041126138990548,2695990.0,11.649444301871764,0.37945888402839767,-0.08106629797416653,2699524.0,,,,,2700.2532012720017,2696.7192012720016,
164,18,27,m,1,4,156.0,4,1,low,5 + 6 + 1 + 1 + 1,14,15,14,16,2710.195019200008,2712.2213953000028,2713.7367131000065,2718.754975600008,2719.767601700005,2719.767607200003,2721.284013800003,2722.3013767000084,w,14.0,1.0126260999968508,1,+1,718,-1.667660378189245,-0.3369488873209199,0.03809168238111815,2709470.0,12.988422063207043,0.08204984492856715,-0.009419427286886606,2713003.0,,,,,2713.732201272002,2710.1992012720016,
165,18,27,m,1,4,157.0,5,1,low,6 + 1 + 8 + 1 - 1,15,15,14,13,2723.818056899996,2725.8421342000074,2727.357342800009,2732.375687100008,2733.271535000007,2733.2715400000016,2734.7876801000093,2735.804606699996,q,15.0,0.8958478999993531,1,+1,719,-24.19164591687726,0.012316842741380896,-0.015448561619435308,2723091.0,-10.279635131892844,0.11430929801747469,-0.017066596891888164,2726624.0,,,,,2727.3532012720016,2723.8202012720017,
166,18,27,m,1,4,158.0,6,3,high,7 + 5 + 9 + 1 - 6,16,16,14,15,2737.321380399997,2739.348360799995,2740.8634708000027,2745.881817900008,2747.143477300008,2747.1434825000038,2748.660338000001,2749.677917599998,q,16.0,1.2616593999991892,1,+10,729,10.604136935847862,-0.32415430064908834,0.028231381137652223,2736597.0,-16.901005711880558,0.06771458740299163,0.07272153191579322,2740130.0,,,,,2740.859201272002,2737.326201272002,
167,18,27,m,1,4,159.0,7,3,high,4 + 7 - 3 + 5 - 1,12,13,11,12,2751.194524400009,2753.2193685000093,2754.7347038000007,2759.753469100004,2762.1435176000086,2762.1435233000084,2763.6594221999985,2764.6765552,e,12.0,2.390048500004923,1,+10,739,-30.432101950885997,-0.41144654417297666,0.1764491023195356,2750468.0,19.54824908417543,0.6784771451706764,0.11208649544848792,2754002.0,,,,,2754.7312012720017,2751.1972012720016,
168,18,27,m,1,4,160.0,8,4,high,7 + 8 - 4 + 6 + 5,22,21,23,22,2766.1933025000035,2768.220819299997,2769.736167199997,2774.7549522000045,2775.631437600008,2775.631442900005,2777.1480239000084,2778.1643677999964,e,22.0,0.8764854000037303,1,+10,749,-2.558085727404258,-0.205985262306013,0.09867676915699786,2765469.0,8.49160216580066,-0.30989803044922937,0.03262797748898971,2769003.0,,,,,2769.732201272002,2766.198201272002,
169,18,27,m,1,4,161.0,9,3,low,5 + 6 - 4 - 1 + 7,13,14,13,15,2779.6811559000053,2781.707394099998,2783.222399599996,2788.242151700004,2793.1753864000057,2793.175391500001,2794.692114699996,2795.7093617000064,w,13.0,4.933234700001776,1,+1,750,11.142182336342458,0.2222401671124401,0.20515133149929587,2778956.0,3.6088534821603737,0.292264111357619,0.011719418207589483,2782491.0,,,,,2783.2202012720018,2779.685201272002,
170,18,27,m,1,4,162.0,10,1,high,2 + 1 + 9 + 1 - 1,12,11,13,12,2797.226569599996,2799.2519317999977,2800.7670352999994,2805.786329800001,2806.807533500003,2806.8075390000013,2808.3242623999977,2809.3418442999973,e,12.0,1.0212037000019336,1,+10,760,-5.660814833464336,-0.1524637275042111,-0.061170860746701194,2796499.0,3.914822336108727,-0.40850104668635767,-0.05638094118599235,2800034.0,,,,,2800.763201272002,2797.2282012720016,
171,18,27,m,1,4,163.0,11,1,high,6 + 1 + 1 + 9 - 1,16,16,15,14,2810.8583079999958,2812.8805983000057,2814.395826699998,2819.4149396,2820.383386100002,2820.383391399999,2821.8999514000025,2822.917346900009,q,16.0,0.9684465000027558,1,+10,770,-30.981658608763208,0.03841690170653367,-0.08379501665129419,2810129.0,22.347974905350426,-0.07921821084445435,0.07535357723413338,2813662.0,,,,,2814.3912012720016,2810.8582012720017,
172,18,27,m,1,4,164.0,12,3,low,8 - 7 + 9 + 1 + 4,15,14,15,16,2824.433751999997,2826.457433300005,2827.9726525000005,2832.990854200005,2833.855451299998,2833.8554567999963,2835.3721407999983,2836.389055100008,w,15.0,0.8645970999932615,1,+1,771,-33.678870494654845,0.1289052798480932,-0.07498533905693949,2823706.0,23.587150528226584,0.13002202038463606,-0.09993224395450517,2827239.0,,,,,2827.968201272002,2824.435201272002,
173,18,27,m,1,4,165.0,13,1,high,7 + 1 + 5 + 1 - 1,13,12,14,13,2837.9058923999983,2839.9298536999995,2841.444719799998,2846.463531800008,2847.4393208999973,2847.4393262000085,2848.955811000007,2849.9731489999976,e,13.0,0.9757890999899246,1,+10,781,-12.20297353834782,-0.574417751802673,0.05506426171382284,2837178.0,14.830820446025054,0.2906973697983726,0.09894192189192963,2840711.0,,,,,2841.4402012720016,2837.9072012720017,
174,18,27,m,1,4,166.0,14,3,high,2 + 1 + 9 - 5 + 6,13,13,14,11,2851.490042699996,2853.513141600008,2855.0281986000045,2860.046455100004,2860.9594310999964,2860.959436600009,2862.4758355000085,2863.493191600006,q,13.0,0.9129759999923408,1,+10,791,-9.658587062775766,-1.839477515485484,-3.0519463517363183,2850761.0,9.964477015903906,0.6129504609487615,0.16380167758720554,2854294.0,,,,,2855.0232012720016,2851.4902012720017,
175,18,27,m,1,4,167.0,15,1,low,2 + 9 + 1 + 1 + 1,14,14,12,13,2865.0098193000013,2867.033655899999,2868.5486097999965,2873.566659999997,2874.463359000001,2874.463363999996,2875.979984999998,2876.9968621000007,q,14.0,0.8966990000044461,1,+1,792,-9.175312766069835,-0.2791499275461211,-0.16163882691233167,2864282.0,38.39099705958119,0.450803407190429,0.04618574809181064,2867815.0,,,,,2868.544201272002,2865.011201272002,
176,18,27,m,1,4,168.0,16,4,low,5 + 7 - 4 + 6 + 9,23,25,23,24,2878.513789400007,2880.540129900008,2882.0550796000025,2887.0736361000017,2889.591358699996,2889.5913642000087,2891.108214699998,2892.1251791999966,w,23.0,2.5177225999941584,1,+1,793,-4.186512785538479,-1.8250114658252161,-3.125115194781692,2877788.0,2.536186969343442,0.06589266625698453,0.06078231904918119,2881322.0,,,,,2882.051201272002,2878.517201272002,
177,18,27,m,1,4,169.0,17,4,high,4 + 7 - 8 + 9 - 4,8,9,7,8,2893.6419872999977,2895.669699300008,2897.1849605000025,2902.2037296000053,2903.8393144,2903.839319400009,2905.355672599995,2906.373306499998,w,7.0,1.635584799994831,0,+0,793,-4.226485767876667,0.12663142410337036,-0.1390140377768534,2892917.0,16.099627276332953,0.45403896441042413,-0.14019131526322393,2896451.0,,,,,2897.180201272002,2893.6462012720017,
178,18,27,m,1,4,170.0,18,1,high,3 + 1 + 8 + 1 + 1,14,12,14,13,2907.8895453000005,2909.912804599997,2911.428067700006,2916.446644199997,2917.439290299997,2917.4392957999958,2918.9553721999982,2919.9722378000006,w,14.0,0.992646099999547,1,+10,803,-0.7650680219622217,-0.0467766840311179,-0.013474622863342445,2907161.0,26.497795594058026,0.5915624856681867,0.013771999322301776,2910694.0,,,,,2911.4232012720017,2907.890201272002,
179,18,27,m,1,4,171.0,19,4,low,2 + 9 - 6 + 8 - 4,9,11,7,9,2921.488973700005,2923.513236300001,2925.028779100001,2930.047103100005,2931.967365699995,2931.9673709000053,2933.484032000008,2934.5009666999977,e,9.0,1.9202625999896556,1,+1,804,21.875761768129465,-0.4835625895914868,0.12292807131781225,2920761.0,30.325922218976157,0.33513345418218643,-0.023271559993939928,2924295.0,,,,,2925.024201272002,2921.4902012720017,
180,18,27,m,1,4,172.0,20,2,high,3 - 1 + 9 - 5 + 1,7,5,6,7,2936.0177675000014,2938.044625499999,2939.559834200001,2944.5780674999987,2945.647277600001,2945.6472832,2947.1638179,2948.1811476000003,e,7.0,1.0692101000022376,1,+10,814,-1.8643675666672053,-0.6973265000093827,-0.013595883094932537,2935292.0,-34.91451712852195,0.23555066848875317,-0.12485178059847102,2938826.0,,,,,2939.555201272002,2936.0212012720017,
181,18,27,m,1,4,173.0,21,1,high,9 + 8 + 1 + 1 - 1,18,18,20,17,2949.6981048000016,2951.724694799996,2953.2402774000075,2958.2598,2959.295292099996,2959.2952974000077,2960.8119633000024,2961.829372599997,q,18.0,1.0354920999961903,1,+10,824,52.64998337745488,-0.20678647155926333,-0.07283971085212304,2948972.0,40.23659398298376,-0.16973266098447715,0.0495814183846377,2952507.0,,,,,2953.236201272002,2949.701201272002,
182,18,27,m,1,4,174.0,22,4,low,8 + 4 - 5 + 7 - 6,8,7,8,6,2963.345172900008,2965.3723614000046,2966.8874163,2971.906161699997,2973.375284499998,2973.3752904,2974.8919316999963,2975.908251100001,w,8.0,1.4691228000010597,1,+1,825,30.04523350991517,-0.22778515553041112,0.05771831797750582,2962620.0,25.853926153655756,0.2306837269111628,-0.04638045692409709,2966154.0,,,,,2966.8832012720018,2963.3492012720017,
183,18,27,m,1,4,175.0,23,3,high,8 - 1 + 6 - 7 + 5,11,11,12,13,2977.425307199999,2979.452217900005,2980.967527200002,2985.986344600009,2986.9912765000045,2986.991282200004,2988.507780500004,2989.5249314999965,q,11.0,1.0049318999954266,1,+10,835,-6.251713313591093,-0.9706650927493019,-0.49017176400108964,2976700.0,11.477355428476749,0.8522502810549275,0.07167612755552888,2980234.0,,,,,2980.9632012720017,2977.4292012720016,
184,18,27,m,1,4,176.0,24,1,low,6 + 9 + 1 + 1 - 1,16,14,16,15,2991.0417487000086,2993.069622800001,2994.5848573999974,2999.603625100004,3000.943185099997,3000.943190300008,3002.4598484000016,3003.4767154,w,16.0,1.339559999993071,1,+1,836,-15.780462850675741,-0.29564151080149204,0.056153357330416265,2990317.0,6.900061829353195,0.7878931941738836,-0.18678615566999301,2993850.0,,,,,2994.5792012720017,2991.046201272002,
185,18,27,m,1,4,177.0,25,3,high,3 + 8 - 7 + 1 + 9,14,13,14,12,3004.993445500004,3007.0194439000043,3008.5348136999964,3013.553406399995,3014.4311640000087,3014.431169100004,3015.9483416000003,3016.9656716000027,w,14.0,0.8777576000138652,1,+10,846,5.108366368580308,0.389409027209104,4.842500233130622,3004267.0,12.757777346630732,0.1252796794739064,-0.22728586200137935,3007801.0,,,,,3008.5302012720017,3004.9962012720016,
186,18,27,m,1,4,178.0,26,1,low,4 + 9 + 1 - 1 - 1,12,13,12,11,3018.482640800008,3020.5104286999995,3022.025705299995,3027.0436850999977,3027.823229600006,3027.823235200005,3029.3399056000053,3030.3567784000043,w,12.0,0.7795445000083419,1,+1,847,20.65463928425536,-0.23254434552483927,0.05862769200318452,3017758.0,-5.902857816408233,0.7669939054799437,0.06783854238916631,3021291.0,,,,,3022.020201272002,3018.4872012720016,
187,18,27,m,1,4,179.0,27,2,low,2 + 1 + 9 - 4 + 1,9,9,11,8,3031.873323000007,3033.899841899998,3035.415086599998,3040.433148099997,3041.535136599996,3041.5351417000056,3043.0515948999964,3044.068465200005,q,9.0,1.101988499998697,1,+1,848,9.396964529488223,0.05541290699043344,0.03425745146251735,3031147.0,13.071507665115288,0.4175061889250298,0.0869658938323763,3034681.0,,,,,3035.410201272002,3031.8762012720017,
188,18,27,m,1,4,180.0,28,4,high,5 + 8 - 4 - 6 + 9,12,13,14,12,3045.5851300000068,3047.611386999997,3049.126711100005,3054.146430299996,3057.023212400003,3057.023217800001,3058.539653800006,3059.5567471999966,w,14.0,2.876782100007404,0,+0,848,-9.099612786990011,0.4001333513256089,-0.0734062562668436,3044859.0,16.350783515766445,-0.038663327641603296,0.054768061700330106,3048394.0,,,,,3049.1232012720016,3045.5882012720017,
189,18,27,m,1,4,181.0,29,3,high,4 + 7 + 1 + 9 - 5,16,17,16,18,3061.073645900004,3063.0977539000014,3064.6128953000007,3069.6312339,3070.455071400007,3070.4550773000083,3071.971795699996,3072.9890822000016,w,16.0,0.8238375000073574,1,+10,858,-19.56949814857479,-0.4588458394044057,0.04850294133191202,3060345.0,23.39267024066951,0.2888389490364758,-0.03685881931303103,3063879.0,,,,,3064.6082012720017,3061.0742012720016,
190,18,27,m,1,4,182.0,30,4,low,7 + 6 - 4 + 9 - 5,13,12,13,14,3074.5064300000085,3076.5330964000023,3078.048319399997,3083.0677372000064,3083.855162299995,3083.855168099996,3085.371778400004,3086.3886883000087,w,13.0,0.787425099988468,1,+1,859,11.332609473719254,-0.2809345104523171,-0.01192375030035242,3073780.0,10.692273392987254,0.02460500655377551,-0.03819666081129158,3077315.0,,,,,3078.044201272002,3074.509201272002,
191,18,27,m,1,4,183.0,31,4,high,5 + 9 - 4 + 7 + 6,23,24,25,23,3087.905046300002,3089.9318432,3091.447008400006,3096.466998700009,3100.191127700004,3100.191133100001,3101.7077810000046,3102.724880900001,e,23.0,3.7241289999947194,1,+10,869,-8.843411715500242,-0.10795365940250701,-0.1689076368095248,3087179.0,17.82263580778734,-0.023365240376964636,0.01075622227709383,3090714.0,,,,,3091.4432012720017,3087.908201272002,
192,18,27,m,1,4,184.0,32,4,low,5 + 7 - 4 - 6 + 9,11,12,11,13,3104.241625800001,3106.2664774000004,3107.781751600007,3112.8001718000014,3115.615055999995,3115.615061400007,3117.131583399998,3118.1483698000084,w,11.0,2.814884199993685,1,+1,870,-62.79623581878511,-0.8128252070878523,0.12772623466975563,3103514.0,-6.111688033403123,0.46455454990933376,0.07565160670476301,3107047.0,,,,,3107.776201272002,3104.243201272002,
193,18,27,m,1,4,185.0,33,4,low,5 + 6 - 4 + 7 + 9,23,25,23,24,3119.6651046000043,3121.6903886000077,3123.2058502,3128.223787099996,3132.623088499997,3132.623093999995,3134.139231299996,3135.156446299996,e,24.0,4.399301400000695,0,+0,870,3.6611286140179864,-0.13471852626308234,0.055350829207927665,3118937.0,6.506933530196523,1.0583821836270024,-0.053426781075435636,3122471.0,,,,,3123.200201272002,3119.6662012720017,
194,18,27,m,1,4,186.0,34,1,low,9 + 8 + 1 + 1 - 1,18,18,19,17,3136.673702900007,3138.701394899996,3140.216666499997,3145.2359167999966,3146.119015500008,3146.119020900005,3147.635043500006,3148.651995200009,q,18.0,0.8830987000110326,1,+1,871,-26.46087910173726,-0.17575360027389664,-0.021722090334874045,3135948.0,3.00836062211917,-0.15894013276349694,-0.003245009433946011,3139483.0,,,,,3140.212201272002,3136.6772012720016,
195,18,27,m,1,4,187.0,35,1,low,2 + 1 + 1 + 9 - 1,12,12,11,13,3150.168426999997,3152.1928493000014,3153.708102799996,3158.7261270000017,3159.727058000004,3159.7270633000007,3161.2436980000057,3162.260409099996,e,13.0,1.0009310000023106,0,+0,871,-2.7024779165254564,-0.6436857445170876,0.003106594946123975,3149440.0,40.288169973644116,0.1502514498794194,-0.09289660743061545,3152973.0,,,,,3153.7022012720017,3150.169201272002,
196,18,27,m,1,4,188.0,36,1,high,2 + 1 + 9 + 1 + 1,14,12,13,14,3163.777005600001,3165.804417799998,3167.319670800003,3172.337552099998,3174.295008600005,3174.295014100004,3175.811713999996,3176.829077900009,e,14.0,1.957456500007538,1,+10,881,-31.632088653870923,-0.4204931040061779,-0.05245389016812685,3163051.0,-23.061384072005694,0.11616346731512639,0.062149006396182704,3166584.0,,,,,3167.3132012720016,3163.7802012720017,
197,18,27,m,1,4,189.0,37,2,high,6 + 1 + 8 + 5 - 1,19,17,19,18,3178.3458208000084,3180.3735250000027,3181.888708600003,3186.907060400001,3189.8310613000067,3189.8310669000057,3191.3482609000057,3192.365515800004,e,18.0,2.9240009000059217,0,+0,881,25.57195669466185,0.03776147319822387,0.006341721451200488,3177620.0,-16.79884576973392,0.7578642477694331,0.1697438198636998,3181154.0,,,,,3181.8832012720018,3178.3492012720017,
198,18,27,m,1,5,190.0,0,4,high,7 + 6 - 9 + 8 - 3,9,9,7,8,3254.075544200008,3256.1022418000066,3257.6175750999973,3262.637718099999,3267.655012000003,3267.655014300006,3269.1714316,3270.1899124000047,,,,0,Too Slow!,881,14.488837334415978,0.12966250943028634,0.13078524275245718,3253349.0,8.203199857761097,0.10926232574432837,-0.013978290216945632,3256884.0,,,,,3257.613201272002,3254.078201272002,
199,18,27,m,1,5,191.0,1,2,low,3 + 8 - 5 + 1 + 1,8,9,8,6,3271.706825100002,3273.7316817999963,3275.246978700001,3280.265184200005,3284.046967100003,3284.0469732000056,3285.563749199995,3286.5799623000057,q,9.0,3.781782899997779,0,+0,881,-2.068911788167693,-0.14033780533978613,-0.021204022724683025,3270978.0,-6.116313905451047,0.19081749950543747,0.05350922598438812,3274512.0,,,,,3275.241201272002,3271.707201272002,
