,id,age,sex,cued,block,trial,trialinblock,efflev,rewlev,calc,corAns,option1,option2,option3,tstart,ITI1Time,probTime,respTime,selectTime,ITI2Time,fbTime,ITI3Time,key_press,chosenAns,RT,acc,feedback,total_points,cuescr,cuecor,cuezyg,cuetime,probscr,probcor,probzyg,probtime,fbscr,fbcor,fbzyg,fbtime,probtime_c,cuetime_c,fbtime_c
0,19,21,f,0,Practice,,0,1,0,4 + 1 + 9 + 1 + 1,16,16,15,14,65.16000639996491,,65.16000879998319,70.28309260000242,71.21982229995774,71.21982840000419,72.73655289999442,73.75728039996466,q,16,0.9367296999553218,1,Correct,0,,,,,35.835652335685296,0.7317278418623565,0.4206792790411771,62713.0,37.779514476221145,0.22940055654759295,-0.024100105479549994,70187.0,65.26953048998473,,72.74353048998474
1,19,21,f,0,Practice,,1,1,0,3 + 1 + 1 + 8 - 1,12,12,10,11,75.27415329997893,,75.27415620000102,80.30626419995679,81.01994629995897,81.0199522000039,82.53629959997488,83.55408199998783,q,12,0.7136821000021882,1,Correct,0,,,,,14.321711890383455,0.2639437794212349,-0.02486107614427069,72736.0,8.024952224109828,0.6179680042998532,0.15876263675563607,79984.0,75.29253048998474,,82.54053048998473
2,19,21,f,0,Practice,,2,2,0,8 + 1 + 6 + 1 - 4,12,12,10,11,85.07172509998782,,85.07173049997073,90.0911492999876,90.70778180001072,90.7077869999921,92.22568889998364,93.24299479997715,q,12,0.6166325000231154,1,Correct,0,,,,,30.5915030602137,0.21415545341683773,0.206747821043487,82521.0,-8.532077751712894,0.5688424938578374,1.2545383566023023,89673.0,85.07753048998474,,92.22953048998474
3,19,21,f,0,Practice,,3,2,0,9 + 4 - 6 + 1 - 1,7,7,6,5,94.7600046999869,,94.7600078000105,99.77954159997172,100.3796911999816,100.37969729996983,101.89579469995806,102.91295560001164,q,7,0.6001496000098996,1,Correct,0,,,,,-1.4070358227961037,0.0020935661286887175,0.06235498742853984,92209.0,4.946712983672516,-0.14747756034528692,-0.05402081839725015,99343.0,94.76553048998474,,101.89953048998474
4,19,21,f,0,Practice,,4,3,0,9 + 3 - 5 + 6 + 7,20,20,21,22,104.43038819998036,,104.4303912000032,109.44985689996976,110.25984819995938,110.25985390000278,111.7766984999762,112.79379520000656,q,20,0.8099912999896333,1,Correct,0,,,,,14.620478758429279,0.3229428680448079,0.2730198813390572,101880.0,17.645706817409796,-0.3653787118831673,-0.009148477036819092,109224.0,104.43653048998473,,111.78053048998474
5,19,21,f,0,Practice,,5,3,0,2 + 1 + 9 - 7 + 6,11,10,9,11,114.31070819997694,,114.3107111999998,119.33020939998096,119.96367450000253,119.96368069999151,121.48044229997322,122.49882749997778,e,11,0.6334651000215672,1,Correct,0,,,,,-27.529776688343745,-0.8315917839488214,0.13791859817129426,111759.0,-15.115938283155893,-0.1663307910861982,0.035940535373572224,118929.0,114.31553048998474,,121.48553048998474
6,19,21,f,0,Practice,,6,4,0,4 + 8 + 5 - 3 + 7,21,21,23,22,124.01594829995884,,124.01595139998244,129.03555480000796,129.68369279999752,129.68369859998347,131.20086380001158,132.21876660001,q,21,0.648137999989558,1,Correct,0,,,,,-4.675957056265553,0.03820282785760565,0.16740019594999667,121466.0,25.085692760850144,-0.018492929866687824,0.24882327089370948,128649.0,124.02253048998473,,131.20553048998474
7,19,21,f,0,Practice,,7,4,0,5 + 8 - 4 + 6 + 9,24,23,22,24,133.73598019999918,,133.7359831999638,138.75558339996496,139.36385099997278,139.36385669995798,140.88087110000197,141.8992374999798,e,24,0.6082676000078209,1,Correct,0,,,,,-39.982813999919685,-0.13566528920746324,0.05945812325534594,131185.0,5.793144493483969,0.11483296896941964,0.1651420614032908,138329.0,133.74153048998474,,140.88553048998475
8,19,21,f,1,0,0.0,0,3,high,3 + 8 + 1 + 5 - 9,8,9,8,7,283.257289399975,285.6279257999849,287.14324780000607,292.16151489998447,293.9932999999728,293.993305699958,295.5100209999946,296.52749859995674,w,8,1.8317850999883376,1,+10,10,22.718882327321438,0.3205459393719998,-0.09478195127756228,281057.0,-9.562656800547625,0.4554264359280462,0.3389115159596754,284591.0,7.013850405492075,0.19228128463267113,0.455263823671912,292957.0,287.1475304899847,283.6135304899847,295.5135304899847
9,19,21,f,1,0,1.0,1,1,low,3 + 1 + 9 + 1 + 1,15,14,15,17,298.04511710000224,300.0720494000125,301.58730499999365,306.60558089998085,307.30834469996626,307.3083501000074,308.8251729999902,309.8421278999885,w,15,0.7027637999854051,1,+1,11,-22.83939455923841,-0.033740867769730176,-0.02417333234414354,295501.0,9.435625040929333,0.6170977328756666,0.05393140243475125,299035.0,14.24625116988678,-0.029546714898093462,0.12154127925494329,306271.0,301.59153048998473,298.0575304899847,308.8275304899847
10,19,21,f,1,0,2.0,2,1,low,8 + 1 + 5 + 1 + 1,16,16,15,17,311.3589889999712,313.38395230000606,314.8992103000055,319.9176908999798,320.4651639999938,320.4651689999737,321.98251309996704,322.9995224999729,q,16,0.5474731000140309,1,+1,12,29.019985940871003,-0.24579124680702824,0.19724131990979066,308813.0,-22.971907250206435,0.4083688201544957,0.2435709142611142,312346.0,-7.85427232706585,-0.07444937422165454,-0.020484427636172198,319429.0,314.9025304899847,311.3695304899847,321.9855304899847
11,19,21,f,1,0,3.0,3,3,high,6 + 7 + 8 + 1 - 9,13,13,15,14,324.51694489998044,326.54238539998187,328.0575290999841,333.0760287999874,333.8811746999854,333.881179399963,335.397693899984,336.415061799984,q,13,0.8051458999980241,1,+10,22,14.165108746497001,0.6116592383505486,0.09725658959061168,321971.0,-0.6616384918400193,0.19298265354762112,0.2311497162423226,325505.0,2.067487106646201,0.01506442248291684,0.021017670676148903,332844.0,328.0615304899847,324.5275304899847,335.4005304899847
12,19,21,f,1,0,4.0,4,4,low,5 + 7 - 4 - 6 + 9,11,11,12,13,337.93174939998426,339.98578729998553,341.5010359999724,346.51959139999235,347.04918999999063,347.0491952999728,348.56567989999894,349.5833211999852,q,11,0.5295985999982804,1,+1,23,10.958040087508842,-0.2197626365909926,0.03423165992712085,335415.0,-4.828550539289054,0.14222570250370836,0.1527444691841655,338949.0,31.951574488783443,0.09751380069824656,-0.07526343023914173,346012.0,341.5055304899847,337.97153048998473,348.5685304899847
13,19,21,f,1,0,5.0,5,1,low,3 + 1 + 8 + 1 + 1,14,16,14,13,351.09978290001163,353.125845099974,354.64122230000794,359.66023809998296,360.28115669998806,360.28116209997097,361.7979030999704,362.8148647999624,w,14,0.6209186000050977,1,+1,24,-7.6440456745270495,-0.34220092496954413,0.043342146594202324,348555.0,23.13970877328831,0.30674242463645296,0.4777606478141243,352089.0,18.459733137375544,-0.04975307641175064,0.22438782322052875,359244.0,354.6455304899847,351.1115304899847,361.80053048998474
14,19,21,f,1,0,6.0,6,3,high,6 + 1 + 8 + 7 - 9,13,14,15,13,364.33142469997983,366.3592087999568,367.8742913999595,372.8933633000124,374.6731909000082,374.6731967999949,376.1899018000113,377.20723629998975,e,13,1.7798275999957696,1,+10,34,14.499140765617543,0.031932445719894176,-0.08521232170529203,361788.0,18.604374493769484,-0.2931369028543789,0.07366573825573641,365322.0,21.71081511606992,-0.5112305824098646,-0.06691657137737428,373636.0,367.8785304899847,364.3445304899847,376.19253048998473
15,19,21,f,1,0,7.0,7,2,low,4 + 9 - 7 + 1 - 1,6,5,8,6,378.7237767999759,380.7647568999673,382.2802011999884,387.3007440000074,387.793159199995,387.7931645999779,389.3098223999841,390.32706539996434,q,5,0.4924151999875903,0,+0,34,19.659214866701053,-0.403619080087676,0.049112012362337865,376193.0,-0.42242392959516906,0.1058548731613489,0.28790143336378815,379729.0,8.55383915036447,-0.10242206502463214,-0.05717545367841037,426987.0,382.2855304899847,378.7495304899847,429.54353048998473
16,19,21,f,1,0,8.0,8,4,high,8 + 5 - 4 + 7 + 9,25,24,25,26,391.8438511000131,393.8854963000049,395.40064539999,400.4189933000016,401.305111899972,401.3051173999556,402.8225560999708,403.83992749999743,w,25,0.8861185999703594,1,+10,44,1.6645180271045739,-0.31563781831780924,0.01903969980368636,389314.0,7.909184272832043,0.062360693742410156,0.46288202689714586,392848.0,-7.963875916070646,-0.2449422981137288,-0.1361922548280341,400269.0,395.4045304899847,391.87053048998473,402.8255304899847
17,19,21,f,1,0,9.0,9,1,high,7 - 1 + 8 + 1 - 1,14,13,14,12,405.3566311000032,407.3931063999771,408.9083348999848,413.927317900001,414.6091698000091,414.6091755999951,416.1255902000121,417.1428828999633,w,14,0.6818519000080414,1,+10,54,-1.1907114096502944,-0.038977502125762786,0.018457602172804677,402822.0,-7.8974724774517675,0.060308995559380296,0.14741429945173667,406356.0,28.909101266867516,-0.5838527745588409,-0.03950425282196224,413571.0,408.9125304899847,405.3785304899847,416.12753048998474
18,19,21,f,1,0,10.0,10,2,low,9 + 5 - 6 + 1 - 1,8,7,9,8,418.6597359000007,420.6866195999901,422.2019186000107,427.2200758999679,428.0250350999995,428.0250402999809,429.5416145999916,430.5585978999734,e,8,0.8049592000315897,1,+1,55,-28.536883892817855,-0.12477316757163237,0.01661942946879913,416115.0,5.588711695120616,-0.23997181547232893,-0.10437352027694002,419649.0,26.285318900098176,-0.10327568248727159,-0.009433987928693766,562179.0,422.2055304899847,418.6715304899847,564.7355304899847
19,19,21,f,1,0,11.0,11,3,low,4 + 5 - 3 + 7 - 1,12,12,13,11,432.0765042999992,434.13171849999344,435.6468755999813,440.6652276999666,441.2972836999688,441.2972884000046,442.8145637999987,443.8315813000081,q,12,0.6320560000021942,1,+1,56,-0.4990798088248365,-0.393254797400195,0.0976961441979809,429560.0,-12.772883281425319,-0.27080020602359234,-0.0804882807185372,433094.0,-24.42011116926244,-0.2725044033300814,0.18532675486030925,440260.0,435.6505304899847,432.1165304899847,442.8165304899847
20,19,21,f,1,0,12.0,12,2,low,9 + 6 + 1 + 7 + 1,24,24,23,25,445.34842170000775,447.3744745999575,448.8898040999775,453.9079221999855,454.6890411999775,454.6890459999559,456.205378499988,457.2225507000112,e,25,0.7811189999920316,0,+0,56,-0.17571229586414816,0.08287843031499564,-0.08756643892047222,442803.0,-15.623766388487097,0.44285521727391197,-0.02436036894603877,446336.0,5.724641935698189,0.20194962594981636,-0.04245353293729437,589491.0,448.8925304899847,445.3595304899847,592.0475304899848
21,19,21,f,1,0,13.0,13,3,high,6 - 1 + 7 - 8 + 9,13,12,11,13,458.73970539995935,460.7678820999572,462.28316859999904,467.301527899981,468.1130234999582,468.11302859999705,469.63021400000434,470.6478011999861,e,13,0.8114955999772064,1,+10,66,-11.37321221210986,-0.11152548583821442,0.02388528415523883,456196.0,-2.815465876776411,0.12132791547154209,0.21732359553312985,459730.0,19.262081058518543,-0.18878370825867163,0.0870016251131307,467076.0,462.2865304899847,458.75253048998474,469.63253048998473
22,19,21,f,1,0,14.0,14,4,low,5 + 7 - 4 + 6 + 9,23,24,23,25,472.1650207999628,474.1912972999853,475.7064970000065,480.7253261999576,481.8490181000088,481.849022999988,483.365808499977,484.3833824999747,w,23,1.123691900051199,1,+1,67,7.582350959022033,0.18759115653112968,0.0070413686819210675,469620.0,-26.92243695983059,0.20643617839931938,0.06966520642676666,473153.0,-4.137989038165166,-0.3046513068359875,-0.13757600634229616,480811.0,475.70953048998473,472.1765304899847,483.3675304899847
23,19,21,f,1,0,15.0,15,1,low,8 + 1 + 1 + 1 - 4,7,5,7,8,485.9001208000118,487.9264110999648,489.4413333999692,494.4595047999756,495.05699959996855,495.0570042000036,496.5737296000007,497.59064720000606,w,7,0.5974947999930009,1,+1,68,38.330820098975394,0.39649816805719285,0.06750654609832107,483355.0,16.20323015625908,0.7508961054144527,0.07818584235244996,486888.0,6.862562710596296,0.10215520323015781,-0.08696935673260064,494019.0,489.4445304899847,485.9115304899847,496.5755304899847
24,19,21,f,1,0,16.0,16,3,low,2 - 4 + 9 + 7 + 1,15,16,15,13,499.10742349998327,501.13308759999927,502.648326799972,507.66670989996055,508.112942799984,508.1129477999639,509.6292005999712,510.6460823999951,w,15,0.4462329000234604,1,+1,69,10.333300714431257,0.17174073045446203,-0.003361278443739346,496562.0,-0.2598869478100916,0.2893866876980873,0.14350810583445606,500095.0,-6.585801410496993,-0.018625764357409036,-0.05045471430900306,507074.0,502.65153048998474,499.1185304899847,509.6305304899847
25,19,21,f,1,0,17.0,17,3,high,2 + 1 + 9 - 7 + 6,11,11,12,13,512.1628071999876,514.1873292999808,515.7025899,520.7212851999793,521.1849760999903,521.1849810999702,522.7016815000097,523.7349341000081,q,11,0.4636909000109881,1,+10,79,9.036925313252805,0.17961048566698512,0.045500667035942355,509616.0,-0.3185101258991381,0.4277501288872645,0.1858012319895488,513149.0,-39.436731061174214,0.039217970966606064,0.017053786122728898,520163.0,515.7055304899848,512.1725304899848,522.7195304899848
26,19,21,f,1,0,18.0,18,1,low,3 + 1 + 9 + 1 - 1,13,13,14,12,525.2513544000103,527.2764735000092,528.791680699971,533.8098204999696,534.3688941999571,534.3688989999937,535.8853333999868,536.9025132000097,q,13,0.5590736999874935,1,+1,80,4.950005944706477,0.15996514210059098,-0.07496600591209135,522705.0,8.7225185153295,-0.027603352731882413,0.2019118641528317,526238.0,-25.903271339202057,0.15515810988559053,0.07563212434018407,533331.0,528.7945304899848,525.2615304899848,535.8875304899848
27,19,21,f,1,0,19.0,19,4,low,7 + 6 - 4 + 9 - 5,13,13,12,14,538.4193981999997,540.4477124999976,541.9630295999814,546.9819179999758,549.832967699971,549.8329729000106,551.3495006999583,552.3664282999816,q,13,2.851049699995201,1,+1,81,28.81024169774779,-0.08028709023585723,-0.14222144677786153,535876.0,-44.693032781140204,-0.2477764813882568,0.3896384105434991,539410.0,-2.470133774906201,0.16537518569500476,-0.18658801431906724,548794.0,541.9665304899847,538.4325304899847,551.3505304899847
28,19,21,f,1,0,20.0,20,2,high,6 + 1 + 8 + 7 - 1,21,19,23,21,553.883285399992,555.9198433999554,557.4349914999912,562.4547993000015,563.2170326999621,563.2170377000002,564.7336159999832,565.7508939999971,e,21,0.7622333999606781,1,+10,91,-4.508027063420709,0.03138084816914022,-0.04098775771969443,551348.0,-19.482264624963435,0.25233345066860613,0.12177163087149845,554883.0,-4.648172287249575,0.4172175251535033,0.1515656131355545,631530.0,557.4395304899848,553.9045304899847,634.0865304899847
29,19,21,f,1,0,21.0,21,1,high,6 + 1 + 1 + 7 - 1,14,12,13,14,567.267619899998,569.295471099962,570.8116230999585,575.8299691999564,576.6009218000108,576.6009272999945,578.1171035000007,579.1345956999576,e,14,0.7709526000544429,1,+10,101,-35.824360487104826,0.017597997911496854,0.21200936337242804,564724.0,-26.374080545892017,0.326964833363907,0.32651030493089084,568258.0,-11.037148176883015,0.7406364733920863,0.00196428567738427,575563.0,570.8145304899848,567.2805304899848,578.1195304899848
30,19,21,f,1,0,22.0,22,2,high,9 + 4 - 6 + 1 - 1,7,8,7,9,580.6518248000066,582.6793623999692,584.1950775999576,589.2133205999853,590.5290234999848,590.5290288999677,592.0455928999581,593.0627152000088,w,7,1.315702899999451,1,+10,111,1.9922397837771868,0.04844883493987773,-0.05610515932194238,578107.0,24.46497526861146,0.4796876295418877,0.24669344501650703,581641.0,13.01051687007352,0.1427241264903154,0.022803020357784476,671314.0,584.1975304899847,580.6635304899847,673.8705304899847
31,19,21,f,1,0,23.0,23,4,high,8 + 4 + 7 - 5 - 6,8,9,8,6,594.5790695999749,596.605231900001,598.12051779998,603.1390035999939,606.2169260999653,606.216931700008,607.7334447999601,608.7620039999601,w,8,3.0779224999714643,1,+10,121,-13.840926333729543,0.15390935552634755,0.19194968655086386,592033.0,-4.422595674080792,0.3951244826409046,-0.07139903283193227,595567.0,-5.278120213177669,0.2574023723842105,-0.05322832841212466,605189.0,598.1235304899848,594.5895304899848,607.7455304899847
32,19,21,f,1,0,24.0,24,4,high,4 + 7 + 9 - 5 + 7,22,22,23,24,610.2788202000083,612.3025543999975,613.8179716999875,618.8363691999693,619.376833199989,619.3768382999697,620.8932964999694,621.9106563999667,q,22,0.5404640000197105,1,+10,131,-25.5905422019767,0.06626341070029929,-0.022432558557731408,607730.0,4.316393517165032,0.6938894844002306,0.2106856352844375,611264.0,7.023590494873665,-0.09227431521715301,-0.025761392189334043,618338.0,613.8205304899848,610.2865304899848,620.8945304899847
33,19,21,f,1,0,25.0,25,2,low,5 + 7 - 8 + 1 + 1,6,6,7,8,623.428356999997,625.4563492999878,626.9715815999662,631.9901370999869,632.5688500999822,632.5688548999606,634.0853693999816,635.1021681999555,q,6,0.5787129999953322,1,+1,132,5.443177705862357,0.6751782323018678,0.07189969447284739,620884.0,24.10029629358944,-6.269202110145508,-5.859741955818838,624418.0,-4.115456106615012,-1.1650814221440395,-0.21544976227431123,697538.0,626.9745304899848,623.4405304899848,700.0945304899848
34,19,21,f,1,0,26.0,26,1,high,5 + 6 + 1 + 1 + 1,14,13,16,14,636.6189875999698,638.6467590999673,640.1619849999552,645.1792467999621,645.8088382999995,645.8088433999801,647.3260353999794,648.3433685000055,e,14,0.6295915000373498,1,+10,142,-7.080927587431489,-0.34356011751506044,0.02012156340865756,634075.0,10.48739587674796,0.3178258169615158,0.5267663168049721,637607.0,13.120790296784449,0.2773260443640049,0.04613377871391755,644771.0,640.1635304899847,636.6315304899848,647.3275304899847
35,19,21,f,1,0,27.0,27,3,high,4 + 8 - 3 + 5 - 1,13,12,14,13,649.8611080999835,651.8845968999667,653.4004166999948,658.4187022999977,659.0568639999838,659.0568689999636,660.5731020999956,661.5901150999707,e,13,0.6381616999860853,1,+10,152,-30.990053246540572,0.06165032994147612,0.0060020041992445705,647313.0,5.702032845912514,-0.0980042427084955,0.21905786481541534,650846.0,39.28583100284651,0.09013019471168437,-0.08605256094367286,658018.0,653.4025304899848,649.8695304899848,660.5745304899848
36,19,21,f,1,0,28.0,28,2,low,2 + 9 - 4 + 1 + 1,9,11,8,9,663.107052300009,665.1326940999716,666.6480009999941,671.6662010999862,672.3527951999567,672.3528004999971,673.8698965999647,674.8869024000014,e,9,0.6865940999705344,1,+1,153,-37.36718794486774,-0.1820209318917918,-0.11229402640907749,660560.0,-13.310467424328968,-0.18335856146556218,0.10620139546246143,664094.0,-40.820941565471145,0.10471673185153385,-0.02411547178475293,724170.0,666.6505304899848,663.1165304899847,726.7265304899847
37,19,21,f,1,0,29.0,29,3,low,7 - 1 + 9 - 5 + 4,14,13,15,14,676.4033666999894,678.4301784000127,679.9455568999983,684.9641419000109,685.4808518000063,685.4808574999915,686.9974742999766,688.0143540999852,e,14,0.516709899995476,1,+1,154,-20.11405355629257,-0.34226576385949636,0.28250589216873756,673858.0,6.492020098283728,0.43491636552053103,0.10880599082256404,677392.0,-26.470725662743398,0.33895833709335443,5.350314093885489,684442.0,679.9485304899848,676.4145304899847,686.9985304899848
38,19,21,f,1,0,30.0,30,2,high,4 + 9 - 7 + 1 - 1,6,5,8,6,689.5444013999659,691.5695629999973,693.0847773999558,698.1033274999936,698.5767514999607,698.5767565999995,700.0932897999883,701.1104649999761,e,6,0.4734239999670535,1,+10,164,21.464686759187888,-0.036878509596252496,-0.05715150534620772,686997.0,13.762536257316171,0.179122779772122,0.19107690814447897,690531.0,5.283975341595841,-0.05252919711721926,0.01825648717951278,777778.0,693.0875304899847,689.5535304899847,780.3345304899848
39,19,21,f,1,0,31.0,31,1,high,4 + 1 + 1 + 7 - 1,12,12,13,14,702.6272310999921,704.6542618999956,706.1694555999711,711.1876512999879,711.8007493999903,711.8007541999687,713.3168827999616,714.3342343000113,q,12,0.6130981000023894,1,+10,174,-28.306335858110366,-0.4105037904516706,0.030254183228305198,700081.0,11.574181120793668,0.09843283886447196,0.03664239235336364,703615.0,3.272359949809161,-0.4306883306187008,0.08342862497954529,710762.0,706.1715304899848,702.6375304899848,713.3185304899847
40,19,21,f,1,0,32.0,32,2,high,6 + 8 + 1 + 1 - 7,9,8,9,11,715.8510122000007,717.8774495999678,719.3927798999939,724.4111207000096,725.208727499994,725.2087326999754,726.7254895999795,727.7428532000049,w,9,0.7976067999843508,1,+10,184,16.345680588535135,-0.10787212706820126,-0.049719418778111146,713305.0,-14.719809218487134,0.3512264025668621,0.1814755976854272,716839.0,-40.276520081555034,0.02640595136128132,0.04240958052935584,843154.0,719.3955304899848,715.8615304899847,845.7105304899848
41,19,21,f,1,0,33.0,33,4,high,8 + 7 - 4 + 5 + 9,25,25,24,26,729.259374599962,731.284436499991,732.7997567999992,737.8201185999787,738.7048326999648,738.7048379000043,740.2213278999552,741.2382890000008,q,25,0.884714099986013,1,+10,194,-20.946577897732368,0.3850551935976827,-0.13863434994094082,726712.0,-20.38558329926509,0.371590625412356,0.2553244561200425,730247.0,-11.627762073657477,-0.28854119563506364,0.09514617611529075,737666.0,732.8035304899847,729.2685304899848,740.2225304899848
42,19,21,f,1,0,34.0,34,4,low,9 + 4 - 6 + 8 + 7,22,24,22,21,742.7552187999827,744.7831072999979,746.2986492000055,751.3169955000049,751.8166495999903,751.8166544999694,753.333163000003,754.3501040000119,w,22,0.4996540999854915,1,+1,195,8.452458760252416,0.08490935533176769,0.07264544187070743,740210.0,34.84999767340418,0.8732668707781688,0.25678706594940803,743744.0,-37.11293343899723,0.07588428102289368,-0.12944136879154855,750777.0,746.3005304899848,742.7665304899848,753.3335304899848
43,19,21,f,1,0,35.0,35,2,high,9 + 1 + 6 + 7 + 1,24,23,25,24,755.8666358999908,757.8904175999924,759.4054711000063,764.4235159999807,765.568623500003,765.5686285999836,767.0846644999692,768.101918499975,q,23,1.1451075000222772,0,+0,195,0.37335104272424946,-0.24457974398849913,0.08852944285372644,753318.0,24.271422752846576,0.2519211429817938,0.0516486270869867,756851.0,-31.674833644285417,0.095411179080648,-0.11356157157416003,871089.0,759.4075304899848,755.8745304899847,873.6455304899848
44,19,21,f,1,0,36.0,36,2,high,4 + 9 + 1 - 7 - 1,6,5,8,6,769.6189321999555,771.6432153999922,773.1585615999647,778.1774959999602,778.8166240999708,778.8166288000066,780.333542599983,781.3509020999772,e,6,0.6391281000105664,1,+10,205,5.687724344243639,-0.12102472924666108,-0.12838212381385272,767070.0,-20.938399210187683,0.4608161025414139,0.18523372694328044,770604.0,-11.54293763279319,-0.2585343477336943,0.19691562962717102,940032.0,773.1605304899848,769.6265304899848,942.5885304899848
45,19,21,f,1,0,37.0,37,1,high,7 + 1 + 4 + 1 - 1,12,11,13,12,782.8678288999945,784.8956459999899,786.4111255999887,791.4298192999559,792.0566608000081,792.0566655999864,793.5734369999846,794.5907679999946,e,12,0.6268415000522509,1,+10,215,-3.3881590658771055,-0.0968153349602825,0.18267865954120865,780323.0,-25.99088319673705,0.2912681786528881,0.3069196177810447,783857.0,-0.8301041705379308,0.19464929470857006,0.03963388319959926,791018.0,786.4135304899847,782.8795304899847,793.5745304899848
46,19,21,f,1,1,38.0,0,2,high,8 + 1 + 9 + 1 - 5,14,15,13,14,821.7572167000035,823.7840168999974,825.299115700007,830.3182648000075,831.040631300013,831.0406367999967,832.5577476999606,833.5754578000051,q,15,0.7223665000055917,0,+0,215,5.378008538354946,0.17535175943179881,0.02247779542650319,819211.0,16.903168862466043,0.05163956659606761,0.10680826212643169,822745.0,-4.205446102221416,-0.2541273517365017,0.01789175398420828,953289.0,825.3015304899848,821.7675304899848,955.8455304899848
47,19,21,f,1,1,39.0,1,2,low,7 + 5 + 1 - 1 - 8,4,4,2,3,835.0927418000065,837.1201922000037,838.6352695999667,843.6544968999806,844.1925863999641,844.1925912000006,845.7094560000114,846.7269200999872,q,4,0.5380894999834709,1,+1,216,2.7959297564123844,-1.2382467604993446,-0.49801897569676656,832547.0,25.99004840611319,-0.13582860113021722,0.32774825048016165,836081.0,48.02720987401186,-0.19626194185734702,0.18296586977640716,979985.0,838.6375304899848,835.1035304899848,982.5415304899848
48,19,21,f,1,1,40.0,2,4,high,5 + 7 - 4 + 8 + 6,22,23,22,24,848.2439604999963,850.2710170999635,851.7862916999729,856.8057383999694,858.8805581000051,858.8805637999903,860.397106999997,861.4144066000008,w,22,2.074819700035732,1,+10,226,8.511664544798876,0.15244799890575766,-0.048280527974513765,845698.0,-4.647586014267947,0.19539516594902295,0.18644050773539944,849232.0,-17.399302659922558,0.3353984552793725,0.11504094897704586,857841.0,851.7885304899847,848.2545304899847,860.3975304899848
49,19,21,f,1,1,41.0,3,2,high,5 + 1 + 7 - 6 + 1,8,6,8,7,862.9311480000033,864.9572472999571,866.4725895999582,871.4907978000119,872.1285681999871,872.1285731999669,873.645194599987,874.6626344000106,w,8,0.6377703999751247,1,+10,236,-22.84776903290287,-0.5792762685494841,-0.36784340740665566,860384.0,-36.1997443798309,0.025905497431335522,0.37810308473159093,863918.0,-2.7969959123170836,0.07794554413309163,0.15310358741673102,1064936.0,866.4745304899848,862.9405304899848,1067.4925304899846
50,19,21,f,1,1,42.0,4,3,high,4 + 7 - 3 + 5 - 1,12,13,11,12,876.1798454999807,878.2064048000029,879.721711799968,884.7411281999666,887.2406478999765,887.2406533999601,888.7573806999717,889.7746266999748,e,12,2.499519700009841,1,+10,246,-12.320287455769126,0.05775670007357814,0.020535568513314617,873633.0,10.63838990759373,0.1835538365639886,0.36238004862774287,877167.0,13.370381885197348,-0.28106170135479625,0.19197473795784248,886202.0,879.7235304899848,876.1895304899848,888.7585304899848
51,19,21,f,1,1,43.0,5,3,high,5 + 1 + 7 - 8 + 6,11,9,11,13,891.2916530999937,893.315163399966,894.8300963999936,899.8492804999696,900.4005836999859,900.4005886999657,901.91720169998,902.934278599976,w,11,0.5513032000162639,1,+10,256,5.242217976478395,-0.1298667955425188,0.23226328966582677,888742.0,-24.37889872903377,0.25909665650718194,0.2886813860795401,892276.0,-58.03527917986828,0.06578576430138172,-0.01914797894839837,899361.0,894.8325304899847,891.2985304899847,901.9175304899848
52,19,21,f,1,1,44.0,6,4,low,8 + 3 - 4 + 5 + 9,21,22,21,23,904.4511175999652,906.474671599979,907.9900261999574,913.0080771999784,914.6565847999882,914.656589799968,916.1732517000056,917.1901761000044,w,21,1.648507600009907,1,+1,257,-14.470828501780694,-0.5527807195305825,-0.23270672317232077,901901.0,3.1384836906851366,0.5055029735223373,-0.004018218643135452,905435.0,-0.917322120737655,0.13271293140609997,0.02393285754164287,913617.0,907.9915304899847,904.4575304899847,916.1735304899847
53,19,21,f,1,1,45.0,7,1,low,3 + 1 + 8 + 1 + 1,14,13,14,12,918.7070024999556,920.7346606999636,922.2498166000004,927.2698099999689,927.968494599976,927.9684996999569,929.4850199999636,930.5016273999936,w,14,0.6986846000072546,1,+1,258,-10.433049867226675,0.21067048274927158,0.21058041130385008,916161.0,-10.360218569804395,0.28909865641932875,0.1082450452044117,919696.0,-42.85774065718494,0.04887660665620963,-0.1391063020554828,926929.0,922.2525304899848,918.7175304899847,929.4855304899847
54,19,21,f,1,1,46.0,8,2,low,8 + 1 + 1 + 9 - 4,15,14,15,16,932.0191693999805,934.0476189999608,935.562884099956,940.5808694000008,941.0725162999588,941.0725349999848,942.5886005999636,943.605465599976,w,15,0.4916468999581411,1,+1,259,-27.68115566962922,0.6012692430358499,0.06802617282215695,929474.0,-15.706511085559416,0.2303823079278633,0.1601721060603405,933008.0,-2.8391656274689154,0.46886153669375474,0.32254325348225876,1107024.0,935.5645304899848,932.0305304899848,1109.5805304899845
55,19,21,f,1,1,47.0,9,2,low,3 + 8 - 5 + 1 + 1,8,6,9,8,945.1223529999844,947.1466052999604,948.6620191999828,953.6801962999745,954.3285270999768,954.3285323999588,955.8450983999646,956.8624715000042,e,8,0.6483308000024408,1,+1,260,10.455999928378755,-0.27935323170692916,-0.054593997560330676,942573.0,13.455874039077965,0.02071550770821462,0.19806829269596582,946107.0,-2.5322242944559825,0.46369986888924153,-0.31545209345821146,1258615.0,948.6635304899847,945.1295304899847,1261.1715304899847
56,19,21,f,1,1,48.0,10,4,high,3 + 9 - 5 + 8 - 7,8,9,7,8,958.3792542999728,960.4053501999588,961.9206955999834,966.9395181,967.5684867000092,967.568492099992,969.0850581999983,970.1022714999854,e,8,0.6289686000091024,1,+10,270,-18.91746179252169,0.22026129576460018,0.07469336321910491,955832.0,6.183165810271831,0.06941099082516322,0.16310336564101768,959366.0,-14.618235647632119,0.1379067995249641,-0.10301209370018838,966529.0,961.9225304899848,958.3885304899848,969.0855304899848
57,19,21,f,1,1,49.0,11,2,high,3 - 1 + 9 - 5 + 1,7,5,7,6,971.61887559999,973.6437092999696,975.159230899997,980.1785010999884,981.0243707000044,981.024375899986,982.5408796999836,983.5580319999716,w,7,0.8458696000161581,1,+10,280,3.8770587335385827,-0.014878843962445654,0.12335751398028205,969070.0,29.70333776033135,-0.10057272519554905,0.22425572954295525,972605.0,-7.4435833978383386,0.04493477470427054,0.1038428547574306,1312247.0,975.1615304899848,971.6265304899848,1314.8035304899847
58,19,21,f,1,1,50.0,12,4,high,4 + 7 + 8 - 3 + 9,25,26,25,24,985.075509199989,987.101010399987,988.6162874999573,993.6366918999702,994.7043958999566,994.704400799994,996.2204682999871,997.2376892999746,w,25,1.0677039999864064,1,+10,290,-6.176414826058334,0.13234024811006861,-0.07723048617093231,982528.0,-12.49489257289046,0.07271617258713903,0.14965027254738716,986063.0,27.521972354769936,-0.20933453594807538,0.04107149117542863,993664.0,988.6195304899848,985.0845304899848,996.2205304899848
59,19,21,f,1,1,51.0,13,4,high,2 + 9 - 3 + 5 + 8,21,23,21,22,998.754426200001,1000.778195199964,1002.2934555999818,1007.3126085000112,1007.8564031999558,1007.856408199994,1009.3726661999826,1010.3896448999876,w,21,0.5437946999445558,1,+10,300,4.021909699702416,0.24858305941365577,0.04942532311821668,996205.0,-18.12578490920423,0.0168822937933073,0.2028070943714817,999739.0,56.21789318860712,0.35011892928430965,-0.0019578809100626593,1006816.0,1002.2955304899848,998.7615304899848,1009.3725304899848
60,19,21,f,1,1,52.0,14,4,high,9 + 3 - 5 + 8 + 6,21,19,21,23,1011.9065722000088,1013.9301241000068,1015.4454270999996,1020.4633918000036,1022.1764432999772,1022.1764488999617,1023.6930629999842,1024.7105213999748,w,21,1.713051499973517,1,+10,310,-1.3289164168576093,0.2790542495762742,0.09113353334702623,1009357.0,-22.54001058035732,0.12721972427800488,0.05380785593521842,1012890.0,2.2019521872069774,0.4049864192678516,0.34066310739444305,1021137.0,1015.4465304899848,1011.9135304899847,1023.6935304899847
61,19,21,f,1,1,53.0,15,4,low,2 + 9 - 4 + 8 + 7,22,22,23,21,1026.2271645999865,1028.2532541999826,1029.7685348999803,1034.7870967999916,1038.024379599956,1038.0243846999947,1039.5408018999733,1040.5577424999792,q,22,3.237282799964305,1,+1,311,4.770795575414784,0.5607772379876916,-4.131964537875973,1023680.0,-6.544398276166135,-0.5691331054437838,-0.77908917704185,1027214.0,-3.4056207372129563,-0.2712300913324954,0.23117501393147988,1036984.0,1029.7705304899846,1026.2365304899847,1039.5405304899846
62,19,21,f,1,1,54.0,16,4,high,3 + 8 - 5 + 9 - 7,8,8,7,6,1042.0745721999556,1044.1004167000065,1045.6156429999974,1050.633728099987,1051.4243492999813,1051.4243540999596,1052.9409820999715,1053.9586597000016,q,8,0.790621199994348,1,+10,321,-10.243942006178251,-0.12502739950264052,-0.0926279361804263,1039527.0,26.892183389639513,0.3769169269076298,0.096721926892263,1043060.0,5.313790575524898,0.013041336330951392,-0.12250307399673033,1050384.0,1045.6165304899846,1042.0835304899847,1052.9405304899847
63,19,21,f,1,1,55.0,17,2,high,8 + 1 + 4 - 7 + 1,7,7,5,6,1055.4761320999824,1057.5017272999976,1059.0169626999996,1064.0353785000043,1065.976286499994,1065.976293099986,1067.4928788999678,1068.5102095999755,q,7,1.9409079999895769,1,+10,331,0.8431954662174093,-0.0064771027791246105,0.07821292511188038,1052928.0,-7.660410847557484,0.16191379794901195,0.22364106895361524,1056462.0,-12.63015864756703,-0.21750490019430746,0.17362185281675901,1388247.0,1059.0185304899846,1055.4845304899848,1390.8035304899847
64,19,21,f,1,1,56.0,18,3,high,8 - 1 + 6 - 7 + 5,11,12,11,13,1070.0269620000036,1072.053254599974,1073.5685167000047,1078.5869784000097,1079.7204095000052,1079.7204146999866,1081.237005300005,1082.2541955999914,e,13,1.133431099995505,0,+0,331,-3.302544505529008,-0.10948583663874478,-0.05599158184332498,1067479.0,-36.48620594274848,0.21635867939971787,0.3828348087531315,1071013.0,32.64286242860173,-1.1116809447426141,-0.2999388527316742,1122032.0,1073.5695304899846,1070.0355304899847,1124.5885304899846
65,19,21,f,1,1,57.0,19,4,low,9 + 8 - 5 - 7 + 6,11,11,13,10,1083.770862500009,1085.796478300006,1087.3116979000042,1092.330276499968,1094.98425400001,1094.9842591999914,1096.5010366999777,1097.5182533999905,q,11,2.6539775000419468,1,+1,332,31.466098937147287,-0.13203343245827437,0.009851492570784881,1081223.0,-7.053943802432187,0.7100849186230405,0.5130040885007325,1084756.0,4.651079477911956,-0.19670661768288866,-0.8697439186191729,1093944.0,1087.3125304899847,1083.7795304899846,1096.5005304899846
66,19,21,f,1,1,58.0,20,2,low,3 + 9 - 1 - 5 + 1,7,6,5,7,1099.0352417000104,1101.0618800999946,1102.5771986999898,1107.595457999967,1108.0643633999862,1108.0643688999698,1109.5811922999565,1110.598193999962,e,7,0.468905400019139,1,+1,333,-3.520505885278147,0.8906983379288773,0.31515085358546546,1096487.0,43.03678659197132,1.541268009027164,0.9972006807926705,1100021.0,61.11753954739053,0.3610831495491449,0.047896436335876036,1402983.0,1102.5775304899846,1099.0435304899847,1405.5395304899846
67,19,21,f,1,1,59.0,21,3,high,7 + 5 + 9 + 1 - 6,16,16,15,14,1112.114682799962,1114.1410897999883,1115.6563397999853,1120.6744129,1123.072272799967,1123.072277600004,1124.5884094999635,1125.6059143999591,q,16,2.397859899967443,1,+10,343,12.705109979545583,-0.0005279353117124685,-0.009481599937769314,1109567.0,1.05581063169498,0.13881760677920107,-3.069937836937285,1113101.0,-2.940518617606486,-0.2589926366624513,0.10065003703737663,1135160.0,1115.6575304899848,1112.1235304899847,1137.7165304899847
68,19,21,f,1,1,60.0,22,3,low,7 - 5 + 9 + 1 - 4,8,7,8,9,1127.122836800001,1129.146725700004,1130.662079199974,1135.6816443999996,1136.2003021999844,1136.2003071999643,1137.7168819999788,1138.7338331000064,w,8,0.5186577999847941,1,+1,344,-5.263188273592374,-0.6100614541059906,-0.4296741749983186,1124573.0,-37.16919663565561,0.5124197504952814,0.45115256318814745,1128108.0,13.35680227706075,-0.14592940901648843,0.05516376745155238,1151136.0,1130.6645304899846,1127.1295304899847,1153.6925304899846
69,19,21,f,1,1,61.0,23,3,low,3 + 8 - 7 - 1 + 9,12,13,14,12,1140.2506964000058,1142.2744589999784,1143.7895426999894,1148.8080278999987,1152.176333100011,1152.176338499994,1153.6929799999923,1154.709847399965,e,12,3.3683052000124007,1,+1,345,14.475076290626308,-0.31454010030323865,0.004032636366413378,1137701.0,-13.68507511912441,0.2895200901060737,0.31663137314572976,1141234.0,-4.54988281702536,-0.4575909301029508,0.10986840407409026,1218079.0,1143.7905304899846,1140.2575304899847,1220.6355304899846
70,19,21,f,1,1,62.0,24,1,low,5 + 6 + 1 + 1 + 1,14,14,15,16,1156.2273963000043,1158.2531490999972,1159.7685247999616,1164.7863773999852,1165.38423039997,1165.3842355000088,1166.9005911999848,1167.9176267999574,q,14,0.5978529999847524,1,+1,346,56.15446105192175,0.4939753542752241,0.29053459077671606,1153679.0,51.5359250670601,0.059298728747960716,-0.05161947619177987,1157212.0,-28.737314230078105,-0.3381178805540763,-0.1047213636253348,1164343.0,1159.7685304899846,1156.2355304899847,1166.8995304899847
71,19,21,f,1,1,63.0,25,1,high,3 + 1 + 8 - 1 + 1,12,12,13,10,1169.4343961999984,1171.45993740001,1172.9753128999728,1177.9945481999894,1178.4642486000084,1178.4642537999898,1179.981208799989,1180.9985045999638,q,12,0.4697004000190645,1,+10,356,8.346939529289683,-0.07913504252342696,0.05004372881294339,1166886.0,-45.906514913151675,0.7564580877017901,0.4167232541181005,1170420.0,19.90855376067062,0.4178578012491152,0.0842089168698863,1177424.0,1172.9765304899847,1169.4425304899846,1179.9805304899846
72,19,21,f,1,1,64.0,26,1,low,6 + 9 + 1 + 1 - 1,16,14,16,15,1182.5153601999627,1184.541846700013,1186.057210300001,1191.07527999999,1191.8962703999714,1191.896276799962,1193.4130222999956,1194.4297717000009,w,16,0.8209903999813832,1,+1,357,2.696555367831575,0.1171779301334781,0.06193824014919436,1179968.0,31.632957623474855,0.5736357675569996,0.6016047401712219,1183501.0,-3.8778880392022756,0.24107994936636423,0.516704981928314,1190856.0,1186.0575304899846,1182.5245304899847,1193.4125304899846
73,19,21,f,1,1,65.0,27,1,high,9 + 7 + 1 + 1 + 1,19,20,18,19,1195.9468652000069,1197.9726118000108,1199.4878936999594,1204.5069674999686,1205.3441740999697,1205.3441791000078,1206.8622680999688,1207.879516099987,e,19,0.8372066000010818,1,+10,367,8.300797417433031,0.9448325754058389,1.0994021773336575,1193399.0,-12.15351385745389,0.38497641517731873,-0.3362140484971201,1196933.0,3.2460831464520474,0.14740780090606975,0.2003011371917196,1204305.0,1199.4895304899846,1195.9555304899845,1206.8615304899847
74,19,21,f,1,1,66.0,28,3,low,6 + 8 + 7 + 1 - 9,13,13,14,15,1209.3961909000063,1211.420094400004,1212.9353107999775,1217.9538575999904,1219.12015219999,1219.1201572999707,1220.6362008999567,1221.65307890001,q,13,1.1662945999996737,1,+1,368,-2.25639405616473,0.03266355405513899,-0.0802304397731679,1206846.0,47.8094479913938,-0.172292365689934,-0.19847177128027926,1210380.0,-9.719069180537728,-0.0061692566729161236,-0.24724523426810685,1271743.0,1212.9365304899848,1209.4025304899847,1274.2995304899846
75,19,21,f,1,1,67.0,29,1,high,7 - 1 + 1 + 9 - 1,15,14,13,15,1223.1705074000056,1225.1950630999636,1226.7101032999926,1231.728469099966,1233.0881816999754,1233.0881866999553,1234.604840999993,1235.6222389999891,e,15,1.359712600009516,1,+10,378,25.081741793731425,0.4500261393696805,0.1829144767756088,1220621.0,-26.067747725904407,-0.29405124445006736,0.1020675723544966,1224154.0,-53.65778902510068,0.15302732180119083,0.0792419886824578,1232048.0,1226.7105304899846,1223.1775304899847,1234.6045304899847
76,19,21,f,1,1,68.0,30,1,low,5 + 8 - 1 + 1 + 1,14,16,14,12,1237.1393892999622,1239.1666648999671,1240.6819080999703,1245.700208299968,1246.4000918999664,1246.4000970000052,1247.9161205000128,1248.932902199973,w,14,0.6998835999984294,1,+1,379,9.970607153164304,0.22547979044408661,0.003301259437112014,1234592.0,17.28914346228371,0.16894925606109767,0.2501908002557265,1238126.0,6.043025312284686,0.29173954598341245,0.27854777262900643,1245359.0,1240.6825304899846,1237.1485304899848,1247.9155304899846
77,19,21,f,1,1,69.0,31,2,low,6 + 1 + 1 + 8 - 9,7,7,5,9,1250.4497756999915,1252.4755346999737,1253.9907522999565,1259.009755200008,1259.6561179999844,1259.6561227999628,1261.1724992999807,1262.1893805,q,7,0.6463627999764867,1,+1,380,-0.5827702918141782,0.23596539611047973,0.21112600441422424,1247901.0,-26.982292957602585,-0.003112319007429587,0.11572897581622521,1251436.0,1.9816289218007288,33.784572016538476,19.620291325248633,1458374.0,1253.9925304899846,1250.4575304899847,1460.9305304899847
78,19,21,f,1,1,70.0,32,3,low,4 + 1 + 8 + 9 - 5,17,18,19,17,1263.7062266999856,1265.7335277000093,1267.249371199985,1272.2675987000111,1272.7840555000002,1272.7840605999809,1274.3004322999625,1275.3171276999635,e,17,0.5164567999891005,1,+1,381,30.521948057334278,-1.5264748509574346,-3.2421969700831923,1261159.0,-9.818553879575312,-0.17256162977277212,0.3126977009370253,1264693.0,-11.07834136218641,0.2743421200619198,3.5811474986563203,1284944.0,1267.2495304899846,1263.7155304899848,1287.5005304899846
79,19,21,f,1,1,71.0,33,3,low,2 + 9 - 3 + 4 + 1,13,13,11,14,1276.834017599991,1278.8575063999742,1280.372697099985,1285.3906048999634,1285.9841087000095,1285.9841140999924,1287.5011621000012,1288.5180071999785,q,13,0.5935038000461645,1,+1,382,-44.56157771156471,0.1423682495230132,-0.1332284479642596,1274283.0,2.331276547857053,-0.031845492108259155,0.2495699221521137,1277816.0,11.036690896897147,0.009459727715812605,-0.7439722459612943,1325639.0,1280.3725304899847,1276.8395304899846,1328.1955304899845
80,19,21,f,1,1,72.0,34,1,low,3 + 1 + 1 + 8 - 1,12,12,13,14,1290.034530600009,1292.059208299965,1293.5744359999662,1298.5929005999933,1299.0320658999844,1299.0320704999613,1300.5487391999925,1301.5657875000034,q,12,0.4391652999911457,1,+1,383,-4.185111680524784,-0.1844000336070799,-0.08346837630606663,1287485.0,-13.247191862079145,0.12197945961311518,0.11087025941030348,1291018.0,-18.193252950650013,-0.2746256802188305,0.7321068927991796,1297991.0,1293.5745304899847,1290.0415304899846,1300.5475304899846
81,19,21,f,1,1,73.0,35,2,low,5 - 1 + 1 + 8 + 9,22,21,22,23,1303.082945299975,1305.1106008999632,1306.6260255000088,1311.643818399985,1313.2881390000111,1313.288144399994,1314.8045663000084,1315.8216837999644,w,22,1.6443206000258217,1,+1,384,-0.5027684735220124,-0.01589103591373009,-0.14730455243663076,1300536.0,-36.613589067275896,-0.15808408171809551,0.09022816052951121,1304070.0,-6.2192085203984195,-0.19545636197245297,-0.017853844760671977,1484670.0,1306.6265304899846,1303.0925304899847,1487.2265304899847
82,19,21,f,1,1,74.0,36,3,high,8 - 7 + 9 + 1 + 4,15,14,15,16,1317.3381943999557,1319.364182899997,1320.8795523999725,1325.8977989999694,1326.680124800012,1326.6801299999934,1328.1967221999655,1329.214174899971,w,15,0.7823258000425994,1,+10,394,-19.314682785435366,-0.37552367575398105,0.34631946220694165,1314790.0,37.505615424619414,0.33458827336233643,0.28336040406390306,1318323.0,-31.465170558336965,-0.10627980048322128,-0.17924946341390036,1416215.0,1320.8795304899847,1317.3465304899846,1418.7715304899846
83,19,21,f,1,1,75.0,37,1,high,4 + 9 + 1 - 1 - 1,12,13,11,12,1330.7309443000122,1332.7557142999722,1334.2709278999828,1339.2892889999785,1339.848028599983,1339.8480340999668,1341.364570899983,1342.3818679999677,e,12,0.5587396000046283,1,+10,404,3.615722380995061,-0.15399229501137857,-0.6179833259277361,1328181.0,-7.976060664104946,-0.08482742512650798,0.17571558888906025,1331715.0,27.27293598721889,0.28756985233788557,0.10945280640840771,1338807.0,1334.2715304899846,1330.7375304899847,1341.3635304899847
84,19,21,f,1,2,76.0,0,1,high,2 + 1 + 9 + 1 - 1,12,12,11,13,1366.8443154999986,1368.8696845999802,1370.3849284999887,1375.4040048999595,1376.152041299967,1376.152046800009,1377.6686257999972,1378.6858995999792,q,12,0.7480364000075497,1,+10,414,-32.2858365222574,0.14551631466661297,0.037874296814678576,1364295.0,9.496200678585984,-0.2761151532685404,0.1466500034836029,1367829.0,-5.400836041886253,-0.07854550778353042,-0.017972405395815905,1375111.0,1370.3855304899846,1366.8515304899847,1377.6675304899848
85,19,21,f,1,2,77.0,1,2,low,2 + 1 + 9 - 4 + 1,9,8,11,9,1380.2026680999552,1382.2305223000003,1383.7458365999628,1388.7637483999715,1389.2879913999932,1389.2879965999746,1390.8047543999855,1391.821669899975,e,9,0.52424300002167,1,+1,415,1.6373320454922244,-1.6419137996829707,-0.04049698991107187,1377655.0,8.577581267672713,0.025064281476276484,0.1070999063420599,1381189.0,23.925839113633135,0.37499322501421384,0.1907057175935052,1524470.0,1383.7455304899847,1380.2115304899846,1527.0265304899847
86,19,21,f,1,2,78.0,2,2,high,2 + 9 + 1 + 1 - 5,8,8,6,7,1393.3384181999718,1395.363606799976,1396.878829399997,1401.8981017000042,1404.024040999997,1404.0240461999783,1405.540668600006,1406.5578572999802,q,8,2.1259392999927518,1,+10,425,8.013149473759228,-0.044874809800407256,-0.0033116253179068522,1390789.0,13.651184610543345,-0.07566495119275807,0.1302092075422503,1394323.0,-27.342123776114374,0.03672909523946721,-0.3861712449261152,1540558.0,1396.8795304899847,1393.3455304899846,1543.1145304899846
87,19,21,f,1,2,79.0,3,3,low,7 - 6 + 8 + 1 + 7,17,17,15,16,1408.075436499959,1410.1029021999566,1411.6176438999828,1416.6361654999782,1417.2560220999876,1417.256028599979,1418.772582400008,1419.7894918000093,q,17,0.6198566000093706,1,+1,426,2.5824381932773797,-0.03063836274259124,0.13803344801471074,1405528.0,15.061734825087557,0.0022373848657442075,0.4651085231802288,1409061.0,16.84764386962765,-0.05484498294629292,0.07993983859008535,1471511.0,1411.6175304899846,1408.0845304899847,1474.0675304899846
88,19,21,f,1,2,80.0,4,1,low,9 + 1 + 1 + 7 - 1,17,16,19,17,1421.3062663999735,1423.3333215999885,1424.8485826000106,1429.8686739999685,1430.6078778000085,1430.6078826999874,1432.124512200011,1433.1418456999818,e,17,0.7392038000398315,1,+1,427,-6.4065004220810255,0.07065460617265895,0.08615819235214972,1418759.0,-9.320992885695674,0.38779199661110386,-0.08499877896407426,1422294.0,10.126384691894003,0.22371713211873567,0.05893133823539576,1429566.0,1424.8505304899847,1421.3155304899847,1432.1225304899847
89,19,21,f,1,2,81.0,5,3,low,9 + 3 - 4 + 6 + 7,21,21,22,23,1434.658694199985,1436.686455499963,1438.2021370999864,1443.2207422999782,1446.1679760999978,1446.1679812999791,1447.6847141999751,1448.7020253000082,w,22,2.9472338000196032,0,+0,427,21.064597871205354,0.23546279258989689,-0.29696579464543404,1432111.0,-39.649402319451056,0.15008400300706493,0.30134026361206945,1435646.0,-40.656326497270015,0.25166902685607484,0.43795260430605265,1710908.0,1438.2025304899846,1434.6675304899848,1713.4645304899846
90,19,21,f,1,2,82.0,6,2,high,5 + 8 + 1 - 1 + 9,22,22,23,21,1450.218507499958,1452.2438211999834,1453.7591220999602,1458.7769431999768,1459.4158399999724,1459.4158451000112,1460.932379100006,1461.9495619999943,q,22,0.6388967999955639,1,+10,437,49.452665416758855,-0.19822988696977983,-0.5555622933201116,1447669.0,15.957425898156291,0.09196248327037138,0.22521558547070963,1451202.0,-1.770123071635453,-0.21494056153920127,1.0079144978292154,1627102.0,1453.7585304899847,1450.2255304899847,1629.6585304899847
91,19,21,f,1,2,83.0,7,3,low,3 + 1 + 6 - 8 + 9,11,13,12,11,1463.4664706999902,1465.4917417999825,1467.0078741000034,1472.026108899969,1472.551822600013,1472.551827599993,1474.0689971999964,1475.0865499000065,e,11,0.5257137000444345,1,+1,438,11.370040254107556,-0.5109236294490231,-0.30023525395912865,1460917.0,19.05852210261187,0.2487501117905495,0.22281209582224504,1464451.0,2.8495625578975705,-0.41692024589327836,-0.12376465445060925,1763581.0,1467.0075304899847,1463.4735304899846,1766.1375304899846
92,19,21,f,1,2,84.0,8,2,low,7 + 6 + 1 + 8 + 1,23,23,22,21,1476.6031512999907,1478.6288273999817,1480.1440705999848,1485.162578699994,1485.7119241000037,1485.7119293999858,1487.2284997999668,1488.2454113999847,q,23,0.54934540000977,1,+1,439,10.533413911284455,-0.008875925799612272,0.11851062550210023,1474054.0,-4.70689316108211,0.054535701101447565,0.08219426016857545,1477587.0,-8.218437160155538,0.11523850709460248,0.2087815513206266,1697485.0,1480.1435304899846,1476.6105304899847,1700.0415304899846
93,19,21,f,1,2,85.0,9,4,low,6 + 9 - 7 + 8 - 5,11,11,13,12,1489.7618428999558,1491.787591499975,1493.3029011999606,1498.321746199974,1498.959819499985,1498.9598247999677,1500.4763523999718,1501.4932746000122,q,11,0.638073300011456,1,+1,440,-6.769005346449465,0.1642289823345342,0.13530673878770116,1487212.0,18.26473491285912,0.40919279660458496,0.12741931434374631,1490747.0,-34.550780832560214,0.3366809892048295,0.25578116876846013,1497918.0,1493.3035304899847,1489.7685304899846,1500.4745304899845
94,19,21,f,1,2,86.0,10,4,low,5 + 9 - 4 + 7 + 6,23,23,25,24,1503.0100829000005,1505.0345701999613,1506.549800499983,1511.5684169000017,1512.119776999985,1512.1197822999677,1513.6363047999912,1514.6532172999578,q,23,0.5513600999838673,1,+1,441,-17.191116172704433,-0.47419396915246814,-0.1839770204975455,1500459.0,-3.6877748106596604,-0.4553024432413926,0.02536067619483906,1503993.0,50.13399865216396,-0.7898999270731211,0.06631101089196001,1511078.0,1506.5495304899846,1503.0155304899847,1513.6345304899846
95,19,21,f,1,2,87.0,11,2,high,2 + 1 + 9 - 4 + 1,9,8,9,11,1516.1698807000066,1518.1949346999754,1519.7103373999707,1524.7284108999884,1525.5118804000083,1525.51188559999,1527.028481699992,1528.0457930999692,w,9,0.7834695000201464,1,+10,451,-3.118511010840068,0.005568773550701955,0.9736805211707542,1513620.0,-3.3193634902958564,0.09484363881306024,-0.48716663165097174,1517153.0,16.990426113122833,0.4097943494281173,0.11586085105431176,1723965.0,1519.7095304899847,1516.1765304899845,1726.5215304899846
96,19,21,f,1,2,88.0,12,2,low,5 + 9 - 8 + 1 + 1,8,9,7,8,1529.5626614000066,1531.5881531999912,1533.1032803999842,1538.1215844000108,1541.599902899994,1541.5999085999792,1543.1164784999564,1544.1333203999675,e,8,3.4783184999832883,1,+1,452,-7.051830018197748,0.09181905032371329,0.7162703501905363,1527013.0,22.890785618331712,0.6341998878250976,-4.257476196565861,1530546.0,-10.24372463464692,0.1645459217855345,-0.12005636431633238,1776853.0,1533.1025304899847,1529.5695304899846,1779.4095304899847
97,19,21,f,1,2,89.0,13,4,high,7 + 8 - 4 + 6 - 5,12,11,13,12,1545.650770600012,1547.6764874999644,1549.191475400003,1554.2099121999927,1557.3517840999991,1557.3517898999853,1558.8685996999848,1559.8859514999783,e,12,3.141871900006663,1,+10,462,-38.800925132362394,-1.1130221665911222,-0.17359028153625888,1543101.0,-0.2186839804971008,0.35682971870508595,0.007963212420007748,1546635.0,23.502212118048547,-0.048387532939506706,-0.04058000074990953,1556310.0,1549.1915304899846,1545.6575304899848,1558.8665304899846
98,19,21,f,1,2,90.0,14,2,low,6 + 1 + 8 + 5 - 1,19,19,18,17,1561.4030151999905,1563.4271987999673,1564.9423931000056,1569.9613608999643,1573.1198058999726,1573.119811200013,1574.6363301000092,1575.653593199968,w,18,3.1584450000082143,0,+0,462,18.56674947247346,-0.05779800705868965,0.05857214192441007,1558852.0,22.53057804521911,0.2873371192292433,-0.15568978128771604,1562386.0,3.8616656746183624,-0.8965970333709787,0.1438286577808212,1890004.0,1564.9425304899846,1561.4085304899847,1892.5605304899846
99,19,21,f,1,2,91.0,15,4,low,6 + 9 + 7 - 3 - 5,14,12,14,13,1577.170105099969,1579.1958409000072,1580.711030400009,1585.7298389999778,1586.3678385000094,1586.36784359999,1587.8844181000022,1588.901407999976,w,14,0.637999500031583,1,+1,463,-53.62758464516482,-0.21057236505951238,1.2996269019946627,1574620.0,-8.245632261640036,-2.784243558614251,-7.545546610634953,1578154.0,10.469659722974917,-0.340589911294793,0.08481216883902687,1585326.0,1580.7105304899846,1577.1765304899845,1587.8825304899847
100,19,21,f,1,2,92.0,16,1,low,5 + 9 - 1 + 1 + 1,15,13,15,17,1590.41816989996,1592.4433835999807,1593.9587641999824,1598.977010099974,1599.48774089996,1599.487745899998,1601.0042403999832,1602.0213259999873,w,15,0.5107307999860495,1,+1,464,0.05956072737701312,-0.3472547378579369,0.04264978616008319,1587868.0,-0.13550956452227325,-0.4497128314433123,0.05300881738863006,1591401.0,3.0139651336724143,0.40672167795824343,0.028803734767517852,1598446.0,1593.9575304899847,1590.4245304899846,1601.0025304899846
101,19,21,f,1,2,93.0,17,3,low,8 + 4 + 1 - 7 + 9,15,15,16,13,1603.537802900013,1605.56429879996,1607.0795566999586,1612.097866999975,1614.8477194999575,1614.8477242999943,1616.3648795000045,1617.3816828000126,e,13,2.749852499982808,0,+0,464,8.822671168628911,-0.19328562951748118,0.010127838656615484,1600988.0,10.505824920172092,0.37002100922761727,0.24330750967805082,1604522.0,19.397735092766098,-0.5670977380936773,0.1549833377728398,1790685.0,1607.0785304899846,1603.5445304899847,1793.2415304899846
102,19,21,f,1,2,94.0,18,2,high,9 + 6 + 1 + 7 + 1,24,24,25,23,1618.8982012000051,1620.9242988000042,1622.4395866999985,1627.4575310999644,1628.143766299996,1628.143771699979,1629.6603780000005,1630.6778160000104,q,24,0.6862352000316605,1,+10,474,29.640474868262263,1.0302168414606014,0.4320473751024503,1616349.0,6.6800472720875375,-0.0618204190353131,0.25378778170850214,1619882.0,14.672598862409549,0.10943099216457153,-0.20389498699962538,2126261.0,1622.4385304899847,1618.9055304899846,2128.8175304899846
103,19,21,f,1,2,95.0,19,4,high,4 + 7 + 8 - 3 + 9,25,26,25,24,1632.1947617999977,1634.2220424999832,1635.737240699993,1640.755970099999,1641.607779199956,1641.6077840999933,1643.124294999987,1644.141765999957,w,25,0.8518090999568813,1,+10,484,60.34468255350418,0.7070547156493028,0.15400484919767132,1629647.0,17.364407162941276,-0.19003861134021438,0.03747407352580967,1633180.0,-18.236683519183046,0.11929947151337128,-0.052529431460063725,1640566.0,1635.7365304899847,1632.2035304899846,1643.1225304899847
104,19,21,f,1,2,96.0,20,4,high,4 + 9 - 7 + 8 + 5,19,19,20,21,1645.6587922999752,1647.682940699975,1649.198149600008,1654.216693399998,1657.1276711999672,1657.1276764000067,1658.6442779999925,1659.661577299994,q,19,2.91097779996926,1,+10,494,33.56520310246856,-0.022707622989279308,0.09469743840515665,1643107.0,-5.433460530329044,-0.1892327671610854,0.14486551074097265,1646641.0,-2.5787681000962195,0.5822047192672608,0.055278307306467545,1656086.0,1649.1975304899847,1645.6635304899846,1658.6425304899847
105,19,21,f,1,2,97.0,21,1,low,6 + 1 + 8 + 1 - 1,15,14,13,15,1661.1782970000058,1663.2060389000108,1664.7216472,1669.7396183999954,1670.2636528000005,1670.2636579999817,1671.7801927999826,1672.7969458999578,e,15,0.5240344000048935,1,+1,495,4.615847143043164,-0.25099233992513703,0.028189901435011988,1658630.0,6.200631850815867,0.02653271618455122,0.160497814725294,1662164.0,1.974873084967026,-0.5814906829235253,0.0348109153348215,1669221.0,1664.7205304899846,1661.1865304899848,1671.7775304899847
106,19,21,f,1,2,98.0,22,3,low,3 - 7 + 5 + 1 + 9,11,13,12,11,1674.3137982999906,1676.3414434999577,1677.8566939999582,1682.87460619997,1685.0637749999878,1685.06378029997,1686.5804512999605,1687.5978472999996,q,13,2.1891688000177965,0,+0,495,7.689423888325166,-0.3197823554392465,0.5777126679341464,1671766.0,31.63374047415304,0.3490481256359699,-0.8341083080848231,1675299.0,-14.83176837515623,-0.06119826591957889,-0.12032199453758752,1831629.0,1677.8555304899846,1674.3225304899847,1834.1855304899846
107,19,21,f,1,2,99.0,23,2,high,9 + 4 + 5 + 1 - 1,18,18,19,17,1689.114868399978,1691.1409580999753,1692.656172099989,1697.6740100999596,1698.5275671999552,1698.5275723999948,1700.0441813999787,1701.061361900007,q,18,0.853557099995669,1,+10,505,23.086629334825552,-0.2509636250728171,-0.12605292449418037,1686565.0,3.5202559078593403,0.4763572962193585,0.0032642809744654055,1690098.0,-2.5425200714984832,-0.04094965949130014,0.056260437021630416,2207443.0,1692.6545304899846,1689.1215304899847,2209.999530489985
108,19,21,f,1,2,100.0,24,3,low,7 - 1 + 8 - 6 + 4,12,13,11,12,1702.5780104000005,1704.6042346999748,1706.1194110999932,1711.1380138999666,1711.9515734000015,1711.9515782999806,1713.4676384999766,1714.4844837999551,e,12,0.8135595000348985,1,+1,506,-2.637467206251479,-0.606207320001749,-0.22220559076916535,1700028.0,-2.8721892508199502,0.30098139452655337,0.22302643808592215,1703562.0,-15.785689437358618,0.32977494157920884,0.11618182747683425,1942876.0,1706.1185304899846,1702.5845304899847,1945.4325304899846
109,19,21,f,1,2,101.0,25,2,high,4 + 8 + 1 + 1 - 5,9,9,11,8,1716.0014390999568,1718.0273880999885,1719.5424792999984,1724.5603985000052,1725.0075304000056,1725.0075354999865,1726.5242378999828,1727.541506199981,q,9,0.4471319000003859,1,+10,516,5.8002858075526635,-0.11708985728130461,-3.7595338295143317,1713451.0,-19.33176027696596,-0.40031674499792835,-0.0012040669265407367,1716985.0,-5.685602761042541,0.05907748339756402,0.12417175367922062,2237731.0,1719.5415304899846,1716.0075304899847,2240.287530489985
110,19,21,f,1,2,102.0,26,1,high,2 + 9 + 1 + 1 + 1,14,12,13,14,1729.0580172999762,1731.0829341000062,1732.5980564999627,1737.6170699999784,1738.2155282999738,1738.215533300012,1739.7320607999573,1740.7494072999689,e,14,0.5984582999954,1,+10,526,-17.34109326555929,0.05890877833936781,-0.11437986672617484,1726507.0,13.320330737855404,-0.16561427737216938,-0.03167778246263886,1730041.0,-6.634472089739647,-0.0690245874436961,0.2611728931573267,1737173.0,1732.5975304899846,1729.0635304899847,1739.7295304899847
111,19,21,f,1,2,103.0,27,1,low,6 + 9 + 1 + 1 - 1,16,14,15,16,1742.265653999988,1744.2933359000017,1745.8085811999626,1750.8263566999813,1751.399512199976,1751.3995173999574,1752.9161341,1753.9331825000118,e,16,0.5731554999947548,1,+1,527,-22.114034123453024,0.830457515541378,0.528132119727081,1739717.0,10.592408026456383,0.03724269959394988,0.009829634891802108,1743250.0,-14.268595485868254,-0.18065065165557925,-0.015844603947640756,1750357.0,1745.8065304899847,1742.2735304899848,1752.9135304899846
112,19,21,f,1,2,104.0,28,3,low,3 + 1 + 8 - 5 + 6,13,14,13,15,1755.4499561999692,1757.4754821999811,1758.9908042000025,1764.010151399998,1764.6236022000085,1764.62360739999,1766.140143800003,1767.157434099994,w,13,0.6134508000104688,1,+1,528,-13.446480165740931,0.7470305343758783,0.27478456638162707,1752898.0,14.913740625739512,0.6372380332040786,0.2937536038668318,1756434.0,-33.54992769533496,0.24424459197120596,0.129543680366222,2001291.0,1758.9905304899846,1755.4545304899846,2003.8475304899846
113,19,21,f,1,2,105.0,29,2,low,4 + 1 + 9 + 1 - 6,9,9,8,7,1768.673687900009,1770.7007939000032,1772.216122199956,1777.2338480000035,1777.8954828999704,1777.895487700007,1779.4119766000076,1780.4288907999871,q,9,0.6616348999668844,1,+1,529,-21.754228203475982,-0.3050895931492654,0.015903682365703498,1766125.0,7.090357566538579,-0.46116518470540235,0.3443969837950591,1769658.0,-8.763783554918165,0.37228040337692203,-0.04689189401905969,2334538.0,1772.2145304899846,1768.6815304899847,2337.0945304899847
114,19,21,f,1,2,106.0,30,3,low,7 + 1 + 9 + 5 - 6,16,14,15,16,1781.9455794999958,1783.971700199996,1785.4870124000008,1790.5057658999576,1791.7276260000071,1791.727630999987,1793.244191500009,1794.2611035999726,e,16,1.2218601000495255,1,+1,530,11.473279463556779,-0.11509167911115092,0.467697425295011,1779395.0,19.671761020000165,-0.2263519661118849,0.4899931517160463,1782929.0,-10.657674138856823,0.4666354272535975,0.028230067863100228,2015836.0,1785.4855304899847,1781.9515304899846,2018.3925304899847
115,19,21,f,1,2,107.0,31,4,low,9 + 7 - 5 + 8 + 6,25,25,27,24,1795.7780338999582,1797.8041460000095,1799.3192560999887,1804.337719300005,1805.0155271000112,1805.0155322999929,1806.5315069999776,1807.5484270000013,q,25,0.6778078000061214,1,+1,531,12.802375865415318,1.0339624474445017,0.23706072588544025,1793228.0,2.2884765591916727,0.01156694251105339,0.2342280931729801,1796761.0,-2.5810638572475586,0.067587894399737,0.2180368549207885,1803972.0,1799.3175304899846,1795.7845304899847,1806.5285304899846
116,19,21,f,1,2,108.0,32,1,high,8 - 1 + 1 + 6 + 1,15,14,16,15,1809.0654672000087,1811.0936983999563,1812.6090554000111,1817.6269535999745,1818.215581599972,1818.2155871999569,1819.7318954999791,1820.748889499984,e,15,0.5886279999976978,1,+10,541,21.266388054554895,0.43212785693869904,-0.0011671055990989387,1806517.0,23.721099348484245,-0.2675480138086801,0.12998350216100607,1810051.0,11.16525912881249,0.23009245004133128,-0.38056421703703225,1817173.0,1812.6075304899846,1809.0735304899847,1819.7295304899847
117,19,21,f,1,2,109.0,33,3,low,5 + 6 + 7 - 1 - 9,8,8,9,7,1822.26566559996,1824.289959799964,1825.8051763999972,1830.8245897999727,1832.6714946999564,1832.6715001999985,1834.188132899988,1835.2050467999647,q,8,1.8469048999832007,1,+1,542,-28.44386289903738,0.32659623758687495,0.3184029644084989,1819713.0,21.616302911802936,0.26883008706714495,0.21431357423858666,1823247.0,8.15336391368692,39.74420307293447,11.597518639902148,2082180.0,1825.8035304899847,1822.2695304899846,2084.7365304899845
118,19,21,f,1,2,110.0,34,4,high,6 + 7 + 9 - 3 + 5,24,22,23,24,1836.721884300001,1838.7463304999983,1840.2618222999736,1845.2803668999693,1848.823551999987,1848.823557099968,1850.3401480999887,1851.3577427999696,e,24,3.543185100017581,1,+10,552,-37.09659110759,0.4571946052618596,0.13434691018253453,1834170.0,-29.112553537524704,0.03525575764223188,0.11870554451473536,1837704.0,3.0901490219500403,-0.5476226314221924,0.013184149341395335,1847781.0,1840.2605304899846,1836.7265304899847,1850.3375304899846
119,19,21,f,1,2,111.0,35,4,low,3 + 8 - 4 + 9 + 7,23,23,22,24,1852.874194599979,1854.9000667000075,1856.4152662999693,1861.4362074999956,1862.255524599983,1862.255529899965,1863.772170000011,1864.789004799968,q,23,0.8193170999875292,1,+1,553,-10.116688948475765,21.287695797261474,25.877504415720882,1850323.0,17.14858495166427,0.7054987102752417,0.28453033613690515,1853859.0,13.599028145092294,-0.6319294283229633,0.015174102602216966,1861213.0,1856.4155304899846,1852.8795304899847,1863.7695304899846
120,19,21,f,1,2,112.0,36,1,low,2 + 9 + 1 + 1 + 1,14,13,12,14,1866.3058100999915,1868.3314283000072,1869.8468744999848,1874.8648347999551,1875.935448299977,1875.935453199956,1877.451767499966,1878.4688764999737,e,14,1.0706135000218635,1,+1,554,-17.993151076126317,-0.5744632007326,0.24401364403723358,1863755.0,30.496912141781436,0.41918972188082737,-3.223062301445103,1867288.0,-39.290940797774574,-0.02900503883987149,0.11598940432891336,1874892.0,1869.8445304899847,1866.3115304899848,1877.4485304899847
121,19,21,f,1,2,113.0,37,2,high,7 + 6 + 1 - 1 - 8,5,5,4,3,1879.9855147000053,1882.0123227000004,1883.5276480999887,1888.546715400007,1891.0473858999903,1891.047391099972,1892.5635795999551,1893.580698899983,q,5,2.500670499983244,1,+10,564,18.676635122796668,-0.007896893270796568,-0.09212738924184727,1877436.0,25.485074054708328,-0.48452026128482917,0.2193344480743742,1880969.0,-8.982793287386375,0.3830906351116199,-0.29890490313230345,2347627.0,1883.5255304899847,1879.9925304899846,2350.1835304899846
122,19,21,f,1,3,114.0,0,4,high,7 + 6 - 9 + 8 - 3,9,7,9,8,1917.5471110999931,1919.5739291000064,1921.0892436999711,1926.108057799982,1927.0872917000088,1927.0872968999904,1928.603747699992,1929.6210007999907,w,9,0.979233900026884,1,+10,574,-21.555153398037568,0.13454193766431333,-0.3356564214662803,1914997.0,-11.83615466689556,0.02740616591915801,0.5132896319678062,1918531.0,-22.60463219593088,0.14456677619591662,0.09518773325963403,1926044.0,1921.0875304899846,1917.5535304899847,1928.6005304899847
123,19,21,f,1,3,115.0,1,3,high,9 - 5 - 1 - 6 + 8,5,4,7,5,1931.1378252999857,1933.1627052999684,1934.677924199961,1939.6957377999788,1943.9192926000103,1943.919299000001,1945.436078300001,1946.4530052999617,e,5,4.223554800031707,1,+10,584,-5.078866209106046,-0.09360614899324204,-0.03783948094630896,1928586.0,-11.424832361338087,0.025310160736316867,0.13723709077545365,1932119.0,41.14326256386792,0.13879405092216457,0.027362343674160794,2140700.0,1934.6755304899846,1931.1425304899847,2143.2565304899845
124,19,21,f,1,3,116.0,2,4,low,5 + 6 - 4 + 7 + 9,23,25,24,23,1947.969739299966,1949.995169300004,1951.5103344999952,1956.5302056999644,1957.1673320999837,1957.1673370999636,1958.683790899988,1959.700722599984,e,23,0.6371264000190422,1,+1,585,-2.6808115068348854,0.11932162444317207,-0.019250781572406783,1945418.0,-54.3813169940794,0.2478955798413769,-1.4973955681428912,1948953.0,-23.301863846946702,0.2623645832382042,0.062160707315547015,1956124.0,1951.5095304899846,1947.9745304899845,1958.6805304899847
125,19,21,f,1,3,117.0,3,4,high,8 + 4 + 7 - 5 - 6,8,9,8,7,1961.2177927999876,1963.2455395999716,1964.7607377999807,1969.7792433999712,1971.7993372000053,1971.799342499988,1973.3157824999653,1974.3337925999656,w,8,2.020093800034374,1,+10,595,12.519002184271823,0.44100648806073695,-0.08088863059956597,1958669.0,-30.714957426996907,-0.13726201198620203,0.0632937360170549,1962202.0,0.5494570208667664,1.1663744074717455,0.19070906972067858,1970756.0,1964.7585304899847,1961.2255304899847,1973.3125304899847
126,19,21,f,1,3,118.0,4,3,high,3 + 8 - 7 + 1 + 9,14,13,14,12,1975.8505190999715,1977.8742631999776,1979.3891744999564,1984.4076438999616,1985.4712376999669,1985.471242400003,1986.9878376999984,1988.0057073999776,q,13,1.0635938000050371,0,+0,595,1.7441786421740542,-0.009941553480325549,-0.13225912853453203,1973297.0,26.91733207283889,-0.006403310088575864,0.03977000758829252,1976831.0,11.132156225579804,-5.359849859546988,-5.8387975984037945,2153875.0,1979.3875304899846,1975.8535304899847,2156.4315304899847
127,19,21,f,1,3,119.0,5,3,high,8 + 6 - 7 + 1 - 4,4,4,5,3,1989.5226515000104,1991.5474682999773,1993.062742899987,1998.0810249999631,2002.3352790999925,2002.335284199973,2003.851301399991,2004.8687220999852,q,4,4.254254100029357,1,+10,605,-16.28616368308748,0.047607931130878356,0.02659374355365207,1986970.0,19.302756238147122,0.18459335958829026,0.06337715838925129,1990504.0,0.8241240955729374,-0.3436912540962709,0.007903904804071438,2223699.0,1993.0605304899846,1989.5265304899847,2226.2555304899847
128,19,21,f,1,3,120.0,6,3,high,4 + 7 + 1 + 9 - 5,16,16,17,18,2006.385726799956,2008.408597200003,2009.9243544999624,2014.9443960000065,2016.879206199956,2016.8792112999945,2018.3957968999748,2019.4131947999704,q,16,1.9348101999494247,1,+10,615,-16.935906590836577,-0.17151292634415682,-0.09132435254692939,2003832.0,3.508559269316123,0.21461637897075425,0.18733840889444986,2007367.0,11.501800828056002,-0.11333871164491116,0.18455561087792205,2362938.0,2009.9235304899846,2006.3885304899848,2365.4945304899848
129,19,21,f,1,3,121.0,7,4,low,8 + 4 - 5 + 7 - 6,8,8,7,6,2020.9297121000127,2022.956386999984,2024.4716219999827,2029.4908813000077,2030.2632316999952,2030.263236799976,2031.7794132999843,2032.7963260000104,q,8,0.7723503999877721,1,+1,616,29.492101350845438,-0.4028959719134142,-0.1522995221691652,2018379.0,-36.4935682275576,-0.3377035832171895,-4.9693925114449895,2021913.0,-79.47828952630793,0.4480869788337061,-0.01666837642167396,2029219.0,2024.4695304899847,2020.9355304899846,2031.7755304899847
130,19,21,f,1,3,122.0,8,1,high,7 + 1 + 6 + 1 + 1,16,17,18,16,2034.31305539998,2036.341167400009,2037.8562423000112,2042.8741947999808,2043.607313899964,2043.6073191000032,2045.1239047999843,2046.141173299984,w,18,0.7331190999830142,0,+0,616,-7.227468603930131,-0.08741675168778196,0.18501826559818424,2031764.0,-0.49129858152582295,-0.03317804727317508,0.027229217388705873,2035297.0,-14.754020734945193,-0.2065615275997601,0.20092130231879457,2069011.0,2037.8535304899847,2034.3205304899845,2071.5675304899846
131,19,21,f,1,3,123.0,9,4,high,3 + 9 - 4 + 7 + 6,21,20,19,21,2047.658055600012,2049.6813552000094,2051.1966129000066,2056.2153643000056,2056.9032203999814,2056.9032256999635,2058.4200248999987,2059.4373052999726,e,21,0.687856099975761,1,+10,626,0.024857004608630717,-0.05410141595227991,0.20630486914439072,2045105.0,4.989969899882092,0.25322882095064747,-0.09876644201883367,2048638.0,-19.569455866472794,0.20064307540258097,0.08034081976105667,2055860.0,2051.1945304899846,2047.6615304899847,2058.416530489985
132,19,21,f,1,3,124.0,10,1,low,9 + 8 + 1 + 1 - 1,18,18,20,17,2060.9549451000057,2062.9822813000064,2064.4971868,2069.5151336999843,2070.0552020999603,2070.0552073,2071.572019199957,2072.588887699996,q,18,0.5400683999760076,1,+1,627,-21.616830652753613,-0.003508861170319122,0.016851416455438084,2058405.0,-0.8987092511901622,0.17739923598023832,0.19335655167351828,2061938.0,-28.381639088029967,0.07065600110720194,0.017981640226719664,2110699.0,2064.4945304899848,2060.961530489985,2113.2555304899847
133,19,21,f,1,3,125.0,11,3,high,5 - 1 - 4 + 6 + 7,13,13,15,14,2074.105351699982,2076.1335562999598,2077.648820100003,2082.667296200001,2083.2231612000032,2083.223166199983,2084.739830799983,2085.756898999971,q,13,0.5558650000020862,1,+10,637,-19.806047859668364,0.1378154313697708,-0.05715739959235444,2071556.0,19.745156830986645,0.24542379600646536,0.1471670926768469,2075090.0,17.268138825326577,0.044034655566457914,0.029784411042098835,2376129.0,2077.646530489985,2074.1125304899847,2378.6855304899846
134,19,21,f,1,3,126.0,12,4,high,2 + 5 - 3 + 9 + 8,21,22,19,21,2087.273966799956,2089.297181700007,2090.8126174999634,2095.830979199964,2098.503260299971,2098.5032654000097,2100.0197445999947,2101.036817899964,e,21,2.67228110000724,1,+10,647,22.972358100248332,-0.3161580137468576,-0.3263895498479483,2084720.0,-20.833994840183735,0.09859558296998028,0.05200669728941976,2088253.0,-34.90494377631285,0.10360736343785337,-0.0220962029979761,2097460.0,2090.809530489985,2087.2765304899845,2100.0165304899847
135,19,21,f,1,3,127.0,13,1,low,8 + 1 + 1 - 1 - 4,5,6,5,3,2102.5535531999776,2104.576780100004,2106.0921750999987,2111.110009299998,2111.743158600002,2111.743163599982,2113.2597329999558,2114.2766855999944,w,5,0.6331493000034243,1,+1,648,5.215119485756402,-0.29142523046802316,0.8123021655531266,2099999.0,-14.154694417853399,0.02961055288881509,0.07724680765254188,2103533.0,-17.076541185548933,0.5744236843872321,7.379073009489982,2167939.0,2106.0895304899846,2102.5555304899844,2170.4955304899845
136,19,21,f,1,3,128.0,14,2,high,7 + 8 + 1 + 9 + 1,26,26,25,24,2115.7933981000097,2117.821552899957,2119.3367401,2124.3548723999997,2127.3031311999657,2127.303136100003,2128.819715199992,2129.839120199962,q,26,2.9482587999664247,1,+10,658,-14.54809635680061,0.2874185292465645,0.162920552063768,2113244.0,9.642934319353794,0.14559415573333867,0.1312830521990227,2116777.0,-40.92132474459939,0.02596060814741019,-0.0338992639946154,2636025.0,2119.3335304899847,2115.800530489985,2638.5815304899847
137,19,21,f,1,3,129.0,15,3,high,9 - 1 + 5 - 6 + 8,15,15,17,14,2131.3558892,2133.3816923999693,2134.8969166000024,2139.915035199956,2141.743244000012,2141.743249899999,2143.2602000999614,2144.277793199988,q,15,1.828208800056018,1,+10,668,-4.31344649115152,0.05582736361586704,-0.14717978576662016,2128804.0,-18.57730064971301,-0.10286992680530327,0.09284952108166711,2132337.0,3.5457487436465964,0.5319438469626445,-0.17399240412854544,2416011.0,2134.8935304899846,2131.3605304899847,2418.5675304899846
138,19,21,f,1,3,130.0,16,3,low,5 + 6 - 4 - 1 + 8,14,15,14,16,2145.7947874999954,2147.818535499973,2149.333909499983,2154.35207199998,2154.919157999975,2154.91916359996,2156.435835799959,2157.453084799985,w,14,0.56708599999547,1,+1,669,-10.480273308168224,0.28638603809643026,-0.06164204112031868,2143241.0,15.501171617836972,-0.35553748806142726,0.09933492837070634,2146774.0,20.126217769872017,0.08866033814437779,-0.2385968516970931,2429057.0,2149.3305304899845,2145.7975304899846,2431.6135304899844
139,19,21,f,1,3,131.0,17,1,low,7 - 1 + 9 + 1 - 1,15,13,14,15,2158.9698975000065,2160.997386700008,2162.513104499958,2167.531235200004,2168.983122400008,2168.9831274999888,2170.499585599988,2171.5162778999656,e,15,1.4518872000044212,1,+1,670,-46.915135946628176,-0.16652209525185446,0.1803306189403835,2156420.0,9.135705005847441,-0.027302976598995166,-0.1803859242341399,2159954.0,14.397117831737761,0.17231990263161245,-4.813164205440472,2181098.0,2162.510530489985,2158.9765304899847,2183.6545304899846
140,19,21,f,1,3,132.0,18,1,low,5 + 1 + 1 + 9 + 1,17,19,17,16,2173.0330925000017,2175.0571264000027,2176.5727505999967,2181.5902795,2182.143076599983,2182.143081099959,2183.6593951999675,2184.675899299968,w,17,0.552797099982854,1,+1,671,-0.9994249210026069,-0.054734226745505765,-0.9501398803098424,2170480.0,-3.455799765663331,0.2034008426336218,0.18368227497448597,2174013.0,12.523205084619178,0.47030604848841984,0.08885317641094748,2194251.0,2176.5695304899846,2173.0365304899847,2196.807530489985
141,19,21,f,1,3,133.0,19,1,low,6 + 9 + 1 + 1 - 1,16,14,16,15,2186.192787499982,2188.217676099972,2189.732351799961,2194.750134399976,2195.295092799992,2195.295097999973,2196.811698400008,2197.828578899964,w,16,0.5449584000161849,1,+1,672,-29.63536244087699,0.14410524127629776,0.060886918319639216,2183640.0,-35.19510850359279,0.5129561660827697,0.3235803360614322,2187172.0,26.499775290567385,-0.28291684741995615,0.4540057567167777,2278778.0,2189.7285304899847,2186.1965304899845,2281.3345304899844
142,19,21,f,1,3,134.0,20,2,high,3 + 8 + 1 - 5 + 1,8,9,8,6,2199.3455287999823,2201.3707194000017,2202.886770599988,2207.906209299981,2208.487083099957,2208.487089400005,2210.0037328999606,2211.0211535000126,w,8,0.5808737999759614,1,+10,682,1.9529903723959414,-0.014627794460619015,0.13675162626920412,2196793.0,9.85592547115243,0.3161434437753132,0.13241584615299185,2200328.0,-4.550469194031802,1.4057567853312642,1.8809524664622694,2735823.0,2202.8845304899846,2199.3495304899848,2738.3795304899845
143,19,21,f,1,3,135.0,21,3,low,6 - 1 + 7 - 8 + 9,13,12,13,11,2212.537870500004,2214.5645243999898,2216.0800210000016,2221.098589400004,2224.743053899961,2224.743059300002,2226.2598432999803,2227.276813899982,w,13,3.644464499957394,1,+1,683,0.20209624707829832,-0.25165749515741,-0.40946901574834627,2209986.0,8.839300723524003,-0.11860378434744367,-0.06481533749587243,2213521.0,2.7831217309714233,0.01720639935958257,-0.15444894223138395,2442241.0,2216.077530489985,2212.5425304899845,2444.7975304899846
144,19,21,f,1,3,136.0,22,2,high,4 + 8 + 1 + 1 - 6,8,8,9,7,2228.7937130999635,2230.8183556000004,2232.3333271999727,2237.3515464999946,2238.775085399975,2238.7750905999565,2240.291885099956,2241.30919369997,q,8,1.4235388999804854,1,+10,693,2.7512469612219803,-0.4832179110670243,-0.11566311536741636,2226240.0,31.713741248371456,-0.17939235483950622,0.22415286303429371,2229773.0,12.658860204717582,-0.14753158055787008,0.5481370200337157,2779256.0,2232.329530489985,2228.7965304899844,2781.8125304899845
145,19,21,f,1,3,137.0,23,4,high,7 + 8 - 4 + 6 + 5,22,21,22,23,2242.826000600005,2244.851190699963,2246.3659209999605,2251.384601800004,2252.1989633999765,2252.198968499957,2253.715633399959,2254.733090900001,w,22,0.8143615999724716,1,+10,703,3.0529891798450066,-0.1189918854090748,0.14950433120079554,2240273.0,24.069267253804092,0.17995377162302217,0.1323974458776498,2243806.0,19.444689770685013,-0.17634131829973976,0.25844985073129667,2251155.0,2246.3625304899847,2242.829530489985,2253.711530489985
146,19,21,f,1,3,138.0,24,4,low,5 + 7 - 4 - 6 + 9,11,11,12,13,2256.2498793000123,2258.2771091999603,2259.792451699963,2264.8110168999992,2266.710991900007,2266.710996799986,2268.227155199973,2269.2441492999787,q,11,1.899975000007544,1,+1,704,-60.38577518704152,0.6113050242161142,0.2734134356540283,2253699.0,-46.16192303901021,0.038688796962663474,-0.1914807672182075,2257233.0,14.961962276938262,0.15004615106179564,0.21601125035370594,2265666.0,2259.789530489985,2256.2555304899847,2268.222530489985
147,19,21,f,1,3,139.0,25,1,low,6 + 1 + 1 + 9 - 1,16,15,14,16,2270.761129999999,2272.7869665999897,2274.3021345000016,2279.3198691,2279.823012799956,2279.8230178999947,2281.339578699961,2282.356487299956,e,16,0.5031436999561265,1,+1,705,21.893869774894007,-0.05715462077339639,-0.0716864867583964,2268209.0,0.6998365884306814,-0.04693109153959174,0.008377433531627343,2271742.0,-7.33860643430614,-0.028257276352895655,-0.06110528714110175,2291922.0,2274.298530489985,2270.7655304899845,2294.4785304899847
148,19,21,f,1,3,140.0,26,1,low,7 + 1 + 4 + 1 - 1,12,11,12,13,2283.8743116999976,2285.8995566999656,2287.4148328999872,2292.432970999973,2292.966977000004,2292.9669820999843,2294.483412300004,2295.50010070001,w,12,0.5340060000307858,1,+1,706,1.09472186968965,-0.3012501008262718,0.06658139528574858,2281321.0,25.439675592518405,0.22547238510228018,-0.005477498452329144,2284855.0,10.917437598449435,-0.21328931459986267,0.1546583557624137,2321402.0,2287.4115304899847,2283.8775304899846,2323.9585304899847
149,19,21,f,1,3,141.0,27,4,low,7 + 6 + 8 - 4 + 5,22,21,23,22,2297.01681880001,2299.043523999979,2300.558455599996,2305.576882399968,2309.094978499983,2309.0949836999644,2310.611304199964,2311.628214199969,w,23,3.5180961000151,0,+0,706,-15.81228912385686,-0.4929526689918031,-0.13283082362616883,2294465.0,2.362573323713084,-0.07081571623488214,0.022955747667137816,2297999.0,8.429449710742034,0.20956369906456818,0.06198358255191483,2389578.0,2300.5555304899844,2297.021530489985,2392.1345304899846
150,19,21,f,1,3,142.0,28,1,low,7 + 1 + 4 + 1 - 1,12,12,13,14,2313.144666099979,2315.1708523000125,2316.686086400005,2321.7046537999995,2322.4469701999915,2322.4469750999706,2323.9637033999898,2324.9807168999687,q,12,0.742316399991978,1,+1,707,41.92144955407013,0.06976068858428741,0.11511269911870858,2310592.0,6.4713966749079255,-42.711858435943434,-36.53510898058919,2314126.0,20.99140478622288,0.014578827782372183,-0.15192141042892526,2402762.0,2316.682530489985,2313.1485304899848,2405.318530489985
151,19,21,f,1,3,143.0,29,2,low,8 + 1 + 7 + 1 - 4,13,13,12,14,2326.4974291999824,2328.524148299999,2330.039496099984,2335.058035599999,2335.582882699964,2335.582887900004,2337.0993089000112,2338.116102800006,q,13,0.5248470999649726,1,+1,708,-13.022112566244319,-0.22616051136497584,-0.3721550831151701,2323945.0,2.0064524910500463,0.41450847192803675,0.1954618748797019,2327480.0,-15.101039887880635,-0.025615521273910424,0.07460692100905231,2845144.0,2330.0365304899847,2326.501530489985,2847.7005304899844
152,19,21,f,1,3,144.0,30,2,low,8 + 1 + 9 + 1 - 4,15,14,15,16,2339.6331550999894,2341.656954800012,2343.172157599998,2348.190462599974,2348.67097789998,2348.6709827999584,2350.188568099984,2351.205331299978,w,15,0.4805153000052087,1,+1,709,12.20499125122089,-0.2899046976584616,0.8119023137799868,2337078.0,8.642091631868578,-0.335162901980818,0.02347112699783027,2340612.0,-19.865926819412746,-0.9479064970027831,0.08929327483004723,2884463.0,2343.1685304899847,2339.6345304899846,2887.019530489985
153,19,21,f,1,3,145.0,31,3,high,8 + 5 + 1 - 7 + 9,16,17,16,14,2352.7225820999597,2354.7485821999726,2356.2636688000057,2361.281839100004,2363.982968199998,2363.982973599981,2365.499691799981,2366.516938799992,w,16,2.701129099994432,1,+10,719,35.28560090594385,-0.081500283803146,-0.12210518871724285,2350170.0,4.5813065881258,0.25782949517541187,0.22469943546561222,2353703.0,15.431208839068898,0.3161444202451076,0.0849430380786913,2622320.0,2356.2595304899846,2352.7265304899847,2624.876530489985
154,19,21,f,1,3,146.0,32,3,low,5 + 6 - 4 - 1 + 7,13,13,15,14,2368.034821100009,2370.0596485999995,2371.575341699994,2376.593785099976,2377.174851699965,2377.1748569000047,2378.6913046999834,2379.7084342999733,q,13,0.5810665999888442,1,+1,720,6.048640807682251,0.16923473850773707,-0.3327820353662543,2365481.0,32.2513754691458,0.14327959332291407,0.12921937900893532,2369015.0,25.320383192975807,0.3402106085718861,0.25195971920950666,2649297.0,2371.5715304899845,2368.037530489985,2651.8535304899847
155,19,21,f,1,3,147.0,33,4,low,7 + 6 - 9 + 8 - 3,9,9,8,7,2381.2256380000035,2383.252773799992,2384.768151699973,2389.786556400009,2390.622976099956,2390.622981099994,2392.139708700008,2393.156531699992,q,9,0.8364196999464184,1,+1,721,-25.335654435362002,-0.6002946542974863,0.3191759976038413,2378674.0,7.7364878974783675,0.06403175945380912,0.1712048141906739,2382208.0,-62.55173639888951,0.2666099605235739,0.11079902044458101,2528105.0,2384.7645304899847,2381.2305304899846,2530.6615304899847
156,19,21,f,1,3,148.0,34,1,high,8 + 1 + 1 + 1 - 3,8,6,9,8,2394.6733095999807,2396.700972899969,2398.216213100008,2403.2342478999635,2403.80677179998,2403.8067766999598,2405.323295899958,2406.340336399968,e,8,0.5725239000166766,1,+10,731,9.908106199826335,-0.14965027100738526,0.23175028636193407,2392122.0,-11.03101852488118,0.37289672739194835,-4.051336359857098,2395656.0,3.69538746307955,0.08332376214705262,-0.2623155929099361,2474217.0,2398.2125304899846,2394.6785304899845,2476.7735304899848
157,19,21,f,1,3,149.0,35,3,high,2 + 1 + 9 - 4 + 6,14,16,15,14,2407.8580637999694,2409.8811948999646,2411.3963574999943,2416.414809299982,2417.054855800001,2417.0548609999823,2418.5720595999737,2419.589654899959,e,14,0.6400465000187978,1,+10,741,-35.41314251537301,-0.07051496018154291,0.2656643081631893,2405302.0,-70.39671062099472,-0.1736100635310578,-0.10249992802986041,2408836.0,22.934237656892932,-0.5569136954787348,0.07417606672672994,2677152.0,2411.3925304899844,2407.858530489985,2679.7085304899847
158,19,21,f,1,3,150.0,36,3,high,2 + 1 + 9 - 5 + 6,13,11,13,14,2421.106339099992,2423.1308906999766,2424.6461913000094,2429.6644111999776,2430.102775999985,2430.102780999965,2431.618782699981,2432.6359620000003,w,13,0.4383648000075482,1,+10,751,-65.7103130082851,0.39480879256887125,0.16449820183493236,2418552.0,4.572718577837003,0.2067854599398249,-0.1694651908766871,2422086.0,6.547984471656986,-0.6627730319334302,-0.3035446225023648,2691953.0,2424.6425304899844,2421.108530489985,2694.5095304899846
159,19,21,f,1,3,151.0,37,3,high,2 + 9 + 1 - 5 + 7,14,12,14,15,2434.153036499978,2436.180052999989,2437.695059099992,2442.713535099989,2443.286711599969,2443.2867164000054,2444.8031963999965,2445.820481800009,w,14,0.5731764999800362,1,+10,761,17.215847734850236,-0.3191719464036775,-0.06726803672568504,2431601.0,0.8516750113266198,0.013722481286795762,0.1161288163643821,2435135.0,1.7286489370673195,-0.317773943508568,0.23814271456614566,2792352.0,2437.691530489985,2434.1575304899848,2794.9085304899845
160,19,21,f,1,4,152.0,0,1,high,2 + 1 + 1 + 9 - 1,12,11,13,12,2466.098885899992,2468.1246180000016,2469.6398035999737,2474.6591121999663,2475.2627263999893,2475.26273149997,2476.778713500011,2477.795994399989,e,12,0.6036142000230029,1,+10,771,10.969796145337881,-0.2250372852833249,-0.3313124256424733,2463545.0,25.581146459334654,0.4164665094686555,0.34230883070180185,2467080.0,50.48946960902047,0.30334436224560646,0.37490274257800094,2487314.0,2469.6365304899846,2466.1015304899847,2489.8705304899845
161,19,21,f,1,4,153.0,1,1,high,8 + 1 + 4 + 1 + 1,15,16,15,14,2479.3126585999853,2481.338362599956,2482.8537059999653,2487.871788199991,2488.358778599999,2488.3587837999803,2489.8753461999586,2490.893367899989,w,15,0.4869904000079259,1,+10,781,0.2676065633707019,0.21900585351606816,0.21425634565498264,2476759.0,-52.37575581751294,0.21924416748551767,0.47102349470101657,2480293.0,-11.357035407900414,0.25840862418486177,-0.07852829993509447,2501001.0,2482.8495304899848,2479.3155304899847,2503.557530489985
162,19,21,f,1,4,154.0,2,1,high,2 + 1 + 9 + 1 + 1,14,12,13,14,2492.4102344999555,2494.436771399982,2495.9520231999923,2500.9699528999627,2502.046713399992,2502.046718599973,2503.5633203999605,2504.580578299996,e,14,1.076760500029195,1,+10,791,-13.989889245302363,-0.36592559461806395,-0.5855758965385032,2489858.0,0.7494042035917126,0.5174499965370534,-0.06330035455498595,2493391.0,7.322337198567808,-0.18958020414281984,0.04396280737925795,2514145.0,2495.9475304899847,2492.414530489985,2516.7015304899846
163,19,21,f,1,4,155.0,3,1,high,9 + 8 + 1 + 1 - 1,18,19,18,17,2506.0972215000074,2508.1235418999568,2509.638826999988,2514.6577757999767,2515.19069769996,2515.190702699998,2516.706929499982,2517.72417479998,w,18,0.5329218999831937,1,+10,801,-5.565662751215626,0.250213989148071,0.05406975574253847,2503544.0,14.325351974627745,0.04094420819109468,0.16178903191842098,2507078.0,19.07011560654678,0.40460767284576127,0.11264977832421685,2555225.0,2509.6345304899846,2506.1005304899845,2557.7815304899846
164,19,21,f,1,4,156.0,4,4,high,5 + 8 - 6 + 7 + 4,18,19,17,18,2519.240896500007,2521.2669415000128,2522.7822301000124,2527.8009312999784,2529.1507608999964,2529.1507662999798,2530.6673215999617,2531.684622999979,e,18,1.3498296000179837,1,+10,811,4.491913507436818,-0.35650482540691986,-0.013293039945210916,2516688.0,22.63865041981485,0.3894969316720909,0.11133521187057283,2520222.0,-11.58060365132537,-0.06869728413248222,0.08148114243168969,2541985.0,2522.778530489985,2519.2445304899848,2544.541530489985
165,19,21,f,1,4,157.0,5,4,high,6 + 9 + 7 - 3 - 5,14,15,13,14,2533.2022037999704,2535.2292382000014,2536.7440225000028,2541.7625528000062,2543.0306924000038,2543.030697499984,2544.547096800001,2545.5643694999744,e,14,1.2681395999970846,1,+10,821,19.879280138685246,0.06563713664726611,-0.01036357014921574,2530650.0,16.24189320620288,0.01654546961519099,0.0015204236904384771,2534183.0,-12.898522622747272,0.6396272105618848,0.3816678089223955,2595344.0,2536.7395304899846,2533.2065304899847,2597.9005304899847
166,19,21,f,1,4,158.0,6,1,high,2 + 1 + 9 + 1 - 1,12,12,11,13,2547.0809518999886,2549.1078116999706,2550.6229794999817,2555.640782799979,2556.270684499992,2556.270689499972,2557.787368799967,2558.804596700007,q,12,0.6299017000128515,1,+10,831,17.35685868961391,-0.04122749044423868,-0.12104718345344967,2544528.0,-2.4759436132230803,0.5001174438655154,0.06908925916704112,2548062.0,5.871747673645954,-0.24230989798423863,0.06782696315289982,2568481.0,2550.6185304899846,2547.0845304899844,2571.037530489985
167,19,21,f,1,4,159.0,7,1,high,4 + 8 + 1 - 1 - 1,11,11,9,13,2560.321194099961,2562.347697399964,2563.8628154000035,2568.880885499995,2569.526694400003,2569.526699799986,2571.043008700013,2572.06029210001,q,11,0.6458089000079781,1,+10,841,47.856847079220515,0.03841431199404832,-0.20883149459914563,2557768.0,-17.030258621249494,-1.0709467674850885,-5.987170971163252,2561301.0,15.29134641854112,0.6420929012491867,-0.009645125482889316,2581737.0,2563.8575304899846,2560.3245304899847,2584.2935304899847
168,19,21,f,1,4,160.0,8,1,high,3 + 1 + 1 + 9 - 1,13,13,12,14,2573.5770843999926,2575.6040797999594,2577.1192952999845,2582.137791899964,2582.7826787999948,2582.782684099977,2584.299211699981,2585.3164033999783,q,13,0.6448869000305422,1,+10,851,-22.501797949251113,-0.054338871614504125,-0.13347494241143498,2571025.0,13.838700624273091,-1.159732635883048,-0.39577410188162787,2574558.0,32.709210383755405,0.6299911851596951,-0.0037882568563141206,2722513.0,2577.1145304899846,2573.5815304899847,2725.0695304899846
169,19,21,f,1,4,161.0,9,4,low,4 + 7 - 8 + 9 - 4,8,9,8,7,2586.832989599963,2588.860977099976,2590.376207699999,2595.394918099977,2596.3906147999805,2596.390619899961,2597.9072674000054,2598.924011199968,w,8,0.9956967000034638,1,+1,852,-35.48846760735988,0.07616375473253134,-0.04020603838268011,2584281.0,16.28798940871016,0.10950273130698696,0.1606246522978798,2587815.0,1.1326318646760054,0.0831145158969071,0.024078816573221307,2663968.0,2590.3715304899847,2586.8375304899846,2666.5245304899845
170,19,21,f,1,4,162.0,10,4,low,6 + 5 - 7 + 8 - 9,3,5,4,3,2600.4406613999745,2602.4631612999947,2603.978362799972,2608.996797900006,2610.238574599964,2610.238579800003,2611.755078499962,2612.7721704999567,q,5,1.2417766999569722,0,+0,852,4.281172119159424,-0.11749225357629722,-0.24734824157969237,2597884.0,-36.67383881048447,0.5138557582589929,-0.07637514648322874,2601417.0,6.782874985279926,-1.7159739350919478,-1.1226254005848837,2749056.0,2603.9735304899846,2600.4405304899847,2751.6125304899847
171,19,21,f,1,4,163.0,11,3,low,5 + 7 + 1 - 4 + 6,15,13,15,17,2614.289018100011,2616.3171269999584,2617.832220099983,2622.850719999988,2623.366569900012,2623.3665745999897,2624.8830173999886,2625.8999076999607,w,15,0.5158499000244774,1,+1,853,34.65394305140576,-0.3564027533430627,0.6235590017631252,2611738.0,16.461254107953987,0.4697531434904989,-0.01180274095204048,2615271.0,-12.865935616466107,0.3898958916637172,5.0865728997704585,2805383.0,2617.827530489985,2614.2945304899845,2807.9395304899845
172,19,21,f,1,4,164.0,12,2,high,7 + 5 + 1 + 9 + 1,23,21,22,23,2627.416749299969,2629.4423586999765,2630.957629999961,2635.976766799984,2637.0705036,2637.07050859998,2638.5871329999645,2639.604472999985,e,23,1.093736800015904,1,+10,863,2.5698848651831963,0.3074229742918093,0.09415730583110293,2624862.0,14.37515129379633,0.025840310006733702,-0.013717725183702179,2628397.0,7.44315855651361,22.122402887778563,22.06458312451467,2898127.0,2630.9535304899846,2627.4185304899847,2900.6835304899846
173,19,21,f,1,4,165.0,13,3,low,8 + 3 + 1 - 7 + 9,14,15,12,14,2641.121425399964,2643.1478080999805,2644.663296099985,2649.6834238999872,2650.342579499993,2650.3425849999767,2651.8595996999647,2652.8764683000045,e,14,0.6591556000057608,1,+1,864,-7.387422363027657,0.41330881730652314,0.12632683341211548,2638568.0,21.14536317038185,-51.686062606885045,-43.67433400772857,2642104.0,32.44014919415447,0.2725936887685734,-0.6051338418306365,2818536.0,2644.6605304899845,2641.124530489985,2821.0925304899847
174,19,21,f,1,4,166.0,14,4,low,3 + 8 - 4 + 9 + 6,22,22,23,21,2654.3932968999725,2656.4185004999745,2657.933715799998,2662.953095100005,2665.0146146999905,2665.014619799971,2666.53137599997,2667.548485399981,q,22,2.0615195999853317,1,+1,865,-27.454014231090703,0.20807155623085372,0.3529280207233354,2651839.0,18.892264678926495,0.40955795342930745,0.45255195947648374,2655373.0,-0.6563182447088014,-0.25267334830660193,-0.18080797485322586,2831992.0,2657.9295304899847,2654.3955304899846,2834.548530489985
175,19,21,f,1,4,167.0,15,3,high,3 + 1 + 8 - 5 + 9,16,15,16,17,2669.0651595999952,2671.090882999997,2672.606026399997,2677.625313700002,2678.198441699962,2678.198446399998,2679.7149763999623,2680.73233889998,w,16,0.5731279999599792,1,+10,875,11.83475556530118,-0.09147848979996054,0.06429030838900918,2666511.0,-10.47933174614033,0.291983985299169,0.2450755648633045,2670045.0,,,,,2672.6015304899847,2669.0675304899846,
176,19,21,f,1,4,168.0,16,3,low,4 + 8 - 9 + 1 + 7,11,9,13,11,2682.2489721999737,2684.2725797999883,2685.786908500013,2690.8064463000046,2692.998498799978,2692.99850549997,2694.515990199987,2695.5329489999567,e,11,2.192052499973215,1,+1,876,-13.429421326288418,-0.06668993034452919,-0.41814291869268505,2679693.0,1.9817361699409193,1.0864509504822233,0.360520944913294,2683227.0,,,,,2685.7835304899845,2682.249530489985,
177,19,21,f,1,4,169.0,17,4,low,3 + 8 - 7 + 9 - 5,8,9,8,7,2697.0495962999994,2699.077167199983,2700.5928129999666,2705.6113372999826,2710.19052319997,2710.190528400009,2711.7073187999777,2712.724826999998,e,7,4.579185899987351,0,+0,876,-6.346992948486938,-0.10283280335729961,1.1104581073442192,2694497.0,5.381478391348567,0.29658524649063533,0.3258953452361464,2698031.0,17.512357983134873,1.8096497726852645,2.1675848991343716,2967718.0,2700.5875304899846,2697.0535304899845,2970.2745304899845
178,19,21,f,1,4,170.0,18,1,high,6 + 1 + 8 + 1 + 1,17,16,15,17,2714.241828700004,2716.265684399986,2717.7809588999958,2722.79884199996,2723.5583988999715,2723.558403700008,2725.075646299985,2726.092974099971,e,17,0.7595569000113755,1,+10,886,-11.17567973657481,-0.02069502155298908,-0.12951571376765036,2711686.0,18.48529505607727,0.87297670933083,0.4185762538824518,2715219.0,2.413414466236368,25.883573184445467,23.799322135763823,2858335.0,2717.7755304899847,2714.242530489985,2860.8915304899847
179,19,21,f,1,4,171.0,19,2,low,4 + 7 + 1 + 1 - 8,5,4,5,7,2727.6097837999696,2729.6351058,2731.1503451999743,2736.1691696000053,2736.870441999985,2736.8704475999693,2738.3868910999736,2739.4037475999794,w,5,0.7012723999796435,1,+1,887,14.722560835052093,-0.4931927914274228,0.40541133940643537,2725055.0,21.78171639404855,0.7276721999832505,0.46300861930119375,2728589.0,-5.92316233717936,-0.07327716072380497,0.02530596108528127,2924319.0,2731.1455304899846,2727.6115304899845,2926.8755304899846
180,19,21,f,1,4,172.0,20,4,low,4 + 8 + 9 - 3 + 7,25,24,26,25,2740.920511399978,2742.9473841,2744.46269039996,2749.482697899977,2750.102536499966,2750.102541500004,2751.6189902999904,2752.6359098000103,e,25,0.619838599988725,1,+1,888,11.824458625730076,-0.9473818423588556,-1.2827567279184442,2738367.0,-1.0248723986839252,-0.22202488886726002,-0.5931458421662468,2741902.0,31.41117961544891,33.865344694413324,32.14983312182193,2982646.0,2744.4585304899847,2740.923530489985,2985.202530489985
181,19,21,f,1,4,173.0,21,2,high,5 - 8 + 7 + 1 + 1,6,8,6,7,2754.153121899988,2756.1771796999965,2757.6923442999832,2762.7110827,2767.1344994999818,2767.134504799964,2768.6509465000127,2769.6678027999587,q,8,4.423416799982078,0,+0,888,-18.403792506719462,-0.6073810919994829,-0.1018527353498051,2751597.0,18.620540290104994,0.31992544803640843,0.2912521797552112,2755131.0,7.641071278516836,1.0931980075406749,6.462039428206754,2953703.0,2757.6875304899845,2754.153530489985,2956.2595304899846
182,19,21,f,1,4,174.0,22,2,low,7 + 1 + 9 - 1 - 8,8,6,8,7,2771.1842323999736,2773.210614299984,2774.725847499969,2779.7458904999658,2780.302390399971,2780.302395800012,2781.818839799962,2782.8355380999856,w,8,0.5564999000052921,1,+1,889,18.703376634308874,0.19246625485300584,1.2770152928328624,2768630.0,14.517054632325436,-0.15765343513001362,0.14196721384704958,2772165.0,-7.705054904032629,-34.48558516651634,-46.39146203699991,3008975.0,2774.7215304899846,2771.1865304899848,3011.5315304899846
183,19,21,f,1,4,175.0,23,3,high,6 - 1 + 7 - 8 + 9,13,11,12,13,2784.3524909999687,2786.3786379999947,2787.893924199976,2792.9124992999714,2793.398344199988,2793.3983492999687,2794.914720100001,2795.9321869999985,e,13,0.4858449000166729,1,+10,899,23.895932569939582,0.3156581524418032,0.09406240313009429,2781798.0,-15.915383565982333,0.2898971502121883,0.33593093758878156,2785332.0,,,,,2787.8885304899845,2784.3545304899844,
184,19,21,f,1,4,176.0,24,3,low,7 - 1 + 8 - 6 + 4,12,12,13,11,2797.4489680000115,2799.47499779996,2800.9899561000057,2806.0082001999835,2806.4303728999803,2806.4303781999624,2807.9471777,2808.9639882000047,q,12,0.4221726999967359,1,+1,900,-7.260536320395418,0.1685027989309016,0.053542636154934264,2794895.0,36.772169998279374,0.3809754434894286,0.1950189988472828,2798428.0,,,,,2800.9845304899845,2797.4515304899846,
185,19,21,f,1,4,177.0,25,3,high,4 + 1 + 8 + 9 - 5,17,17,18,19,2810.4804977999884,2812.505532499985,2814.020730799996,2819.038945399981,2819.5823337999755,2819.582338999957,2821.099011799961,2822.116330699995,q,17,0.5433883999940008,1,+10,910,1.6606070350264943,-2.5845445358673347,-7.240304011612677,2807925.0,-13.813505345968736,-0.012075148155014759,-0.021252782676257187,2811458.0,,,,,2814.0145304899847,2810.481530489985,
186,19,21,f,1,4,178.0,26,4,high,3 + 9 - 5 + 6 + 8,21,21,22,23,2823.634197300009,2825.6589256000007,2827.1747878000024,2832.1925996000064,2833.0383347999887,2833.038339599967,2834.554916299996,2835.5721980999806,q,21,0.8457351999823004,1,+10,920,-8.382363621976317,-0.3878679452727871,0.27973473291325224,2821078.0,37.31777467692865,-0.12701389933437124,0.08675408717983446,2824612.0,,,,,2827.1685304899847,2823.6345304899846,
187,19,21,f,1,4,179.0,27,2,low,6 + 1 + 1 + 7 - 9,6,6,8,4,2837.088749399991,2839.117019199999,2840.6318801000016,2845.6502046000096,2846.1902686000103,2846.19027359999,2847.706769399985,2848.7245810999884,q,6,0.5400640000007115,1,+1,921,31.1591697546313,-0.7112642963160987,-0.1800855610870442,2834536.0,-35.461120554134084,0.20484734060450727,0.27232058661350633,2838070.0,,,,,2840.626530489985,2837.0925304899847,
188,19,21,f,1,4,180.0,28,1,low,5 + 1 + 1 + 6 + 1,14,14,16,13,2850.241387499962,2852.26792459999,2853.7832645999733,2858.801488099969,2859.382302999962,2859.3823084000032,2860.898834499996,2861.9157522000023,q,14,0.5808148999931291,1,+1,922,-0.372813725445603,0.22912326730906152,0.16188497548315728,2847687.0,6.429238382685606,-0.10430669501104184,0.15476179712907223,2851221.0,-6.914463514075884,14.174296645546065,27.06914490321894,2871391.0,2853.7775304899847,2850.2435304899846,2873.9475304899847
189,19,21,f,1,4,181.0,29,1,high,4 + 7 + 1 - 1 - 1,10,11,10,9,2863.4326374999946,2865.460435599962,2866.975594999967,2871.994403699995,2872.4384057999705,2872.438411200012,2873.954480599961,2874.971597799973,w,10,0.4440020999754779,1,+10,932,-15.008123395470477,6.958685701475731,7.651838060882779,2860880.0,27.27635514248294,1.6358097222946641,0.7191329912470028,2864414.0,13.41427754287751,-0.3082788628590176,-0.5334247198673374,2911280.0,2866.970530489985,2863.4365304899848,2913.836530489985
190,19,21,f,1,4,182.0,30,2,low,3 + 1 + 8 - 5 - 1,6,5,6,7,2876.488411099999,2878.513724299962,2880.0289841999765,2885.0480402999674,2885.5103657,2885.510370999982,2887.0271098999656,2888.044147799956,w,6,0.4623254000325687,1,+1,933,0.9497279031555781,0.16324014241100793,-0.15822312939387118,2873933.0,21.5354318396257,-0.17794323804886147,-0.25043913850754107,2877467.0,,,,,2880.0235304899848,2876.4895304899846,
191,19,21,f,1,4,183.0,31,2,low,3 + 9 + 1 - 5 + 1,9,9,7,8,2889.5613148999983,2891.585788599972,2893.1007490999764,2898.118857399968,2899.174291100004,2899.1742965999874,2900.690936299972,2901.7082482000114,q,9,1.0554337000357918,1,+1,934,-70.60635666337969,0.43328581892340257,0.167852548387474,2887005.0,-12.671436666542402,0.1690589187833842,-1.4212700239201204,2890538.0,,,,,2893.0945304899847,2889.5615304899848,
192,19,21,f,1,4,184.0,32,1,high,7 + 1 + 5 + 1 - 1,13,13,14,12,2903.225883899955,2905.251357799978,2906.766531099973,2911.7849717999925,2912.326298200001,2912.326303699985,2913.843947899993,2914.8619990999578,q,13,0.5413264000089839,1,+10,944,-2.9337974493307666,0.19475907604012477,0.16112235113641282,2900670.0,18.979085992512353,0.612187285315644,0.24056482066022977,2904204.0,,,,,2906.760530489985,2903.2265304899847,
193,19,21,f,1,4,185.0,33,2,low,6 + 1 + 7 + 5 - 1,18,16,18,17,2916.378785400011,2918.406358799956,2919.921502399957,2924.9399700000067,2925.366248800012,2925.366254599998,2926.8830721999984,2927.899935399997,w,18,0.4262788000050932,1,+1,945,36.56006678743272,-0.2835146883946833,-0.03903135118455281,2913825.0,12.937680149810856,-0.05656984325182979,0.20773557820788624,2917359.0,,,,,2919.9155304899846,2916.3815304899845,
194,19,21,f,1,4,186.0,34,4,low,8 + 4 + 7 - 5 - 6,8,8,6,9,2929.416679799964,2931.443595699966,2932.958887099987,2937.9775063999696,2941.558245099965,2941.558250700007,2943.074488000013,2944.091733999958,e,9,3.5807386999949813,0,+0,945,-16.15940642823831,-0.1755615566980837,0.2401069057630294,2926863.0,7.102708616814333,0.5170315187676735,-0.04256231889438489,2930396.0,,,,,2932.952530489985,2929.4195304899845,
195,19,21,f,1,4,187.0,35,2,high,6 + 1 + 1 + 7 - 9,6,4,8,6,2945.608521999966,2947.6320151999826,2949.147792299977,2954.1668206999893,2954.7502082999563,2954.7502132999944,2956.266820699966,2957.2841307999915,e,6,0.5833875999669544,1,+10,955,48.14523154924707,-0.659525577426118,0.32626807102296773,2943051.0,-0.9738615801028239,0.417376647162619,0.062010725783182785,2946586.0,,,,,2949.1425304899844,2945.6075304899846,
196,19,21,f,1,4,188.0,36,4,high,5 + 8 - 4 - 6 + 9,12,14,13,12,2958.8007468999717,2960.8281537999865,2962.3434234999586,2967.361416800006,2968.766181899992,2968.766186899971,2970.282410099986,2971.2996160999755,e,12,1.404765099985525,1,+10,965,-35.1278676076909,-0.5070669310372509,-2.9894845930866287,2956247.0,-9.39726124693005,0.27602418219405056,3.4083772896324502,2959781.0,,,,,2962.3375304899846,2958.8035304899845,
197,19,21,f,1,4,189.0,37,4,low,2 + 9 - 6 + 8 - 4,9,9,11,7,2972.8167303999653,2974.842661099974,2976.357918099966,2981.3756160999765,2983.694129100011,2983.6941339999903,2985.2106515999767,2986.2275407999987,q,9,2.318513000034727,1,+1,966,-4.683709782800246,0.36478138352640777,-0.269786197840022,2970262.0,-36.03590081571768,0.2455078694251922,0.11703751528351125,2973795.0,,,,,2976.3515304899847,2972.818530489985,
198,19,21,f,1,5,190.0,0,2,high,6 + 1 + 7 - 8 - 1,5,5,7,4,3000.321967099968,3002.3488381999778,3003.8640981999924,3008.884282199957,3010.0221366999904,3010.022141899972,3011.538751599961,3012.5562971999752,q,5,1.137854500033427,1,+10,976,23.92612788857334,-2.312418374896537,-0.039861178921992035,2997767.0,1.72493082659342,2.253425683640052,0.5472999285677309,3001303.0,,,,,3003.8595304899845,3000.3235304899845,
199,19,21,f,1,5,191.0,1,4,high,4 + 7 - 8 + 9 - 3,9,11,9,8,3014.073033499997,3016.1011350000044,3017.616236299975,3022.635480900004,3023.398069899995,3023.3980754999798,3024.914640299976,3025.932340500003,e,8,0.7625889999908395,0,+0,976,-15.837090248323541,0.016698038802365645,-0.03192541398003712,3011519.0,16.195844830025983,1.0978405564331037,0.23862996529654623,3015054.0,,,,,3017.6105304899847,3014.0755304899844,
