,id,age,sex,cued,block,trial,trialinblock,efflev,rewlev,calc,corAns,option1,option2,option3,tstart,ITI1Time,probTime,respTime,selectTime,ITI2Time,fbTime,ITI3Time,key_press,chosenAns,RT,acc,feedback,total_points,cuescr,cuecor,cuezyg,cuetime,probscr,probcor,probzyg,probtime,fbscr,fbcor,fbzyg,fbtime,probtime_c,cuetime_c,fbtime_c
0,20,20,F,0,Practice,,0,1,0,4 + 1 + 9 + 1 + 1,16,16,14,15,61.868241999996826,,61.86824420001358,66.89603830000851,74.90447830001358,74.9044847000041,76.42128369997954,77.4426263999776,e,15.0,8.008440000005066,0,Incorrect,0,,,,,-12.008228597819283,0.36278873729192007,1.1864901696627945,61151.0,-3.7992447332241692,-0.8117023279904325,0.045278221713934697,75698.0,61.88248865900358,,76.42948865900357
1,20,20,F,0,Practice,,1,1,0,3 + 1 + 1 + 8 - 1,12,10,12,11,78.9595452999929,,78.95954830001574,83.98242890002439,85.2804627000005,85.2804688999895,86.79768580000382,87.81693520001136,w,12.0,1.2980337999761105,1,Correct,0,,,,,11.582044276623371,-0.17733904496720054,-0.18701252016719083,78237.0,9.16334209392379,-0.40924496625882334,0.1324915292985187,86073.0,78.96848865900357,,86.80448865900357
2,20,20,F,0,Practice,,2,2,0,8 + 1 + 6 + 1 - 4,12,12,10,11,89.33475380000891,,89.33475919999182,94.35413039999548,95.74443949997658,95.74444530002074,97.26196390000403,98.27973579999524,q,12.0,1.3903090999810956,1,Correct,0,,,,,3.4839477471835565,-1.161653767452818,0.05506012355504164,88610.0,24.511226408577347,0.735345915896608,0.10954775710772324,96535.0,89.34148865900357,,97.26648865900357
3,20,20,F,0,Practice,,3,2,0,9 + 4 - 6 + 1 - 1,7,5,6,7,99.7969288000022,,99.79693160002353,104.81667289999314,106.30427889997372,106.3042849000194,107.82074450002985,108.8377024999936,e,7.0,1.4876059999805875,1,Correct,0,,,,,-16.721937359726265,-0.09647035607195686,-0.42187594724454347,99072.0,-1.2028522362186251,0.3208681962418707,-0.009818558535876543,107093.0,99.80348865900358,,107.82448865900358
4,20,20,F,0,Practice,,4,3,0,9 + 3 - 5 + 6 + 7,20,22,20,21,110.35448500001804,,110.35448809998344,115.37391969998134,116.6004334000172,116.60043950000544,118.11714520002715,119.13410550000845,w,20.0,1.2265137000358663,1,Correct,0,,,,,19.93118025826541,-0.031183360897588663,-0.015140969920002467,109629.0,4.226564888949675,1.5602660811240971,0.20877922151912864,117389.0,110.36048865900358,,118.12048865900357
5,20,20,F,0,Practice,,5,3,0,2 + 1 + 9 - 7 + 6,11,11,9,10,120.65097750001588,,120.65098029997898,125.67063170002076,126.84845220000716,126.84845819999464,128.36522340000374,129.38253439997789,q,11.0,1.17782049998641,1,Correct,0,,,,,7.704017177971167,-0.42961378937928707,0.019662512739263116,119926.0,-30.28983824669749,0.17399937349767924,4.430867586259651,127638.0,120.65748865900358,,128.3694886590036
6,20,20,F,0,Practice,,6,4,0,4 + 8 + 5 - 3 + 7,21,21,23,22,130.89962829998694,,130.89963110000826,135.92008369998075,137.25649679999333,137.25650289998157,138.77321100002155,139.79134380002506,q,21.0,1.336413100012578,1,Correct,0,,,,,3.857646348274158,-0.3585100953626892,-0.3319941512308948,130175.0,11.835527658499764,-0.7459354415422599,-0.046795157688614086,138047.0,130.9064886590036,,138.77848865900359
7,20,20,F,0,Practice,,7,4,0,5 + 8 - 4 + 6 + 9,24,23,24,22,141.30842590000248,,141.30842880002456,146.32788759999676,148.3043778000283,148.30438380001578,149.82153950002976,150.83987450000132,w,24.0,1.9764902000315487,1,Correct,0,,,,,11.931716533835843,0.6268524446679447,-0.08636426346411685,140583.0,-0.7664741237073969,0.391358982450984,0.017697836420384805,149095.0,141.3144886590036,,149.8264886590036
8,20,20,F,1,0,0.0,0,1,high,6 + 1 + 8 + 1 + 1,17,17,16,15,319.3100221999921,321.3391279000207,322.8544833000051,327.8728538000141,329.19775400002254,329.19775890000165,330.7143049000297,331.73168949998217,q,17.0,1.324900200008415,1,+10,10,-15.716358074485875,0.48753365603670495,-3.5819705479227313,318594.0,0.19716895244326604,-0.7817506142665156,-0.4447831475838653,322127.0,21.474704994820343,-0.19709932283163578,-0.7756498918108825,329986.0,322.85848865900357,319.32548865900355,330.71748865900355
9,20,20,F,1,0,1.0,1,4,low,8 + 4 - 5 + 7 - 6,8,6,8,7,333.2480483999825,335.2725082000252,336.7878356000292,341.807822200004,346.1018313000095,346.10183639999013,347.6183617999777,348.63568840001244,e,7.0,4.294009100005496,0,+0,10,-38.97783036935219,0.6748317752980535,-1.9697284466907785,332527.0,-16.934733519751582,-0.6036998678278067,0.5336403971249588,336062.0,-3.102315490233508,0.17929492727418328,0.2815473424975732,376305.0,336.7934886590036,333.25848865900355,377.03648865900357
10,20,20,F,1,0,2.0,2,1,high,5 + 9 - 1 + 1 + 1,15,13,15,17,350.15284609998344,352.1760787999956,353.69131939997897,358.70933540002443,360.57368430000497,360.5736896999879,362.090284099977,363.1075893000234,w,15.0,1.864348899980541,1,+10,20,-21.321464528608693,0.37965835173311646,-0.15168263528215942,349430.0,-6.848627364868836,0.05701138256534355,0.4336887003152827,352964.0,-50.82571122148033,-0.42740323300153094,-0.3795995461299899,361362.0,353.69548865900356,350.16148865900357,362.0934886590036
11,20,20,F,1,0,3.0,3,4,low,7 + 6 + 8 - 4 + 5,22,22,23,21,364.6243694000296,366.650070499978,368.1653636000119,373.1847878000117,375.5177672000136,375.5177722999943,377.0343936000136,378.0513724000193,q,22.0,2.332979400001932,1,+1,21,8.03819651972637,0.1488459451426598,-0.1721796932393458,363904.0,8.963642042665121,-0.005943839856302979,0.49553305397849723,367439.0,4.792833551887163,0.022083872053815234,1.0741927202956791,459673.0,368.1704886590036,364.63548865900356,460.40448865900356
12,20,20,F,1,0,4.0,4,3,high,2 - 4 + 9 + 7 + 1,15,13,16,15,379.5683118000161,381.5953641000088,383.11062990000937,388.1292792999884,389.293704700016,389.293709199992,390.8095449000248,391.82684190000873,e,15.0,1.1644254000275396,1,+10,31,-6.9824194618869235,0.2490266667198382,-0.30585234948687656,378850.0,16.647021674173736,0.13705252261796996,-0.47999113394448445,382383.0,10.203239801514284,-0.16310133142733507,0.16695456952801457,390081.0,383.11448865900354,379.5814886590036,390.8124886590036
13,20,20,F,1,0,5.0,5,3,high,5 + 6 - 4 - 1 + 8,14,16,14,15,393.3439154999796,395.3682999000303,396.88385759998346,401.9027258999995,403.0937290000147,403.0937341999961,404.61008479999145,405.6274242000072,w,14.0,1.191003100015223,1,+10,41,17.56704261503097,0.14917476488732362,-0.3171138583023181,392622.0,17.233685411996365,0.08107552481754521,-0.032022183282794714,396157.0,-18.21993768509435,-0.2891092139881284,4.91768570447671,403881.0,396.88848865900354,393.3534886590036,404.61248865900353
14,20,20,F,1,0,6.0,6,2,low,7 + 5 + 1 - 1 - 8,4,3,2,4,407.1446622000076,409.1725473999977,410.6876620000112,415.70646820002,417.03761350002605,417.0376186000067,418.5542854000232,419.5709611999919,e,4.0,1.3311453000060285,1,+1,42,-17.305046987468486,0.7475825521412975,0.40948729064737943,406426.0,-59.19934856548413,0.05371662323448678,0.5174269555956794,409960.0,-27.111042239685077,-0.3380908938815459,-0.5706174515820788,417825.0,410.69148865900354,407.15748865900355,418.55648865900355
15,20,20,F,1,0,7.0,7,3,low,2 + 1 + 9 - 4 + 6,14,14,16,15,421.0877913000295,423.1136243999936,424.6288167000166,429.6487449000124,431.0376391999889,431.0376441000262,432.5541227000067,433.5710140999872,q,14.0,1.3888942999765277,1,+1,43,8.682164314367217,0.11993956433881614,0.04015990432033423,420368.0,26.456311135011834,0.02645460302825553,-0.4470412952924825,423903.0,-35.70720741650169,0.3488690690235945,1.4113510714688684,431825.0,424.6344886590036,421.09948865900355,432.55648865900355
16,20,20,F,1,0,8.0,8,1,low,2 + 1 + 9 + 1 + 1,14,13,14,12,435.08778830000665,437.11508399999,438.6302039999864,443.6483041999745,444.8696499000071,444.8696546999854,446.3861874000286,447.4031929000048,w,14.0,1.2213457000325434,1,+1,44,-9.100860518064078,0.47235651308686544,-0.3071084155957644,434369.0,-9.359400243508642,-0.7432783469768447,-0.12202571293676812,437902.0,21.82053094124079,0.0318785936178152,-0.3254624520846514,445657.0,438.63348865900355,435.1004886590036,446.38848865900354
17,20,20,F,1,0,9.0,9,4,high,5 + 8 - 6 + 7 + 4,18,18,19,17,448.9205263999757,450.9489586999989,452.4649295000127,457.48316890001297,458.8857612999855,458.88576650002506,460.4020312000066,461.41951729997527,q,18.0,1.402592399972491,1,+10,54,-25.98480464181798,0.16218548504964359,-0.24626717614518157,448203.0,-9.62242071202094,0.01364332113650013,0.15098176596915902,451737.0,103.54852002511807,0.3058747082508715,0.1685280894649921,518922.0,452.4684886590036,448.93448865900353,519.6534886590036
18,20,20,F,1,0,10.0,10,1,low,5 + 1 + 1 + 9 + 1,17,16,17,19,462.9366461000173,464.9622474000207,466.4775408999994,471.49519460002193,472.7896136000054,472.7896184999845,474.30634579999605,475.323371800012,w,17.0,1.2944189999834634,1,+1,55,-37.38925720536339,0.43783133927661355,-0.7398706168360771,462216.0,-8.77868634454747,-0.3725174326883245,0.33770867909981206,465749.0,10.29803294212414,0.28272615294003156,0.5371391268392323,473577.0,466.4804886590036,462.94748865900357,474.30848865900356
19,20,20,F,1,0,11.0,11,3,low,7 - 5 + 9 + 1 - 4,8,9,8,7,476.8402799000032,478.8666625000187,480.3816484999843,485.3996827999945,490.41639089997625,490.4163932999945,491.9336082999944,492.9561892999918,,,,0,Too Slow!,55,7.076419805449026,0.0665497736964622,0.2997242375712057,476120.0,3.2318720104658887,0.15534560215574933,0.04107742347991916,479654.0,16.521121248032582,0.14255292094929262,0.12025367642396745,491209.0,480.38548865900356,476.85148865900356,491.94048865900356
20,20,20,F,1,0,12.0,12,2,low,6 + 1 + 7 + 5 - 1,18,18,17,16,494.4727141999756,496.49701739999,498.0123708000174,503.0307868000236,504.2856880999752,504.28569320001407,505.80272229999537,506.8200008000131,q,18.0,1.254901299951598,1,+1,56,-9.679203926387919,0.33530650826964115,0.28762328807011794,493751.0,8.009059654618392,-0.1713745327865328,-0.1970840726039098,497285.0,,,,,498.0164886590036,494.48248865900354,
21,20,20,F,1,0,13.0,13,4,high,5 + 9 - 4 + 7 + 6,23,24,25,23,508.33726330002537,510.3636967000202,511.87901560001774,516.8988874999923,518.1336278999806,518.1336330000195,519.6506721000187,520.6681175000267,e,23.0,1.2347403999883682,1,+10,66,46.31316928596133,0.055456619513325034,0.14593732136159243,507617.0,-11.839372668635278,-0.2397094286559387,0.32832432172817816,511153.0,,,,,511.8844886590036,508.3484886590036,
22,20,20,F,1,0,14.0,14,3,high,9 + 3 - 4 + 6 + 7,21,23,21,22,522.1847414000076,524.2068162999931,525.7220428999863,530.7409058000194,531.8855153999757,531.8855207000161,533.4018740999745,534.4187247999944,w,21.0,1.1446095999563113,1,+10,76,12.131896578193066,-0.14491698178313062,0.05215691632420283,521461.0,5.704309725820755,-0.16920502560830197,-0.8534311021001506,524995.0,,,,,525.7264886590036,522.1924886590036,
23,20,20,F,1,0,15.0,15,1,low,4 + 9 + 1 - 1 - 1,12,13,11,12,535.9355947999866,537.9601522000157,539.4751561000012,544.4936146999826,545.733531099977,545.7335359000135,547.2500918000005,548.2672364999889,e,12.0,1.2399163999943994,1,+1,77,-22.534540685655976,-0.024735937269440456,0.7935372616621854,535214.0,35.24317409805324,-0.35833408685303647,-0.10618643946634698,538747.0,,,,,539.4784886590036,535.9454886590037,
24,20,20,F,1,0,16.0,16,3,high,3 + 8 - 7 + 1 + 9,14,13,12,14,549.7839123000158,551.8105404999806,553.3257363000303,558.3446376000065,559.3495722999796,559.3495770000154,560.8660420000087,561.883245199977,e,14.0,1.0049346999730917,1,+10,87,-0.6439323982094685,0.23646336942010082,0.3509040095064533,549064.0,-33.76485098478099,0.3150799142586176,-0.020630560447599144,552598.0,,,,,553.3294886590036,549.7954886590036,
25,20,20,F,1,0,17.0,17,2,low,3 + 9 + 1 - 5 + 1,9,8,9,7,563.4001296000206,565.4252006000024,566.9405000000261,571.9600030999864,573.4296288000187,573.4296346000046,574.9458820000291,575.962620300008,w,9.0,1.4696257000323385,1,+1,88,24.189897541407287,0.4483018277807158,-0.22383923141164352,562679.0,-21.81777726106405,-0.47441748185959787,0.6667733829464466,566213.0,,,,,566.9444886590036,563.4104886590036,
26,20,20,F,1,0,18.0,18,2,low,5 + 7 - 8 + 1 + 1,6,7,6,8,577.4796695000259,579.5037471000105,581.0189312000293,586.0373535000253,587.0775880999863,587.0775933000259,588.5951131000184,589.6120330999838,w,6.0,1.040234599960968,1,+1,89,-30.560090564826467,0.6998795264179423,0.5130891424047412,576757.0,-0.4836742257276967,0.3561364937185121,0.30675841437113816,580291.0,,,,,581.0224886590037,577.4884886590036,
27,20,20,F,1,0,19.0,19,3,low,3 + 1 + 6 - 8 + 9,11,12,11,13,591.1287732999772,593.1558646999765,594.6711864999961,599.6896001999849,600.8695328999893,600.8695379000274,602.3862348999828,603.40311319998,w,11.0,1.1799327000044286,1,+1,90,10.845824292054695,0.14607481574133496,-0.34066985542283046,590409.0,-60.47263073070049,0.27389758147433785,-0.1948966868556301,593943.0,,,,,594.6744886590036,591.1404886590036,
28,20,20,F,1,0,20.0,20,4,high,6 + 7 + 9 - 3 + 5,24,22,24,23,604.9199399999925,606.9453025999828,608.4604806000134,613.4790114000207,616.9254529000027,616.9254580999841,618.4421788000036,619.4600546000293,w,24.0,3.446441499982029,1,+10,100,-0.3909607020423822,0.2050520477536577,-0.44053356928097287,604198.0,-26.959873747856836,-0.5161118450522699,-0.140730688255843,607732.0,,,,,608.4634886590036,604.9294886590036,
29,20,20,F,1,0,21.0,21,2,high,4 + 9 - 7 + 1 - 1,6,6,8,5,620.9768444999936,623.0032181999995,624.5186310000136,629.5385648999945,630.7095116000273,630.7095165000064,632.2262171999901,633.2435517000267,q,6.0,1.1709467000328004,1,+10,110,11.218564466930431,0.3156077447570951,0.510788234366462,620256.0,-5.4389620930438705,-0.03650852449814446,-0.32499295264128847,623792.0,,,,,624.5234886590036,620.9874886590036,
30,20,20,F,1,0,22.0,22,2,high,6 + 1 + 8 + 7 - 1,21,21,23,19,634.7607586000231,636.7865937000024,638.3014991999953,643.3201713000308,644.5734403000097,644.5734449999873,646.0897922000149,647.1062147999764,q,21.0,1.2532689999789,1,+10,120,13.791364783291641,-0.6223028901124383,0.26904477505694846,634040.0,15.896645811106485,-0.34758933223371,-0.4251748328653342,637573.0,,,,,638.3044886590036,634.7714886590036,
31,20,20,F,1,0,23.0,23,1,high,9 + 7 + 1 + 1 + 1,19,19,18,20,648.623487600009,650.6492034000112,652.1645112999831,657.1835561000044,658.5253878000076,658.5253926999867,660.0424142000265,661.0597438000259,q,19.0,1.3418317000032405,1,+10,130,33.46432538073003,0.238067178837313,-0.4791967763518592,647902.0,-34.044380297134985,0.10597314559755677,-0.3181115593078063,651437.0,,,,,652.1684886590036,648.6334886590037,
32,20,20,F,1,0,24.0,24,1,high,9 + 8 + 1 + 1 - 1,18,17,18,20,662.5763287000009,664.6011600000202,666.1164609999978,671.1350741999922,672.9974566000164,672.9974619999994,674.5139952999889,675.5318962999736,w,18.0,1.8623824000242168,1,+10,140,30.789116705803302,0.774705989192848,0.16540040523645594,661854.0,14.029039962145085,-0.30234016051524115,-0.033598989016335956,665388.0,,,,,666.1194886590037,662.5854886590037,
33,20,20,F,1,0,25.0,25,1,low,2 + 1 + 9 + 1 - 1,12,12,11,13,677.0492817999911,679.0752783999778,680.5905904999818,685.6094042999903,686.885353700025,686.8853587000049,688.4015813000151,689.4187566000037,q,12.0,1.2759494000347331,1,+1,141,-2.713376045724494,0.35565036940031414,0.32605515474697544,676328.0,3.2840153864777726,-0.44641519799392304,-0.02579764795444195,679863.0,,,,,680.5944886590037,677.0594886590036,
34,20,20,F,1,0,26.0,26,3,high,4 + 5 - 3 + 7 - 1,12,11,12,13,690.9356431000051,692.9619692999986,694.4771589000011,699.4955543000251,700.6133496999973,700.6133545999764,702.1298824999831,703.147452300007,w,12.0,1.1177953999722376,1,+10,151,5.9201179590716615,0.17629285938163797,-0.46519943912355277,690215.0,-43.125414999577885,-0.026356424323732863,-0.30649146035716024,693749.0,,,,,694.4804886590036,690.9464886590036,
35,20,20,F,1,0,27.0,27,3,low,6 - 1 + 7 - 8 + 9,13,11,13,12,704.6650575000094,706.6886323000072,708.2039654999971,713.2225441000191,715.7013971999986,715.7014020999777,717.218108800007,718.2354225000017,q,11.0,2.47885309997946,0,+0,151,3.2192298006646047,0.020068407460864357,0.29369037304084555,703942.0,-28.799744360248503,-0.834375688084922,0.0537076219536865,707476.0,,,,,708.2074886590036,704.6734886590036,
36,20,20,F,1,0,28.0,28,1,low,5 + 1 + 1 + 6 + 1,14,16,13,14,719.7522526999819,721.7797832000069,723.2951204000274,728.312359899981,729.4533304999932,729.4533354000305,730.9700754000223,731.9867400000221,e,14.0,1.1409706000122242,1,+1,152,-29.707170205414958,0.18718815832805902,0.22181917346735913,719033.0,15.631739352358682,0.10234893165419345,-0.03877980561562655,722566.0,,,,,723.2974886590036,719.7644886590036,
37,20,20,F,1,0,29.0,29,2,high,6 + 1 + 1 + 7 - 9,6,6,8,4,733.5036939000129,735.531645799987,737.0469711999758,742.0655640999903,743.341331899981,743.3413369000191,744.8581887999899,745.8754738999996,q,6.0,1.275767799990717,1,+10,162,3.10035295738556,0.6219681083216742,0.6173217762700065,732785.0,1.3638345901821651,0.28102980529433097,-0.5596742055501003,736319.0,,,,,737.0504886590036,733.5164886590036,
38,20,20,F,1,0,30.0,30,1,low,7 - 1 + 8 + 1 - 1,14,14,13,12,747.3917109000031,749.4184582000016,750.9337149999919,755.9526765000192,757.1333423000178,757.1333473999985,758.6493243000004,759.6658910000115,q,14.0,1.1806657999986785,1,+1,163,12.732144299513335,-0.02367292145852895,4.051189981394279,746671.0,6.3853544334702335,0.24518216695016104,-1.112134544066821,750206.0,,,,,750.9374886590036,747.4024886590037,
39,20,20,F,1,0,31.0,31,4,high,3 + 9 - 5 + 8 - 7,8,7,8,9,761.1827082000091,763.2109055999899,764.726165,769.7447746000253,771.2212740000105,771.2212788999896,772.7378517999896,773.7559666000307,w,8.0,1.4764993999851868,1,+10,173,22.25605124653734,0.041400202127746866,-0.5849408691367333,760464.0,-1.007251018791456,0.2506375266855905,-0.2013576815099074,763998.0,,,,,764.7294886590037,761.1954886590037,
40,20,20,F,1,0,32.0,32,3,low,6 + 7 + 8 + 1 - 9,13,14,15,13,775.2729830999742,777.2988153999904,778.8143313999753,783.8341193000088,786.5413475999958,786.5413526999764,788.0580747000058,789.0751937000314,w,15.0,2.7072282999870367,0,+0,173,0.821570125361867,-0.07041992587119594,-0.22904874263994301,774552.0,5.633765174867085,-0.5121992843526564,0.4154480785808352,778086.0,,,,,778.8174886590036,775.2834886590036,
41,20,20,F,1,0,33.0,33,1,low,5 + 8 - 1 + 1 + 1,14,14,16,12,790.5917834999855,792.6185697999899,794.1339166000253,799.1521747999941,800.2532083999831,800.2532131000189,801.7696600999916,802.7867074999958,q,14.0,1.101033599989023,1,+1,174,-4.145076118994811,0.13109558988589232,0.23187011012821124,789871.0,-0.6316574509423454,-0.02792568475316015,-0.0165125381057587,793405.0,,,,,794.1364886590036,790.6024886590036,
42,20,20,F,1,0,34.0,34,1,high,7 + 1 + 5 + 1 - 1,13,13,12,14,804.3035976000247,806.3293595000287,807.8446463000146,812.8629347999813,813.9253251000191,813.9253299999982,815.4419484999962,816.4590928999824,q,13.0,1.062390300037805,1,+10,184,-19.334495803325048,0.19936940259896518,-0.14273886218221676,803582.0,-4.456098692404292,-0.3087954055465607,-0.016820946607540854,807116.0,,,,,807.8474886590036,804.3134886590036,
43,20,20,F,1,0,35.0,35,2,high,6 + 1 + 7 - 8 - 1,5,5,4,7,817.9757631000248,820.0026468000142,821.5178857999854,826.5367557000136,827.7171874999767,827.7171925000148,829.233504200005,830.2506689000293,q,5.0,1.1804317999631166,1,+10,194,9.007774208996839,-0.34933342400408307,-0.2620933418446554,817256.0,-15.145605471064279,-0.5608474669680592,-0.8559713164627394,820789.0,,,,,821.5204886590036,817.9874886590036,
44,20,20,F,1,0,36.0,36,3,low,5 + 1 + 7 - 8 + 6,11,11,13,9,831.7674135999987,833.7946257999865,835.3098769999924,840.3282136999769,841.509249900002,841.5092548999819,843.0258903999929,844.0427937000059,q,11.0,1.1810362000251189,1,+1,195,-7.929789443604889,-0.050889989833871496,-0.3221041724324545,831047.0,4.624106410268952,-0.1524385061322806,0.4021200526256714,834581.0,,,,,835.3124886590036,831.7784886590036,
45,20,20,F,1,0,37.0,37,2,high,5 - 8 + 7 + 1 + 1,6,8,7,6,845.5597267000121,847.5870277999784,849.102164699987,854.1208532999735,855.3332457999932,855.3332508000312,856.8498538000276,857.8670526000205,e,6.0,1.2123925000196325,1,+10,205,-14.578301047104862,-0.13923733071674027,0.13507448807044975,844840.0,12.739554444911672,0.46136970125208077,0.007441225386016548,848373.0,,,,,849.1044886590037,845.5714886590036,
46,20,20,F,1,1,38.0,0,3,low,7 - 1 + 8 - 6 + 4,12,12,11,13,904.2659546000068,906.2933803999912,907.8085179000044,912.8286546000164,914.0051893999917,914.0051944000296,915.5223600000028,916.5399024999932,q,12.0,1.176534799975343,1,+1,206,10.752698105598867,-6.122341457436893,2.2623109124110936,903546.0,15.971577750726123,-0.11022389481722605,-1.0059194733591736,907081.0,,,,,907.8124886590036,904.2774886590037,
47,20,20,F,1,1,39.0,1,2,low,3 - 1 + 9 - 5 + 1,7,5,6,7,918.0573298999808,920.083458899986,921.5984890999972,926.6180705000296,927.9330556999776,927.9330606000148,929.4501870999812,930.4670611000038,e,7.0,1.3149851999478417,1,+1,207,14.267343068107284,-0.20156524154042987,0.21355052648983186,917336.0,-34.761037825129286,-0.46580144021526637,-0.43612084164929277,920870.0,,,,,921.6014886590036,918.0674886590036,
48,20,20,F,1,1,40.0,2,2,low,9 + 6 + 1 + 7 + 1,24,25,23,24,931.98370729998,934.0069262000034,935.5221734999795,940.5401264000102,943.1170685000252,943.1170735000052,944.633748000022,945.6505864000064,e,24.0,2.5769421000150032,1,+1,208,2.3078204340774513,0.01405829957847482,-0.37019252559066196,931259.0,-12.270501877282321,0.02602122273483376,0.5105531077003231,934792.0,,,,,935.5234886590036,931.9904886590036,
49,20,20,F,1,1,41.0,3,3,low,7 - 1 + 8 - 6 + 4,12,13,11,12,947.1675308999838,949.192425300018,950.7073851000168,955.7265123000252,956.8610523000244,956.8610573000042,958.3773676999843,959.3941882000072,e,12.0,1.134539999999106,1,+1,209,10.037793321503095,0.08200331321473397,0.3409647281875108,946445.0,3.7329617108312974,-0.6532770166397923,-1.1387859946829737,949978.0,,,,,950.7094886590036,947.1764886590037,
50,20,20,F,1,1,42.0,4,4,high,5 + 7 - 4 - 6 + 9,11,13,12,11,960.9111581000034,962.934781500022,964.4497724000248,969.4693496000256,970.6930697999778,970.6930749000168,972.2097377000028,973.2268077000044,e,11.0,1.2237201999523677,1,+10,219,5.976242762975976,-0.09980718958363433,-0.5183162209628502,960187.0,15.894153008192172,-0.13278085626813674,0.30186651903463213,963722.0,,,,,964.4534886590036,960.9184886590036,
51,20,20,F,1,1,43.0,5,3,low,4 + 1 + 8 + 9 - 5,17,18,19,17,974.7434715999988,976.7694253000082,978.2847683000144,983.3028009000118,984.5730762000312,984.573082100018,986.089711699984,987.1063035000116,e,17.0,1.270275300019421,1,+1,220,-25.397174417034044,-0.03329913059237555,-0.31576283013678896,974021.0,2.339720811763099,-0.22911882402432715,-0.6779506844841112,977555.0,,,,,978.2864886590036,974.7524886590036,
52,20,20,F,1,1,44.0,6,1,low,6 + 9 + 1 + 1 - 1,16,14,16,15,988.6231296000188,990.6490645000011,992.164460800006,997.1825197000288,999.6211184000132,999.6211231999914,1001.1391819000128,1002.1560397000284,w,16.0,2.4385986999841407,1,+1,221,32.77553464909242,0.008214939971758373,0.03109247586752284,987901.0,9.345960137502217,0.5737972958210682,0.2846897149328127,991435.0,,,,,992.1664886590036,988.6324886590036,
53,20,20,F,1,1,45.0,7,3,low,8 - 1 + 6 - 7 + 5,11,12,11,13,1003.6728089000098,1005.6979865999892,1007.213479100028,1012.2338542999933,1013.2850868999958,1013.2850917999748,1014.8016435999888,1015.81867290003,w,11.0,1.0512326000025496,1,+1,222,9.450356883300088,-0.13172377757158538,-0.1530043613978811,1002950.0,-1.5012304834529506,-0.16642666559399943,0.25611188886955105,1006486.0,,,,,1007.2174886590036,1003.6814886590037,
54,20,20,F,1,1,46.0,8,4,high,8 + 4 + 7 - 5 - 6,8,8,9,6,1017.3355361000284,1019.3604423999786,1020.8761060999824,1025.8943165999954,1027.4529749000212,1027.452980400005,1028.969588899985,1029.9868338999804,q,8.0,1.5586583000258545,1,+10,232,-24.64471551421445,0.26673275605934776,0.42008728225658887,1016612.0,-1.8341777758018871,-0.4781961564463204,0.04716250853120307,1020147.0,,,,,1020.8784886590037,1017.3434886590036,
55,20,20,F,1,1,47.0,9,2,high,7 + 6 + 1 + 8 + 1,23,22,21,23,1031.5035697999992,1033.5301387999789,1035.0453436999817,1040.0636387999984,1041.5089380000136,1041.5089430999942,1043.02546720003,1044.0428153999965,e,23.0,1.4452992000151426,1,+10,242,-15.45698178017368,0.2198865713756879,-0.1031952172238606,1030782.0,16.5399859131562,-0.031879110540499855,-0.07772695565422705,1034316.0,,,,,1035.0474886590036,1031.5134886590035,
56,20,20,F,1,1,48.0,10,3,high,6 + 1 + 8 + 7 - 9,13,14,13,15,1045.5596329999971,1047.5865169999888,1049.1016231999963,1054.1217363000032,1055.5969785000198,1055.5969836000004,1057.1136281000215,1058.132046999992,w,13.0,1.4752422000165095,1,+10,252,7.831768565105868,-0.03897442114005001,0.2077836850729624,1044838.0,10.502122996452375,-0.019683557660115536,0.02484889461290063,1048374.0,,,,,1049.1054886590036,1045.5694886590036,
57,20,20,F,1,1,49.0,11,4,low,8 + 4 + 7 - 5 - 6,8,8,7,9,1059.6489192000008,1061.677005000005,1063.192211400019,1068.2106421000208,1069.356869500014,1069.356874499994,1070.873177899979,1071.8901040999915,q,8.0,1.1462273999932222,1,+1,253,-25.561860049313868,0.005057924418439441,-0.09405215253815546,1058928.0,14.972126526314236,0.22173252399543975,-0.09522564095365427,1062463.0,,,,,1063.1944886590036,1059.6594886590037,
58,20,20,F,1,1,50.0,12,3,low,6 + 8 + 7 + 1 - 9,13,14,15,13,1073.4067647000193,1075.4322211000251,1076.9474691000069,1081.9673662999994,1083.3569469000213,1083.356952100003,1084.873602800013,1085.8904311999795,e,13.0,1.389580600021873,1,+1,254,15.696091114139529,0.30427379298581503,-0.06249974105996969,1072684.0,-12.859877785384032,-0.028254631471209102,-0.3705439557793251,1076219.0,,,,,1076.9504886590037,1073.4154886590036,
59,20,20,F,1,1,51.0,13,1,low,6 + 1 + 1 + 9 - 1,16,15,14,16,1087.4071829000022,1089.433940900024,1090.949254599982,1095.9672968999948,1097.1328474999757,1097.1328522000113,1098.649330699991,1099.666179199994,e,16.0,1.1655505999806337,1,+1,255,2.473580388883743,-0.050391036520717414,0.41591040077468433,1086686.0,-19.14596568773829,-0.44197054459417373,-0.3015023381003674,1090219.0,,,,,1090.9504886590037,1087.4174886590035,
60,20,20,F,1,1,52.0,14,4,high,2 + 9 - 4 + 8 + 7,22,21,23,22,1101.1834582000156,1103.2101241999771,1104.725511000026,1109.744484600029,1110.764929099998,1110.7649345999816,1112.282052900002,1113.299358599994,e,22.0,1.0204444999690168,1,+10,265,5.347499808511843,-0.3439290175521479,-0.016483893179286113,1100462.0,-41.546839300260864,-0.11542895292867694,0.12470072064589743,1103996.0,,,,,1104.7274886590037,1101.1934886590036,
61,20,20,F,1,1,53.0,15,2,low,4 + 7 + 1 + 1 - 8,5,7,5,4,1114.8161969999785,1116.8419854000094,1118.3567480000202,1123.3751924000098,1124.3808068999788,1124.380811700015,1125.897616799979,1126.9145575999864,w,5.0,1.0056144999689425,1,+1,266,1.8158162888467473,-0.2334028178383094,0.32217686267025947,1114094.0,5.504019613785218,0.2265057356512079,-0.2768868984283581,1117627.0,,,,,1118.3584886590036,1114.8254886590037,
62,20,20,F,1,1,54.0,16,1,high,8 + 1 + 1 + 1 - 4,7,5,8,7,1128.4317519000033,1130.4569822999763,1131.9724531000247,1136.990158999979,1138.124836699979,1138.1248415000157,1139.6422698000097,1140.65951149998,e,7.0,1.1346776999998838,1,+10,276,-21.759539099750366,-0.4449760810993948,-0.03883594023259951,1127709.0,-53.321630824119495,-0.20967566594454157,-0.23406484037199826,1131242.0,,,,,1131.9734886590036,1128.4404886590037,
63,20,20,F,1,1,55.0,17,1,low,4 + 7 + 1 - 1 - 1,10,9,11,10,1142.176224099996,1144.2013087000232,1145.716486099991,1150.7348282000166,1151.8128388000189,1151.8128432999947,1153.3293933999958,1154.3461574999965,e,10.0,1.0780106000020169,1,+1,277,-45.722394640873446,0.07468858778697873,0.047946878001453364,1141453.0,-15.136070129075804,-0.025638096459002835,-0.027444335775088202,1144987.0,,,,,1145.7184886590037,1142.1844886590036,
64,20,20,F,1,1,56.0,18,2,high,2 + 1 + 9 - 4 + 1,9,9,11,8,1155.863044800004,1157.8905302999774,1159.4056809999747,1164.4240540000028,1165.7247716999846,1165.7247772000264,1167.241368899995,1168.2586458000003,q,9.0,1.3007176999817602,1,+10,287,13.072185671705517,-0.0659890641306502,-0.36468077064522664,1155142.0,-1.2457815259877911,0.2422101284770628,0.0008871622778841015,1158676.0,,,,,1159.4074886590035,1155.8734886590037,
65,20,20,F,1,1,57.0,19,1,high,2 + 9 + 1 + 1 + 1,14,12,14,13,1169.7754297999782,1171.8038576000254,1173.3190349999932,1178.3371030000271,1180.1328617000254,1180.1328666000045,1181.649096100009,1182.6659296000144,w,14.0,1.7957586999982595,1,+10,297,-19.18791436011325,0.12965631776944075,0.6001461841373534,1169055.0,-38.2596093149739,0.11647077633826175,0.08653434298403617,1172589.0,,,,,1173.3204886590036,1169.7864886590037,
66,20,20,F,1,1,58.0,20,2,low,6 + 1 + 1 + 8 - 9,7,5,9,7,1184.1827305000045,1186.2100480999798,1187.7253781000036,1192.7434701999882,1193.9888488000142,1193.9888540999964,1195.5055610000272,1196.5223943999736,e,7.0,1.2453786000260152,1,+1,298,0.49760428596799855,0.28413350432861506,-0.5542336525705842,1183462.0,9.129772938358848,-0.22894903197472605,0.008370350348807953,1186995.0,,,,,1187.7264886590035,1184.1934886590036,
67,20,20,F,1,1,59.0,21,2,high,9 + 4 - 6 + 1 - 1,7,8,9,7,1198.039238700003,1200.0670587000204,1201.5819846999948,1206.600382399978,1208.6688267000136,1208.6688316999937,1210.18542470003,1211.2023150000025,e,7.0,2.0684443000354804,1,+10,308,51.98190734970974,-0.1043784030886945,0.17433029381165221,1197318.0,-53.751297305736756,-0.1380439277227441,0.4167503214448196,1200852.0,,,,,1201.5834886590037,1198.0494886590036,
68,20,20,F,1,1,60.0,22,1,low,8 + 1 + 1 + 1 - 3,8,6,8,9,1212.7191507000243,1214.7459078999818,1216.2611921000062,1221.2791627999975,1222.6687430000163,1222.6687479999964,1224.1851766000036,1225.2018985999748,w,8.0,1.3895802000188269,1,+1,309,-6.159870362531766,0.15476325757845455,-0.18769666647793803,1211997.0,-10.824008734098284,-0.029755780963260037,0.340999682603329,1215531.0,,,,,1216.2624886590036,1212.7284886590037,
69,20,20,F,1,1,61.0,23,2,high,8 + 1 + 1 + 9 - 4,15,16,15,14,1226.718668000016,1228.7431930000312,1230.2583542999928,1235.278434699983,1236.3887743999949,1236.3887798999783,1237.9054514999734,1238.922594100004,w,15.0,1.1103397000115365,1,+10,319,26.479188195593423,-0.029551836419149602,-0.3093405177911466,1225995.0,22.34441054211938,0.04461014025285115,-0.5860849544973554,1229530.0,,,,,1230.2614886590036,1226.7264886590035,
70,20,20,F,1,1,62.0,24,2,high,3 + 8 - 5 + 1 + 1,8,9,6,8,1240.4399603999918,1242.463790800015,1243.9789234999917,1248.996974700014,1250.1487475999747,1250.148752500012,1251.665398399986,1252.6824074999895,e,8.0,1.1517728999606334,1,+10,329,-2.6162462135178934,0.14455907501337606,-0.10195716618574391,1239715.0,12.321527079800632,0.018931085499859446,0.13087515226057178,1243248.0,,,,,1243.9794886590037,1240.4464886590035,
71,20,20,F,1,1,63.0,25,2,low,9 + 5 - 6 + 1 - 1,8,8,9,7,1254.1995517999749,1256.2269890999887,1257.742172300001,1262.7613821999985,1264.0206556000048,1264.0206607999862,1265.5367839999965,1266.5534040000057,q,8.0,1.25927340000635,1,+1,330,12.899114673477293,0.2176309778165897,0.5726916617011368,1253479.0,14.212614840599699,-0.370784214757081,-0.013776764979976708,1257013.0,,,,,1257.7444886590035,1254.2104886590037,
72,20,20,F,1,1,64.0,26,4,high,2 + 9 - 3 + 5 + 8,21,21,23,22,1268.0702232000183,1270.0973690000246,1271.6125800000154,1276.6311266000266,1277.8927094999815,1277.8927146000206,1279.409258300031,1280.4265646000276,q,21.0,1.261582899955101,1,+10,340,-30.30741459577721,0.01776904166362625,-0.9372734571226173,1267349.0,-23.560557057851113,-0.32340692549688166,-1.3691642020311985,1270882.0,,,,,1271.6134886590037,1268.0804886590035,
73,20,20,F,1,1,65.0,27,2,high,5 + 1 + 7 - 6 + 1,8,7,8,6,1281.9438550000195,1283.9720175000257,1285.4872139000215,1290.5053537000204,1291.5807372999843,1291.580742600025,1293.0973012999748,1294.1144790999824,w,8.0,1.0753835999639705,1,+10,350,7.612922441608447,0.04006691597180945,0.9568985771733236,1281223.0,15.365320834331254,-0.6477447296426062,0.005746397613517917,1284757.0,,,,,1285.4884886590037,1281.9544886590036,
74,20,20,F,1,1,66.0,28,4,low,3 + 9 - 5 + 6 + 8,21,22,23,21,1295.6314266999834,1297.6549811000004,1299.1702374999877,1304.1883551999929,1305.676666399988,1305.6766713000252,1307.1932110000052,1308.2101004000288,e,21.0,1.4883111999952234,1,+1,351,-14.406361689166818,0.05051345333729884,-0.37674572113205107,1294906.0,4.6278648099328485,-0.02558505183498827,-0.05997140443317717,1298439.0,,,,,1299.1704886590037,1295.6374886590036,
75,20,20,F,1,1,67.0,29,4,low,7 + 6 - 9 + 8 - 3,9,8,7,9,1309.7268445999944,1311.752494400018,1313.2676433000015,1318.2859573999883,1319.4606366999797,1319.4606415000162,1320.9770078000147,1321.994378399977,e,9.0,1.1746792999911122,1,+1,352,8.337356869025621,-0.25679137230073135,-0.12687695052650172,1309004.0,34.46871340430913,-0.07855774560758455,0.3144415372158109,1312537.0,,,,,1313.2684886590037,1309.7354886590035,
76,20,20,F,1,1,68.0,30,1,high,3 + 1 + 8 + 1 + 1,14,14,16,13,1323.511076900002,1325.5376630999965,1327.052693400008,1332.070719500014,1333.1565951000084,1333.156600199989,1334.6731536000152,1335.690334999992,q,14.0,1.085875599994324,1,+10,362,-20.35089829551653,-0.09983377515248915,0.10159231029402438,1322789.0,-21.791251496492908,-0.13978949472030955,-0.2511120272077867,1326322.0,,,,,1327.0534886590035,1323.5204886590036,
77,20,20,F,1,1,69.0,31,2,low,6 + 1 + 1 + 7 - 9,6,8,4,6,1337.2072205999866,1339.2341929000104,1340.749265499995,1345.7695125999744,1346.7966484000208,1346.7966540000052,1348.313438499987,1349.3305460999836,w,4.0,1.0271358000463806,0,+0,362,-38.550260477967484,0.17896245570065838,0.049191797187835284,1336485.0,-20.019677756878075,0.20650891746500166,0.20236290826973446,1340020.0,,,,,1340.7514886590036,1337.2164886590035,
78,20,20,F,1,1,70.0,32,4,low,4 + 9 - 7 + 8 + 5,19,21,19,20,1350.847344000009,1352.8743208000087,1354.3895637000096,1359.4080522999866,1360.4205806999817,1360.4205857000195,1361.9377463000128,1362.9552453000215,q,21.0,1.0125283999950625,0,+0,362,-10.60492504700164,-0.02023778702394896,0.21691200800458033,1350125.0,-12.500406238375316,0.4783137367821131,0.4750552470036391,1353659.0,,,,,1354.3904886590037,1350.8564886590036,
79,20,20,F,1,1,71.0,33,1,high,6 + 1 + 8 + 1 - 1,15,15,14,13,1364.4717621000018,1366.4989445999963,1368.0141194000023,1373.033484000014,1374.1566688999883,1374.1566740000271,1375.6731207999983,1376.6902711000291,q,15.0,1.1231848999741487,1,+10,372,13.714202326213583,-0.13882836505238494,0.11080954713624358,1363750.0,0.6445816357715248,-0.18753617026701175,0.05224614099293845,1367284.0,,,,,1368.0154886590037,1364.4814886590036,
80,20,20,F,1,1,72.0,34,4,low,8 + 7 - 4 + 5 + 9,25,26,24,25,1378.207325800031,1380.234285500017,1381.7492371000117,1386.7676084000268,1390.1645829000045,1390.1645887999912,1391.6812632000074,1392.6981612999807,q,26.0,3.3969744999776594,0,+0,372,-9.901363081250466,-0.43388125807236166,0.21722490617501666,1377485.0,9.808990326350969,-0.22172872197282345,-0.3374310098273363,1381018.0,,,,,1381.7494886590036,1378.2164886590035,
81,20,20,F,1,1,73.0,35,1,high,3 + 1 + 1 + 8 - 1,12,12,14,13,1394.2149370000116,1396.2399403000018,1397.7551346999826,1402.7731140999822,1403.7805490000171,1403.780554099998,1405.297056899988,1406.3143711999874,q,12.0,1.0074349000351503,1,+10,382,7.4560885926855915,-0.47404696565140636,-0.06901994279224022,1393491.0,14.72591410849778,0.1532769520046311,0.022071236625943236,1397024.0,,,,,1397.7554886590035,1394.2224886590036,
82,20,20,F,1,1,74.0,36,4,low,4 + 7 + 9 - 5 + 7,22,24,23,22,1407.831447799981,1409.8579218999948,1411.3726598999929,1416.3910721000284,1417.6206033999915,1417.620613600011,1419.1371605999884,1420.154074900027,e,22.0,1.2295312999631278,1,+1,383,4.782747282765401,-0.02751785206067936,-0.1511024037944093,1407109.0,41.84505641567612,-0.1013292749491086,0.04148103929906499,1410642.0,,,,,1411.3734886590037,1407.8404886590035,
83,20,20,F,1,1,75.0,37,3,high,4 + 1 + 8 + 9 - 5,17,17,19,18,1421.6709238999756,1423.6969034000067,1425.2118627000018,1430.2300928999905,1432.796535899979,1432.7965408000164,1434.3132477999898,1435.3306582000223,e,18.0,2.5664429999887943,0,+0,383,20.113682080033,-0.08820703406023167,-0.17973977059229274,1420947.0,-6.372831771102302,0.0684874980662773,-0.19240421773143623,1424481.0,,,,,1425.2124886590036,1421.6784886590035,
84,20,20,F,1,2,76.0,0,2,low,8 + 1 + 4 - 7 + 1,7,7,6,5,1468.5767910000286,1470.60299330001,1472.1182404999854,1477.138275299978,1478.1484689000065,1478.1484736999846,1479.6651046000188,1480.6817256999784,q,7.0,1.0101936000282876,1,+1,384,2.424496306104208,0.11760117054195485,0.1294120178542033,1467854.0,10.697769965560859,-0.32395596297113904,0.014157586627803198,1471389.0,,,,,1472.1204886590035,1468.5854886590037,
85,20,20,F,1,2,77.0,1,2,low,4 + 9 - 7 + 1 - 1,6,5,8,6,1482.1985544000054,1484.2205544000026,1485.7352376999916,1490.7536433999776,1492.3085208000266,1492.308526000008,1493.8249573999783,1494.8419901999878,w,8.0,1.5548774000490084,0,+0,384,-18.421184526131782,0.13754256100932416,0.015204364921443503,1481471.0,44.57261315592477,0.080066880582921,0.1602830786713494,1485004.0,,,,,1485.7354886590035,1482.2024886590036,
86,20,20,F,1,2,78.0,2,2,low,7 + 1 + 9 - 1 - 8,8,6,8,7,1496.3588875000132,1498.3805316999787,1499.8953727000044,1504.9140334000112,1506.9725738000125,1506.972579299996,1508.4891212999937,1509.5063027000288,e,7.0,2.0585404000012204,0,+0,384,-4.350533841684095,0.1416292141030704,0.13102044113603473,1495631.0,3.747196623040944,-0.03205341638574932,0.21538597854305475,1499164.0,,,,,1499.8954886590036,1496.3624886590037,
87,20,20,F,1,2,79.0,3,1,low,8 + 1 + 1 - 1 - 4,5,6,3,5,1511.0227327999892,1513.050850300002,1514.5662327000173,1519.584481500031,1520.9644159000018,1520.96442069998,1522.480811699992,1523.4977177000255,e,5.0,1.3799343999708071,1,+1,385,7.887298197390599,0.009415216645612734,-0.009054954376264801,1510301.0,-12.900739370385264,0.06042545213556094,0.10104719062673828,1513835.0,,,,,1514.5664886590037,1511.0324886590035,
88,20,20,F,1,2,80.0,4,4,high,4 + 8 + 9 - 3 + 7,25,24,26,25,1525.0144628999988,1527.042781999975,1528.5581401999807,1533.5768885000143,1535.2204914999893,1535.2204969000304,1536.737827999983,1537.7548410000163,w,26.0,1.6436029999749735,0,+0,385,5.025834294001841,0.023978944581747985,-0.03702948020890484,1524293.0,-11.92169428930805,0.007269623752960808,0.04072493002480182,1527827.0,,,,,1528.5584886590036,1525.0244886590035,
89,20,20,F,1,2,81.0,5,2,high,4 + 8 + 1 + 1 - 5,9,11,8,9,1539.2721001000027,1541.2979056999902,1542.81314079999,1547.8312174999735,1548.9244403999764,1548.9244457000168,1550.4414978999994,1551.4587096999749,e,9.0,1.0932229000027291,1,+10,395,-45.98616920435286,-0.19943430562939657,-0.11477050631295493,1538548.0,18.82334116167371,-0.11389088503358291,-0.009300207354485446,1542082.0,,,,,1542.8134886590037,1539.2794886590036,
90,20,20,F,1,2,82.0,6,4,low,6 + 5 - 7 + 8 - 9,3,5,4,3,1552.9755347999744,1554.999473600008,1556.514560199983,1561.532591300027,1562.6924231000012,1562.692428499984,1564.2087710999767,1565.225751799997,e,3.0,1.1598317999741994,1,+1,396,11.234332908235745,-0.018242341536580664,0.20510701753155947,1552250.0,-10.169258069296069,0.0014894464060724033,0.02147149898449796,1555783.0,,,,,1556.5144886590035,1552.9814886590036,
91,20,20,F,1,2,83.0,7,3,high,4 + 7 - 3 + 5 - 1,12,12,13,11,1566.742221100023,1568.7693012999953,1570.2843725000275,1575.3031657999963,1576.396320800006,1576.396326099988,1577.9128703000024,1578.9300102000125,q,12.0,1.093155000009574,1,+10,406,15.431246720416798,0.2465161551263333,-0.08913542935238117,1566020.0,6.575006733098071,0.13241473583304897,0.10766613618938603,1569554.0,,,,,1570.2854886590037,1566.7514886590036,
92,20,20,F,1,2,84.0,8,1,low,3 + 1 + 1 + 9 - 1,13,12,13,14,1580.4467107999951,1582.4741418000194,1583.989387699985,1589.0076012000209,1590.1323248000117,1590.1323293999883,1591.6483417000272,1592.6651837999816,w,13.0,1.1247235999908298,1,+1,407,-4.124151185196642,0.10985692266917058,0.18580014913898601,1579724.0,-40.38555209157299,-0.13817152869593485,-0.027766698336346485,1583258.0,,,,,1583.9894886590037,1580.4554886590035,
93,20,20,F,1,2,85.0,9,1,low,9 + 8 + 1 + 1 - 1,18,17,18,19,1594.1819968000054,1596.2049687000108,1597.7203899000306,1602.7389446999878,1603.7962820000248,1603.796287000005,1605.313113400014,1606.3300286000012,w,18.0,1.057337300037034,1,+1,408,3.693942712661576,0.22945707100806612,-0.03284832228627543,1593455.0,54.607414368746234,-0.03614585498986678,0.10015017585428243,1596989.0,,,,,1597.7204886590036,1594.1864886590035,
94,20,20,F,1,2,86.0,10,4,high,8 + 5 - 4 + 7 + 9,25,26,24,25,1607.846909600019,1609.8747215999756,1611.3899029000313,1616.4085365000064,1618.6443046000204,1618.6443094999995,1620.1611782999826,1621.178435800015,e,25.0,2.2357681000139564,1,+10,418,-4.7306563203239005,0.10039328302716832,0.16185895619316293,1607125.0,15.270878836483757,-0.3863435279985623,-0.06105641920771987,1610659.0,,,,,1611.3904886590037,1607.8564886590036,
95,20,20,F,1,2,87.0,11,2,high,9 + 1 + 6 + 7 + 1,24,25,24,23,1622.6961343000294,1624.7235533000205,1626.2387348000193,1631.2567513000104,1632.6362329000258,1632.636237700004,1634.1524244999746,1635.169171400019,w,24.0,1.3794816000154242,1,+10,428,-25.236248299531194,0.12763903627277484,0.07601309243081955,1621974.0,-22.069621427310274,-0.12103974408550666,-0.02699965732533105,1625507.0,,,,,1626.2384886590037,1622.7054886590035,
96,20,20,F,1,2,88.0,12,4,low,5 + 6 - 4 + 7 + 9,23,25,24,23,1636.685719800007,1638.7085715000285,1640.2237890000106,1645.2421084999803,1646.5482223000145,1646.5482271999936,1648.0647713000071,1649.0820413000183,e,23.0,1.306113800033927,1,+1,429,9.166558047343003,0.22931298253032928,0.07733168466693363,1635959.0,14.707969860465717,-0.2156739325697572,0.02541160116321528,1639492.0,,,,,1640.2234886590036,1636.6904886590037,
97,20,20,F,1,2,89.0,13,4,low,3 + 8 - 4 + 9 + 7,23,24,23,22,1650.59871619998,1652.6203602000023,1654.135543100012,1659.1539148000302,1661.556243799976,1661.556248900015,1663.072594999976,1664.0891515000258,w,23.0,2.402328999945894,1,+1,430,19.876821659860475,0.10305671475851375,-0.016063181033185048,1649871.0,25.46797165913546,0.13173083627598636,-0.09959514509862988,1653404.0,,,,,1654.1354886590036,1650.6024886590037,
98,20,20,F,1,2,90.0,14,4,low,3 + 8 - 5 + 9 - 7,8,6,7,8,1665.605756199977,1667.6305369000183,1669.1458179000183,1674.164194700017,1676.3483160000178,1676.3483216000022,1677.864380199986,1678.8817719999934,e,8.0,2.1841213000006974,1,+1,431,-16.8337406601972,0.26457473520617025,-0.03218047860106865,1664880.0,-10.509539461587362,-0.2414522232896923,0.16880343236771456,1668414.0,,,,,1669.1454886590036,1665.6114886590037,
99,20,20,F,1,2,91.0,15,4,low,4 + 7 - 8 + 9 - 4,8,8,9,7,1680.3983793000225,1682.4233929999757,1683.9388352999813,1688.9584893999854,1689.996282999986,1689.996288400027,1691.5125575999846,1692.5294270000304,q,8.0,1.037793600000441,1,+1,432,4.462292414603805,-0.1982104983494377,0.04131497379859894,1679673.0,3.2446947370985537,0.34600472115057634,-0.05922320805069359,1683209.0,,,,,1683.9404886590037,1680.4044886590036,
100,20,20,F,1,2,92.0,16,4,high,9 + 4 - 6 + 8 + 7,22,22,21,24,1694.0459220000191,1696.0726834000088,1697.5876383000286,1702.606418500014,1704.172275000019,1704.1722800999996,1705.68893210002,1706.7063752000104,q,22.0,1.565856500004884,1,+10,442,22.492300708746196,-0.1783616456145336,0.11606600852717497,1693322.0,-2.186003728267135,0.25169237607735573,-0.05168245242964109,1696856.0,,,,,1697.5874886590036,1694.0534886590035,
101,20,20,F,1,2,93.0,17,3,low,6 - 1 + 7 - 8 + 9,13,12,11,13,1708.223124000011,1710.249272999994,1711.7645168000015,1716.783156600024,1718.5241895000215,1718.5241958000115,1720.0407708000275,1721.0577682000005,e,13.0,1.7410328999976628,1,+1,443,-2.2384291472898674,0.08152969252913822,0.052642702011990616,1707499.0,23.021272028847154,-0.1381817816840365,-0.08465163617466054,1711033.0,,,,,1711.7644886590035,1708.2304886590036,
102,20,20,F,1,2,94.0,18,3,low,8 + 5 + 1 - 7 + 9,16,17,16,14,1722.5742512000145,1724.6004006000005,1726.1155650999865,1731.134522599983,1734.2682134999775,1734.2682186000166,1735.784776800021,1736.8017705000238,w,16.0,3.13369089999469,1,+1,444,-0.1328064960448394,0.10265053721034745,0.010469197660593732,1721849.0,-10.20386319701695,-0.07051570024330944,0.0045770083636420544,1725384.0,,,,,1726.1154886590036,1722.5804886590035,
103,20,20,F,1,2,95.0,19,1,low,7 + 1 + 6 + 1 + 1,16,17,16,18,1738.3186432999792,1740.346076100017,1741.8612154999864,1746.8804020999814,1748.2201347000082,1748.2201399999904,1749.7366654999787,1750.753436799976,w,16.0,1.339732600026764,1,+1,445,-2.6454730088293754,0.15206562661311018,0.5237405985745804,1737596.0,-1.4740114671694506,-0.1103908254158732,0.12006945165274518,1741130.0,,,,,1741.8614886590037,1738.3274886590036,
104,20,20,F,1,2,96.0,20,3,high,9 - 1 + 5 - 6 + 8,15,17,15,14,1752.270257600001,1754.294746899977,1755.8099519999814,1760.82933410001,1761.8121484000003,1761.8121532999794,1763.3286625000185,1764.3459285999998,w,15.0,0.982814299990423,1,+10,455,8.75890247593204,0.11532003865525953,0.05968398682114229,1751544.0,45.90207945313692,-0.1882468524047014,-0.17863816326239612,1755079.0,,,,,1755.8104886590036,1752.2754886590037,
105,20,20,F,1,2,97.0,21,4,low,3 + 8 - 4 + 9 + 6,22,23,21,22,1765.86325330002,1767.8903109999956,1769.4054262000136,1774.4240125999786,1776.5800994000165,1776.5801039999933,1778.0965866000042,1779.1137862000032,q,23.0,2.1560868000378832,0,+0,455,-7.557385026418124,0.39696926787000075,0.038252277188400186,1765140.0,-27.444095595066997,0.2218000079149478,0.054432874105812656,1768674.0,,,,,1769.4054886590036,1765.8714886590037,
106,20,20,F,1,2,98.0,22,2,low,2 + 1 + 9 - 4 + 1,9,11,8,9,1780.6308323999983,1782.657013899996,1784.1720832000135,1789.191883700027,1790.484177700011,1790.484182699991,1792.0007605000285,1793.017813100014,e,9.0,1.2922939999843948,1,+1,456,-27.75778105910703,-0.016168674962288687,0.15407697554868305,1779906.0,-10.341875027345136,0.07747728090725392,-0.10425851857307444,1783441.0,,,,,1784.1724886590036,1780.6374886590036,
107,20,20,F,1,2,99.0,23,3,high,3 + 1 + 8 - 5 + 9,16,15,16,17,1794.534640799975,1796.5617575999931,1798.0768476999947,1803.095469199994,1804.6521552000197,1804.6521606000024,1806.1686550999875,1807.185770399985,w,16.0,1.5566860000253655,1,+10,466,22.06208635068393,-0.34708286596617066,0.02039636040840831,1793811.0,-20.467249003956535,-0.012151831288484516,-0.054565595697403824,1797344.0,,,,,1798.0754886590037,1794.5424886590035,
108,20,20,F,1,2,100.0,24,4,low,5 + 7 - 4 + 8 + 6,22,22,23,24,1808.702411599981,1810.730725899979,1812.2458320999867,1817.2642583000124,1818.2840331000043,1818.2840384999872,1819.8004263999755,1820.817759700003,q,22.0,1.0197747999918647,1,+1,467,-14.989881044951794,-0.2552261885122826,-0.14634046304384762,1807980.0,5.4632187493605215,-0.2271000382383428,0.04660057999483769,1811514.0,,,,,1812.2454886590035,1808.7114886590036,
109,20,20,F,1,2,101.0,25,3,high,7 - 1 + 9 - 5 + 4,14,13,15,14,1822.3345310000004,1824.3598499000072,1825.8752347999837,1830.8934515999863,1832.140044,1832.140048799978,1833.65646899998,1834.673563999997,e,14.0,1.2465924000134692,1,+10,477,-7.598573464992775,0.24852255878456608,0.020863190069537962,1821609.0,6.3931034041369506,-0.3350722751724873,0.037509397620842044,1825143.0,,,,,1825.8744886590036,1822.3404886590035,
110,20,20,F,1,2,102.0,26,1,high,7 - 1 + 1 + 9 - 1,15,13,15,14,1836.1907234999817,1838.2148553000295,1839.7298604000243,1844.7481338999933,1847.5562217999832,1847.556226900022,1849.0728075000225,1850.090152800025,e,14.0,2.808087899989914,0,+0,477,4.677511318021139,-0.12028289282522531,0.03497157344209412,1835464.0,-9.367302268598095,-0.10037675026219128,0.004665015060637545,1838998.0,,,,,1839.7294886590037,1836.1954886590036,
111,20,20,F,1,2,103.0,27,3,low,7 + 1 + 9 + 5 - 6,16,15,14,16,1851.6068706000224,1853.6341471999767,1855.149176899984,1860.167605000024,1863.9481055000213,1863.9481104000008,1865.465303200006,1866.4821501999977,e,16.0,3.780500499997288,1,+1,478,-28.578372097660566,0.06442665466223607,0.17149118465919444,1850883.0,32.822135222305114,0.08109454225894286,0.07605445665691235,1854417.0,,,,,1855.1484886590035,1851.6144886590037,
112,20,20,F,1,2,104.0,28,4,high,7 + 8 - 4 + 6 + 5,22,22,21,23,1867.9990775000188,1870.0245118999735,1871.5395416999816,1876.559484200028,1877.755986300006,1877.755991299986,1879.2727385999751,1880.289938699978,q,22.0,1.1965020999778062,1,+10,488,3.0743490052164706,-0.14190889323599754,0.13742500682614267,1867273.0,8.83523279130522,0.0771273638574268,0.0012398102769546337,1870809.0,,,,,1871.5404886590036,1868.0044886590035,
113,20,20,F,1,2,105.0,29,4,low,8 + 4 + 7 - 5 - 6,8,6,8,9,1881.806738300016,1883.8333667999832,1885.3486164999777,1890.367305200023,1891.6599952999968,1891.6600000999752,1893.1765217999928,1894.1931483999945,w,8.0,1.2926900999736972,1,+1,489,-9.92124083118188,-0.0056808064592219765,0.04065872215000521,1881082.0,7.88318134153211,0.047598766227371136,0.030439485482806505,1884616.0,,,,,1885.3474886590036,1881.8134886590037,
114,20,20,F,1,2,106.0,30,2,low,5 - 1 + 1 + 8 + 9,22,21,22,23,1895.709788099979,1897.7361041000115,1899.2512018000125,1904.2701057000088,1905.307947100024,1905.307952300005,1906.8244457999824,1907.841271099984,w,22.0,1.037841400015168,1,+1,490,2.480575731675504,0.16812942187666247,0.049679339899591834,1894985.0,-7.395666802108983,0.05841046680726336,0.05338302653435978,1898519.0,,,,,1899.2504886590036,1895.7164886590035,
115,20,20,F,1,2,107.0,31,4,low,9 + 8 - 5 - 7 + 6,11,11,10,13,1909.3580201999864,1911.3849211999916,1912.9001795999936,1917.919091799995,1918.9399650000269,1918.9399698000047,1920.4564738000045,1921.4731471000125,q,11.0,1.0208732000319287,1,+1,491,-19.849534067931167,0.5207651555348263,-0.012926518125374376,1908634.0,9.685384131169736,-0.18981201906577994,0.0987988581209438,1912168.0,,,,,1912.8994886590035,1909.3654886590036,
116,20,20,F,1,2,108.0,32,1,low,4 + 1 + 1 + 7 - 1,12,13,12,14,1922.9899652000167,1925.0155431000169,1926.530755100015,1931.5504389000123,1932.6118963999909,1932.6119014000287,1934.128557500022,1935.1457792000149,w,12.0,1.0614574999781323,1,+1,492,14.009145446259241,-0.050312723697523154,0.16112468033940575,1922265.0,13.110781955591893,0.0683140553906818,0.03227997739891375,1925800.0,,,,,1926.5314886590036,1922.9964886590037,
117,20,20,F,1,2,109.0,33,3,high,2 + 9 - 3 + 4 + 1,13,14,11,13,1936.6622839000192,1938.6882150999736,1940.2033826999832,1945.22200910002,1947.700106500008,1947.7001119999916,1949.2162542000297,1950.2334778999796,q,14.0,2.478097399987746,0,+0,492,15.81610072843575,0.34628059167055225,-0.0030395942143230936,1935937.0,1.5955324046604444,-0.043960288535688896,0.10609619534789716,1939471.0,,,,,1940.2024886590036,1936.6684886590035,
118,20,20,F,1,2,110.0,34,1,low,9 + 1 + 1 + 7 - 1,17,17,19,16,1951.7502220000024,1953.778066400031,1955.293285700027,1960.311769700027,1961.435988400015,1961.4359931999932,1962.9524425999844,1963.969303300022,q,17.0,1.1242186999879775,1,+1,493,-7.261721162381452,-0.36396341665962106,-0.05153830666906423,1951026.0,21.56150415398357,-0.08787004427534306,0.0067586668858790055,1954561.0,,,,,1955.2924886590035,1951.7574886590037,
119,20,20,F,1,2,111.0,35,4,high,3 + 8 - 7 + 9 - 5,8,8,9,7,1965.486551799986,1967.512646600022,1969.0278082999864,1974.045961500029,1975.0999635999904,1975.0999693999763,1976.6165387000076,1977.6335889999757,q,8.0,1.054002099961508,1,+10,503,-5.654492418771815,0.08987816699406537,0.07429935982261249,1964762.0,48.48358175519011,-0.4025499317142569,0.014533031525974627,1968295.0,,,,,1969.0264886590037,1965.4934886590036,
120,20,20,F,1,2,112.0,36,4,high,7 + 6 - 9 + 8 - 3,9,7,9,8,1979.150054100028,1981.1743472000237,1982.689625900006,1987.7081329000064,1988.8278990000251,1988.8279046000096,1990.344463800022,1991.3616606,w,9.0,1.1197661000187509,1,+10,513,0.5408802033940123,0.35495387466329165,-0.00021890738037422253,1978423.0,3.008701429690511,-0.12063443416416808,0.07689579436854332,1981957.0,,,,,1982.6884886590037,1979.1544886590036,
121,20,20,F,1,2,113.0,37,3,high,6 - 1 + 7 - 8 + 9,13,12,11,13,1992.878424399998,1994.90292339999,1996.4182084000204,2001.4367403999784,2002.5478270999736,2002.547832500015,2004.0642623000315,2005.0815912000253,e,13.0,1.1110866999952125,1,+10,523,-0.4352865522546523,-0.09459986469341608,0.07091345064877896,1992152.0,2.9080925871406045,-0.1613713513722863,0.03580129092032713,1995686.0,,,,,1996.4174886590035,1992.8834886590037,
122,20,20,F,1,3,114.0,0,4,low,4 + 7 + 8 - 3 + 9,25,25,26,24,2044.0713387000144,2046.0973665000056,2047.6124228999836,2052.631475000002,2053.803765600024,2053.803770300001,2055.320548099989,2056.3373553000274,q,25.0,1.1722906000213698,1,+1,524,24.536813762750512,-0.669671013688599,-0.12318526348909709,2043346.0,-2.1905444903604234,0.028661653641675944,0.22436567612079594,2046880.0,,,,,2047.6114886590037,2044.0774886590036,
123,20,20,F,1,3,115.0,1,3,high,8 + 3 + 1 - 7 + 9,14,12,15,14,2057.8540028000134,2059.882058500021,2061.397440999979,2066.416116599983,2067.6037916999776,2067.6037977000237,2069.1203830000013,2070.1376521000057,e,14.0,1.1876750999945216,1,+10,534,-25.812582278025356,0.18113932992839255,-0.05119420120109508,2057131.0,-23.19349041952585,0.003944832709829038,-0.11699022705387474,2060665.0,,,,,2061.3964886590034,2057.8624886590032,
124,20,20,F,1,3,116.0,2,4,low,5 + 7 - 4 + 6 + 9,23,25,23,24,2071.654750899994,2073.680861200032,2075.195972800022,2080.2159865000285,2084.02775389998,2084.027758600016,2085.5442935000174,2086.561246800004,w,23.0,3.81176739995135,1,+1,535,2.7223743419267254,0.30501555866524765,0.12280281758851075,2070929.0,14.56283407504862,-0.24419803625705727,0.24593304567261787,2074464.0,,,,,2075.1954886590033,2071.6604886590035,
125,20,20,F,1,3,117.0,3,3,high,5 + 6 - 4 - 1 + 7,13,13,14,15,2088.077938099974,2090.101932300022,2091.617190800025,2096.635320600006,2097.707778299984,2097.7077832000214,2099.2253089000005,2100.242649300024,q,13.0,1.0724576999782585,1,+10,545,11.345022988041178,0.24143290664771033,0.10395314143285939,2087350.0,6.869501911992154,0.03666574496129038,0.08782659129282888,2090884.0,,,,,2091.6154886590034,2088.0814886590033,
126,20,20,F,1,3,118.0,4,1,high,7 + 1 + 4 + 1 - 1,12,12,11,13,2101.7595436000265,2103.784305499983,2105.2995912000188,2110.3179987000185,2111.4440694000223,2111.444074400002,2112.9603754000277,2113.977575899975,q,12.0,1.1260707000037655,1,+10,555,4.7061019977712295,0.20903607046474848,0.12070580989045032,2101033.0,29.40063590585185,0.16494270236671071,0.07627534223460541,2104566.0,,,,,2105.297488659003,2101.7644886590033,
127,20,20,F,1,3,119.0,5,1,low,7 + 1 + 4 + 1 - 1,12,13,12,14,2115.494445700024,2117.5200453000143,2119.035391399986,2124.0538952000206,2125.0997811999987,2125.0997861999786,2126.6163205999765,2127.6335336000197,w,12.0,1.0458859999780543,1,+1,556,25.324409337000272,0.18445881661524588,0.07378294461119683,2114769.0,10.665574551153043,0.09187178751441483,0.03817330115939477,2118302.0,,,,,2119.0334886590035,2115.500488659003,
128,20,20,F,1,3,120.0,6,2,low,6 + 1 + 8 + 5 - 1,19,19,17,18,2129.150067700015,2131.1779278999893,2132.693133499997,2137.711328600009,2138.715742999979,2138.715748000017,2140.2318417999777,2141.248650600028,q,19.0,1.0044143999693915,1,+1,557,12.716437574579535,-0.0595207088109424,-0.11215016555298707,2128426.0,-0.6917101905481484,0.02871762755280005,-0.02730935695412562,2131960.0,,,,,2132.6914886590034,2129.1574886590033,
129,20,20,F,1,3,121.0,7,4,high,2 + 5 - 3 + 9 + 8,21,19,22,21,2142.765241199988,2144.7908510999987,2146.306126200012,2151.32606500003,2152.619753499981,2152.6197583000176,2154.1362679000013,2155.153582500003,e,21.0,1.2936884999508038,1,+10,567,-25.757328885416836,0.2439202406458063,0.06914520901810572,2142039.0,5.085957405179917,0.20918263245025726,0.03782788956490668,2145574.0,,,,,2146.3054886590035,2142.7704886590036,
130,20,20,F,1,3,122.0,8,3,low,5 + 7 + 1 - 4 + 6,15,17,13,15,2156.6700955000124,2158.693885100016,2160.209007300029,2165.227591699979,2166.419750600005,2166.4197555999854,2167.936298899993,2168.953226200014,e,15.0,1.1921589000266977,1,+1,568,-6.376523514614194,0.10070779761139104,-0.05679356359564247,2155942.0,39.15272981550906,-0.061751842138545676,0.06841269164739217,2159476.0,,,,,2160.2074886590035,2156.6734886590034,
131,20,20,F,1,3,123.0,9,2,high,4 + 8 + 1 + 1 - 6,8,7,9,8,2170.470160799974,2172.496838900028,2174.011834200006,2179.029993199976,2180.1717398000183,2180.171744899999,2181.6880323999794,2182.7054333999986,e,8.0,1.1417466000420973,1,+10,578,2.085645779125538,-0.07966365104946549,-0.1303070498874419,2169745.0,26.62545507539994,-0.014956419613883831,0.09735019412157886,2173278.0,,,,,2174.009488659003,2170.4764886590033,
132,20,20,F,1,3,124.0,10,3,low,2 + 1 + 9 - 7 + 6,11,13,12,11,2184.22215039999,2186.2500019000145,2187.765360800025,2192.7836720999912,2194.0596515000216,2194.059656700003,2195.5760432999814,2196.593041000014,e,11.0,1.2759794000303373,1,+1,579,16.174346803978317,0.1744586773104062,0.13670547748712014,2183498.0,-37.403109209762064,0.07599451848958871,-0.1322262291760734,2187032.0,,,,,2187.7634886590035,2184.2294886590034,
133,20,20,F,1,3,125.0,11,1,high,3 + 1 + 8 + 1 + 1,14,14,12,13,2198.109974800027,2200.1333606999838,2201.6482574000256,2206.6663959000143,2207.6036833000253,2207.603688300005,2209.1200914999936,2210.1371154999943,q,14.0,0.9372874000109732,1,+10,589,3.3066292119702485,-0.07681109227000205,-0.03564062151730729,2197381.0,-40.152638456431845,-0.2342085586332856,-0.07605028565056271,2200914.0,,,,,2201.6454886590036,2198.1124886590032,
134,20,20,F,1,3,126.0,12,2,high,3 + 1 + 8 - 5 - 1,6,5,7,6,2211.6538056000136,2213.6773233999847,2215.1923209999804,2220.2108916,2221.3315766000305,2221.3315819000127,2222.8481478000176,2223.865462400019,e,6.0,1.1206850000307895,1,+10,599,-54.731873279351056,0.28635298683004806,0.2326567024508699,2210925.0,3.639827026636784,-0.1222716677575324,0.20165330465044295,2214459.0,,,,,2215.190488659003,2211.6564886590036,
135,20,20,F,1,3,127.0,13,2,low,3 + 8 + 1 - 5 + 1,8,6,9,8,2225.382681999996,2227.410370800004,2228.925629800011,2233.944166900008,2236.34766020003,2236.34766520001,2237.864178000018,2238.881072500022,e,8.0,2.403493300022092,1,+1,600,-13.786632618562962,-0.25133133412174,0.09604832806416264,2224658.0,9.664175941957279,0.12368431798537793,0.021676227202475307,2228192.0,,,,,2228.9234886590034,2225.3894886590033,
136,20,20,F,1,3,128.0,14,1,high,6 + 9 + 1 + 1 - 1,16,14,16,15,2240.3977890000097,2242.425095000013,2243.9402711000293,2248.958276199992,2250.0755738000157,2250.0755786999944,2251.5923422999917,2252.60957879998,w,16.0,1.1172976000234485,1,+10,610,-40.17475531691761,0.10635575970676792,0.1762987027062093,2239673.0,10.75530363339241,-0.15063204870557279,0.17633469339613717,2243206.0,,,,,2243.9374886590035,2240.404488659003,
137,20,20,F,1,3,129.0,15,3,low,8 - 7 + 9 + 1 + 4,15,16,14,15,2254.1269201000105,2256.150815800007,2257.666042099998,2262.68433790002,2265.1155148000107,2265.1155201999936,2266.6319879000075,2267.6491007999866,w,14.0,2.4311768999905325,0,+0,610,19.02744448712302,0.10142649191735975,0.034735773066833175,2253399.0,-10.59721889561041,-0.026091162040760008,-0.13054581565869539,2256932.0,,,,,2257.663488659003,2254.1304886590033,
138,20,20,F,1,3,130.0,16,1,high,6 + 9 + 1 + 1 - 1,16,16,14,15,2269.1659922000254,2271.1908128000214,2272.7061272999854,2277.723958700022,2278.915490299987,2278.9154956000275,2280.4321476999903,2281.449489700026,q,16.0,1.1915315999649465,1,+10,620,11.15084270360868,-0.1237541601081511,-0.09797339944497008,2268439.0,-31.052853236442214,-0.2390737374530283,-0.022389170661056834,2271972.0,,,,,2272.7034886590036,2269.1704886590032,
139,20,20,F,1,3,131.0,17,3,high,4 + 7 + 1 + 9 - 5,16,18,17,16,2282.9663860999863,2284.9912132999743,2286.506603599992,2291.5245084000053,2293.067594800028,2293.0676000000094,2294.5840783999884,2295.601284399978,e,16.0,1.5430864000227302,1,+10,630,-5.210321061060135,-0.01800240216732618,-0.05161836807280262,2282239.0,30.818817770669078,0.09705072445661989,0.10977471691659457,2285773.0,,,,,2286.5044886590035,2282.9704886590034,
140,20,20,F,1,3,132.0,18,2,low,2 + 9 - 4 + 1 + 1,9,8,9,11,2297.1179633000284,2299.1433923000004,2300.6587052000104,2305.6769849000266,2307.0755326999933,2307.0755378999747,2308.592222900013,2309.6095969000016,w,9.0,1.3985477999667637,1,+1,631,14.926312818171747,0.26056109993018994,0.0692721905945588,2296391.0,-4.203325423016281,0.3401352942137825,-0.08302206320635985,2299925.0,,,,,2300.6564886590036,2297.1224886590035,
141,20,20,F,1,3,133.0,19,1,low,8 + 1 + 5 + 1 + 1,16,17,16,15,2311.126289899985,2313.152483600017,2314.667605100025,2319.686720099998,2321.395468599978,2321.3954737000167,2322.912017500028,2323.9289334000205,w,16.0,1.708748499979265,1,+1,632,5.541921225673501,0.21591191873711146,-0.03257851176522042,2310400.0,-0.8223451235547596,0.017430016237623747,0.1686219181667341,2313934.0,,,,,2314.6654886590036,2311.1314886590035,
142,20,20,F,1,3,134.0,20,2,low,4 + 9 + 1 - 7 - 1,6,8,6,5,2325.445706999977,2327.4726870000013,2328.987643899978,2334.006193600013,2334.9235281000147,2334.9235330999945,2336.4400437999866,2337.45674210001,w,6.0,0.9173345000017434,1,+1,633,-0.2826849015831462,0.32275813349516547,0.062323206599808056,2324721.0,9.721767836889148,-0.005041428561448846,0.20137022661962423,2328254.0,,,,,2328.9854886590033,2325.4524886590034,
143,20,20,F,1,3,135.0,21,3,low,3 + 1 + 8 - 5 + 6,13,14,13,15,2338.974089000025,2340.999890899984,2342.5150934000267,2347.533205099986,2348.827659100003,2348.8276638999814,2350.344181100023,2351.360860900022,w,13.0,1.29445400001714,1,+1,634,2.156556313338628,-0.08000164252531627,0.10704835108096589,2338247.0,47.71509337180464,0.1575531712534488,0.16393551098064973,2341781.0,,,,,2342.5124886590033,2338.9784886590032,
144,20,20,F,1,3,136.0,22,1,high,3 + 1 + 9 + 1 - 1,13,12,13,14,2352.8771506000194,2354.9023550000275,2356.4174385999795,2361.435826900008,2362.483470499981,2362.483475100016,2364.0000838999986,2365.0173850000137,w,13.0,1.047643599973526,1,+10,644,5.036824819513539,-0.1135266770682728,0.14662791398160668,2352149.0,15.503814985544052,0.09816228520489823,-0.028730322508937034,2355683.0,,,,,2356.4144886590034,2352.8804886590033,
145,20,20,F,1,3,137.0,23,3,high,3 - 7 + 5 + 1 + 9,11,11,12,13,2366.534100799996,2368.561557399982,2370.07674540003,2375.0952326999977,2376.243450900016,2376.243456299999,2377.760494099988,2378.777737700031,q,11.0,1.1482182000181638,1,+10,654,-4.946221278811809,0.2366054059402034,0.0334773290850805,2365809.0,-27.16430323894696,0.10153566678119619,0.12491917349044757,2369343.0,,,,,2370.0744886590032,2366.5404886590036,
146,20,20,F,1,3,138.0,24,2,high,6 + 8 + 1 + 1 - 7,9,8,11,9,2380.294008900004,2382.3217803000007,2383.837618599995,2388.8561341000022,2390.11544959998,2390.115454600018,2391.631779599993,2392.648904200003,e,9.0,1.2593154999776743,1,+10,664,-4.412157598992561,0.07795492038245255,0.026098637116005907,2379569.0,-20.558861627312808,0.14366198995001112,0.11062689724718378,2383104.0,,,,,2383.835488659003,2380.3004886590033,
147,20,20,F,1,3,139.0,25,1,high,7 + 1 + 4 + 1 - 1,12,13,11,12,2394.16558869998,2396.191474899999,2397.7065550999832,2402.727171299979,2403.8514249,2403.8514299999806,2405.367609900015,2406.3845742000267,e,12.0,1.124253600020893,1,+10,674,-2.005719793211121,0.3542116403201705,-0.018595398576724653,2393439.0,7.2219764233551835,-0.12456427955481297,0.0009156358159181366,2396975.0,,,,,2397.7064886590033,2394.1704886590032,
148,20,20,F,1,3,140.0,26,4,high,8 + 3 - 4 + 5 + 9,21,22,21,23,2407.901279499987,2409.925024600001,2411.4399912999943,2416.4579023999977,2417.507467599993,2417.507472999976,2419.023959800019,2420.041259600024,w,21.0,1.0495651999954134,1,+10,684,-25.18512333179093,0.1414344261525109,0.12661313378051298,2407172.0,17.61938850372982,0.05052177639595401,-0.19986141651385525,2410705.0,,,,,2411.4364886590033,2407.9034886590034,
149,20,20,F,1,3,141.0,27,4,low,4 + 7 + 8 - 3 + 9,25,24,25,26,2421.558280800004,2423.58395400003,2425.099066500028,2430.117321799975,2431.5874540000223,2431.587459900009,2433.104682400008,2434.122089200013,q,24.0,1.4701322000473738,0,+0,684,-0.09657590539667593,0.05461840878917856,0.23241083906968063,2420831.0,20.577260783769283,-0.20100886591692024,-0.12868431918208478,2424365.0,,,,,2425.096488659003,2421.5624886590035,
150,20,20,F,1,3,142.0,28,3,low,5 - 1 - 4 + 6 + 7,13,13,15,14,2435.639537599985,2437.667091900017,2439.1822756999754,2444.200599199976,2445.187360299984,2445.187365500024,2446.702937000024,2447.7197015000274,q,13.0,0.9867611000081524,1,+1,685,9.93257673933233,0.10817067808676128,-0.059686479610158605,2434914.0,-12.034642873448703,-0.35642572548178597,-0.10342990313438927,2438448.0,,,,,2439.1794886590033,2435.6454886590036,
151,20,20,F,1,3,143.0,29,3,high,7 - 6 + 8 + 1 + 7,17,15,16,17,2449.2364388999995,2451.2587733999826,2452.774017299991,2457.7927675999817,2458.835379099997,2458.835384099977,2460.3519995000097,2461.3693978000083,e,17.0,1.0426115000154823,1,+10,695,-6.29343628055754,-0.12924226447710918,-5.619145948885136,2448506.0,-14.829588452543243,0.019943915809281787,-0.08002181942750086,2452040.0,,,,,2452.7714886590034,2449.2374886590032,
152,20,20,F,1,3,144.0,30,2,high,9 + 6 + 1 + 7 + 1,24,24,25,23,2462.8862050999887,2464.9104691999964,2466.425284500001,2471.4430173999863,2472.6673864999902,2472.66739170003,2474.1840669999947,2475.2009931000066,q,24.0,1.224369100003969,1,+10,705,-36.66905031592627,-0.3143476250599879,0.035695601258177945,2462157.0,-3.9966144384134132,0.2058890556479116,-0.12548475413323978,2465690.0,,,,,2466.4214886590034,2462.8884886590035,
153,20,20,F,1,3,145.0,31,2,low,4 + 1 + 9 + 1 - 6,9,9,8,7,2476.717755999998,2478.745369100012,2480.260381,2485.2785739999963,2487.139387700008,2487.139392799989,2488.6560679000104,2489.6730662999908,e,7.0,1.8608137000119316,0,+0,705,-74.04499749523963,-0.040612526805257065,-0.022308780563713437,2475992.0,-20.44492132054072,-0.09296720585854779,-0.09960313506254592,2479526.0,,,,,2480.2574886590032,2476.7234886590036,
154,20,20,F,1,3,146.0,32,3,high,8 + 6 - 7 + 1 - 4,4,3,5,4,2491.189682700031,2493.2165200000163,2494.731475899985,2499.750284000009,2500.8993055999745,2500.899311000016,2502.4154980999883,2503.432528799982,e,4.0,1.1490215999656357,1,+10,715,-13.989327882932583,0.07279766146600908,0.006501335837123534,2490463.0,-29.479745209445994,0.1460562838083983,0.08793328910439824,2493997.0,,,,,2494.7284886590032,2491.1944886590036,
155,20,20,F,1,3,147.0,33,2,high,9 + 4 + 5 + 1 - 1,18,19,18,17,2504.9503118,2506.97772840003,2508.492744399992,2513.5106350000133,2514.523318200023,2514.5233233000035,2516.0397607000195,2517.0579699000227,w,18.0,1.0126832000096329,1,+10,725,12.315436572554333,-0.08927871936099807,0.048016947079497774,2504225.0,1.5563343040473718,-0.01765693339956398,0.056866551921550546,2507758.0,,,,,2508.489488659003,2504.9564886590033,
156,20,20,F,1,3,148.0,34,4,high,6 + 9 - 7 + 8 - 5,11,11,12,13,2518.574681500031,2520.6019655999844,2522.117145200027,2527.137063300004,2529.1953645999893,2529.1953700000304,2530.7113495999947,2531.728028099984,q,11.0,2.0583012999850325,1,+10,735,-11.005956482025496,0.017733766663589723,0.05179784333989246,2517849.0,20.217944768401136,0.08345411033821559,0.05620803086349868,2521384.0,,,,,2522.1154886590034,2518.5804886590035,
157,20,20,F,1,3,149.0,35,4,low,4 + 7 - 8 + 9 - 3,9,8,9,11,2533.2453407000285,2535.27208840003,2536.78792849998,2541.8065621000133,2543.091220800008,2543.091225899989,2544.607957599976,2545.624883899989,w,9.0,1.2846586999949068,1,+1,736,5.219432725685439,0.18849226113227413,-0.12955280535746683,2532519.0,-3.132405429540281,-0.05608568068234332,-0.09656956913220704,2536053.0,,,,,2536.7844886590033,2533.250488659003,
158,20,20,F,1,3,150.0,36,4,high,7 + 6 - 4 + 9 - 5,13,12,13,14,2547.141657500004,2549.1700734000187,2550.6853064000024,2555.7040229000268,2556.6512055000057,2556.651210299984,2558.1678655000287,2559.1851552000157,w,13.0,0.9471825999789872,1,+10,746,-3.478612902712081,-0.010315325856260715,-0.127656476930613,2546417.0,-11.923252985376877,0.1291068368098287,-0.06067218207282776,2549951.0,,,,,2550.6824886590034,2547.1484886590033,
159,20,20,F,1,3,151.0,37,4,high,7 + 8 - 4 + 6 - 5,12,11,12,13,2560.701831399987,2562.725700300012,2564.2406845000223,2569.259278299985,2570.2671890999773,2570.2671944000176,2571.783604700002,2572.8007798999897,w,12.0,1.007910799991805,1,+10,756,-13.109906766902458,0.21536815104463103,0.11013297544844791,2559973.0,21.72498740641511,0.2980200949600835,-0.3014743901544956,2563506.0,,,,,2564.2374886590032,2560.7044886590033,
160,20,20,F,1,4,152.0,0,1,high,5 + 6 + 1 + 1 + 1,14,14,16,13,2647.151578799996,2649.176582699991,2650.691931199981,2655.7103728000075,2656.7951474,2656.79515239998,2658.311577800021,2659.328723200015,q,14.0,1.08477459999267,1,+10,766,15.581590221416985,0.4130841053710328,-1.0469290334636048,2646423.0,9.161780926210263,0.11335205019538819,0.22275059240497175,2649957.0,,,,,2650.6884886590033,2647.154488659003,
161,20,20,F,1,4,153.0,1,2,low,8 + 1 + 7 + 1 - 4,13,14,13,12,2660.8457390000112,2662.8734769999865,2664.388667199993,2669.4075247999863,2670.4591553999926,2670.45916030003,2671.9756178000243,2672.9923315999918,w,13.0,1.0516306000063196,1,+1,767,7.511161968673702,0.17820299383332383,0.1629017992419426,2660119.0,-7.955696422638191,0.16138112427231488,0.2523676723857635,2663654.0,,,,,2664.3854886590034,2660.8504886590035,
162,20,20,F,1,4,154.0,2,4,low,9 + 3 - 5 + 8 + 6,21,23,19,21,2674.509185399977,2676.5351970000197,2678.0501269000238,2683.0691005000263,2684.3950855000294,2684.395090500009,2685.9116292999825,2686.928230600024,e,21.0,1.3259850000031292,1,+1,768,28.834699226372337,-0.041226544951766364,0.11680007554168448,2673782.0,-0.6584368796643352,-0.06760961922292563,-0.33847579842749065,2677315.0,,,,,2678.0464886590034,2674.5134886590035,
163,20,20,F,1,4,155.0,3,4,high,6 + 9 + 7 - 3 - 5,14,14,15,13,2688.44497349998,2690.4719971999875,2691.9870713999844,2697.005672200001,2697.931081500021,2697.931086700002,2699.448743599991,2700.4653590000235,q,14.0,0.9254093000199646,1,+10,778,11.890902875353694,0.056118087069414235,0.03670811421509734,2687718.0,-16.71745191475921,-0.1444465052388617,-0.14307151549306685,2691252.0,,,,,2691.9834886590033,2688.4494886590032,
164,20,20,F,1,4,156.0,4,1,low,3 + 1 + 8 - 1 + 1,12,10,13,12,2701.982200000028,2704.007332100009,2705.522523800028,2710.5412292000256,2711.843153900001,2711.843159199984,2713.359682300012,2714.376270000008,e,12.0,1.3019246999756433,1,+1,779,-4.199963224739443,0.02367965862289334,-0.014121922390819108,2701254.0,-17.540237702735567,0.03326346877051223,-0.38771560871855026,2704788.0,,,,,2705.5194886590034,2701.9854886590033,
165,20,20,F,1,4,157.0,5,1,low,2 + 1 + 1 + 9 - 1,12,11,12,13,2715.8926748000085,2717.917128600005,2719.432358500024,2724.450632799999,2725.419141100021,2725.419146500004,2726.935705000011,2727.952468800009,w,12.0,0.968508300022222,1,+1,780,3.0799798986175455,0.013125865876451037,-0.38961193008321615,2715163.0,6.679408138727274,-0.1251577178436707,-0.21364924316894474,2718697.0,,,,,2719.4284886590035,2715.8944886590034,
166,20,20,F,1,4,158.0,6,4,high,2 + 9 - 6 + 8 - 4,9,7,11,9,2729.4688977000187,2731.4948246999998,2733.01007150003,2738.028640899982,2739.1230488999863,2739.123053700023,2740.639622799994,2741.6569290999905,e,9.0,1.0944080000044778,1,+10,790,-26.821769278385247,0.06068893515955054,0.16879286282651718,2728741.0,9.95663355512556,0.05935171006283624,0.5373095379787918,2732275.0,,,,,2733.0064886590035,2729.4724886590034,
167,20,20,F,1,4,159.0,7,2,high,7 + 6 + 1 - 1 - 8,5,3,5,4,2743.1736694999854,2745.2010793000227,2746.716274200008,2751.735396199976,2752.595012900012,2752.595017899992,2754.111504200031,2755.1287735999795,w,5.0,0.8596167000359856,1,+10,800,-15.504301872642756,-0.03846684434376102,0.1712825585112725,2742447.0,3.5299226958371257,0.10801418948133645,-0.3914400326359595,2745981.0,,,,,2746.7124886590036,2743.1784886590035,
168,20,20,F,1,4,160.0,8,2,low,5 + 8 + 1 - 1 + 9,22,21,23,22,2756.645612500026,2758.6706679000054,2760.1859567000065,2765.204894999973,2766.7710603000014,2766.771065599984,2768.287893300003,2769.304780300008,e,22.0,1.566165300027933,1,+1,801,11.915703737198506,0.032883353057804765,0.3414283517085823,2755917.0,-30.905147358824763,-0.03913079512164397,0.29644214018343895,2759451.0,,,,,2760.1824886590034,2756.6484886590033,
169,20,20,F,1,4,161.0,9,1,high,6 + 1 + 1 + 7 - 1,14,13,14,12,2770.821620400005,2772.8487724000006,2774.364081399981,2779.38257180003,2780.3790448000077,2780.379050299991,2781.895702600013,2782.9128921999945,w,14.0,0.9964729999774136,1,+10,811,12.973219569130418,0.20527785350386307,0.18410674842177066,2770095.0,19.106298180123694,-0.10542216221329248,0.36721487091926264,2773628.0,,,,,2774.3594886590035,2770.826488659003,
170,20,20,F,1,4,162.0,10,1,high,2 + 9 + 1 + 1 + 1,14,13,12,14,2784.429628200014,2786.4535355999838,2787.968813900021,2792.9866124999826,2794.0669246999896,2794.06693000003,2795.583543399989,2796.601063499984,e,14.0,1.0803122000070289,1,+10,821,14.151995815948752,0.070944439735805,-0.24524588381752865,2783699.0,-80.7303365822083,-0.011742299835837855,0.40780005986575807,2787233.0,,,,,2787.9644886590036,2784.4304886590035,
171,20,20,F,1,4,163.0,11,2,low,2 + 9 + 1 + 1 - 5,8,7,6,8,2798.1178673999966,2800.1409745999845,2801.6562239999766,2806.674757400004,2808.8589134999784,2808.858920499973,2810.3753359999973,2811.3922031000257,e,8.0,2.1841560999746434,1,+1,822,-16.063105291678593,0.3136132713473232,-0.24235337397851797,2797387.0,-2.593089967052342,0.11280179915869892,0.27952710713311424,2800921.0,,,,,2801.652488659003,2798.1184886590036,
172,20,20,F,1,4,164.0,12,3,high,4 + 8 - 9 + 1 + 7,11,13,9,11,2812.909333000018,2814.936873800005,2816.452071100008,2821.470684800006,2822.4912367999787,2822.4912423000205,2824.007648000028,2825.0247577999835,e,11.0,1.0205519999726675,1,+10,832,-25.52420336967906,0.1794029634751242,0.6777665660898826,2812183.0,-10.13005810016168,0.1710348113375666,-0.013270290383822214,2815717.0,,,,,2816.4484886590035,2812.9144886590034,
173,20,20,F,1,4,165.0,13,3,low,3 + 8 - 7 - 1 + 9,12,12,14,13,2826.5416711000144,2828.565157999983,2830.080272499996,2835.098801799992,2837.914941199997,2837.9149466999806,2839.430901399988,2840.44769629999,q,12.0,2.816139400005341,1,+1,833,26.0921791470211,-0.0046269286982925095,-0.17397045808755163,2825811.0,-9.780101119005552,0.08954454107156318,-0.09550992172435091,2829345.0,,,,,2830.076488659003,2826.5424886590035,
174,20,20,F,1,4,166.0,14,2,high,7 + 5 + 1 + 9 + 1,23,23,22,21,2841.9641553999973,2843.987189600012,2845.502525500022,2850.5204900000244,2851.7951108000125,2851.79511549999,2853.312518200022,2854.3296807000297,q,23.0,1.2746207999880426,1,+10,843,19.310033744518663,0.09848331450229408,-0.3543836214651952,2841233.0,-10.442648784859731,0.062095706324737154,0.26109178992231774,2844766.0,,,,,2845.4974886590035,2841.9644886590036,
175,20,20,F,1,4,167.0,15,4,high,3 + 9 - 4 + 7 + 6,21,21,20,19,2855.846723900002,2857.874786400004,2859.390009100025,2864.4080404000124,2865.450925500016,2865.450930399995,2866.9674789999845,2867.984578399977,q,21.0,1.042885100003332,1,+10,853,3.908252429184741,0.13509253474076166,0.42502142597231307,2855121.0,0.8067979954005295,-0.0535735397387096,-0.19650024906388586,2858654.0,,,,,2859.3854886590034,2855.8524886590035,
176,20,20,F,1,4,168.0,16,3,high,9 - 5 - 1 - 6 + 8,5,7,5,4,2869.5013685000013,2871.5256079999963,2873.040608100011,2878.058997299988,2879.1149362000288,2879.1149417000124,2880.6326390000177,2881.650019099994,w,5.0,1.0559389000409285,1,+10,863,-9.757526233933042,0.15561409373210644,0.2751210076424835,2868771.0,2.0094305747048296,-0.021741968163208725,0.2732551959067,2872304.0,,,,,2873.0354886590035,2869.5024886590036,
177,20,20,F,1,4,169.0,17,1,low,4 + 8 + 1 - 1 - 1,11,13,11,9,2883.1669180999743,2885.1936947000213,2886.708954599977,2891.7266876000213,2892.6668618000112,2892.666866799991,2894.183270499984,2895.2001355999964,w,11.0,0.9401741999899969,1,+1,864,-5.518140695557475,-0.07699939073264561,-0.10648800637543099,2882440.0,23.298520876602232,-0.06243498929972935,-0.061228697364617,2885973.0,,,,,2886.7044886590033,2883.1714886590034,
178,20,20,F,1,4,170.0,18,2,high,3 + 9 - 1 - 5 + 1,7,5,7,6,2896.7165717000025,2898.745002700016,2900.260089699994,2905.27855420002,2906.1228532000096,2906.12285829999,2907.639770300011,2908.6568554000114,w,7.0,0.8442989999894053,1,+10,874,7.910470842426435,0.0852635907489403,-0.15308410968724262,2895990.0,16.197319984318817,0.047140609638938846,0.27196535321854576,2899524.0,,,,,2900.2554886590033,2896.721488659003,
179,20,20,F,1,4,171.0,19,3,low,2 + 9 + 1 - 5 + 7,14,15,14,12,2910.174381199992,2912.200921799988,2913.716559100023,2918.734898900031,2921.066887599998,2921.066893099982,2922.583419499977,2923.600411500025,w,14.0,2.3319886999670416,1,+1,875,13.699333493687304,0.05318758776798904,-0.02952720945951981,2909446.0,15.824636554254823,-0.1232924051576938,-0.465024054360589,2912980.0,,,,,2913.7114886590034,2910.1774886590033,
180,20,20,F,1,4,172.0,20,1,high,8 + 1 + 4 + 1 + 1,15,16,14,15,2925.117647100007,2927.1415814000065,2928.6574496999965,2933.6750674999785,2935.0029404999805,2935.0029459000216,2936.519502200012,2937.5367514999816,e,15.0,1.3278730000020005,1,+10,885,-41.29902982224639,0.009885693910336668,0.11040769600116551,2924387.0,-15.745076863912299,-0.009554159470199775,-0.14751234110252476,2927921.0,,,,,2928.652488659003,2925.1184886590036,
181,20,20,F,1,4,173.0,21,3,low,7 + 5 + 9 + 1 - 6,16,14,15,16,2939.053575300029,2941.079655600013,2942.5957025000243,2947.614197399991,2948.890811600024,2948.890817000007,2950.407338800025,2951.423973600031,e,16.0,1.2766142000327818,1,+1,886,16.26846055527925,-0.001660249295719396,0.11288822339192084,2938325.0,-1.3652310550029405,0.15302630373841608,0.38241929896114746,2941859.0,,,,,2942.5904886590033,2939.056488659003,
182,20,20,F,1,4,174.0,22,3,high,8 + 4 + 1 - 7 + 9,15,13,15,16,2952.940731699986,2954.9659007000155,2956.4812160999863,2961.499541600002,2962.458768100012,2962.458773099992,2964.0231102000107,2965.040375699988,w,15.0,0.959226500010118,1,+10,896,4.601781445706838,0.27068682689749135,0.3589227912198596,2952211.0,-3.0538471887230223,-0.0025287960842310664,0.23135459952719772,2955745.0,,,,,2956.4764886590033,2952.942488659003,
183,20,20,F,1,4,175.0,23,2,low,8 + 1 + 9 + 1 - 5,14,15,13,14,2966.5571494000037,2968.5847505999845,2970.0999682000256,2975.118124799977,2976.2988066999824,2976.298811800021,2977.815349699988,2978.832549599989,e,14.0,1.1806819000048565,1,+1,897,-4.003310245898849,0.19930462865206522,-0.19288288577755663,2965830.0,10.553069425462851,-0.03630593032920659,-0.4267554583590183,2969363.0,,,,,2970.094488659003,2966.5614886590033,
184,20,20,F,1,4,176.0,24,4,high,5 + 7 - 4 - 6 + 9,11,13,11,12,2980.3491819999763,2982.374198000005,2983.8894211000297,2988.909536299994,2990.2668002999853,2990.2668053000234,2991.78376999998,2992.800909299985,q,13.0,1.357263999991119,0,+0,897,-12.941786150176338,0.047145271589221105,0.024592036073368018,2979620.0,-7.12936057225308,0.05459744512192799,0.06286398240326108,2983155.0,,,,,2983.8864886590036,2980.3514886590033,
185,20,20,F,1,4,177.0,25,3,high,3 + 8 + 1 + 5 - 9,8,7,8,9,2994.3176288999966,2996.3395184000256,2997.8547282000072,3002.872874299996,3005.9146781999734,3005.914683500014,3007.4312776000006,3008.448392099992,w,8.0,3.041803899977822,1,+10,907,6.2406447506553935,-0.10514637582435249,-0.16304651920411972,2993585.0,-5.026770550034236,0.11636073075917408,-0.1719530239850635,2997118.0,,,,,2997.8494886590033,2994.3164886590034,
186,20,20,F,1,4,178.0,26,3,low,2 + 1 + 9 - 5 + 6,13,11,14,13,3009.965090200014,3011.9897379999747,3013.5054865999846,3018.5242580000195,3019.6907072999747,3019.690712200012,3021.2074072000105,3022.224354300008,e,13.0,1.166449299955275,1,+1,908,8.980391092991649,0.21728980176477308,1.9941522521231203,3009235.0,6.627583868340788,0.006954590059154331,-1.0947155930141768,3012769.0,,,,,3013.500488659003,3009.9664886590035,
187,20,20,F,1,4,179.0,27,2,high,7 + 8 + 1 + 9 + 1,26,26,25,24,3023.741163400002,3025.7689543000306,3027.283852200024,3032.3023616999853,3033.4987582999747,3033.4987638000166,3035.0156663000234,3036.033439400024,q,26.0,1.1963965999893844,1,+10,918,4.350628052592786,0.06500981778000448,-0.2070309071697043,3023014.0,-0.025128246544564803,0.03496463099018832,0.0897541058894249,3026547.0,,,,,3027.2784886590034,3023.7454886590035,
188,20,20,F,1,4,180.0,28,4,high,6 + 9 + 7 - 3 - 5,14,14,12,13,3037.550313999993,3039.5786856000195,3041.0947517000022,3046.1130043999874,3047.1627836999837,3047.162788800022,3048.679564299993,3049.696854899986,q,14.0,1.049779299995862,1,+10,928,17.620287686914374,0.15333647296864839,0.11643049342119349,3036824.0,3.9822381168641554,0.16327660625714868,-0.0730079197012592,3040358.0,,,,,3041.0894886590036,3037.5554886590035,
189,20,20,F,1,4,181.0,29,4,low,9 + 7 - 5 + 8 + 6,25,24,25,27,3051.2135347999865,3053.2392486999743,3054.753961600014,3059.772048600018,3062.402616999985,3062.4026224000263,3063.9191086000064,3064.935738999978,w,25.0,2.63056839996716,1,+1,929,-2.776447591063212,-0.02570879374010504,0.6331948357356239,3050484.0,-6.6458177688065,-0.016718863910258897,-1.0588103742144006,3054017.0,,,,,3054.748488659003,3051.2154886590033,
190,20,20,F,1,4,182.0,30,1,high,2 + 1 + 9 + 1 - 1,12,13,12,11,3066.452190299984,3068.478168600006,3069.993284700031,3075.0121531999903,3076.202687799989,3076.202692700026,3077.7192769999965,3078.7369047999964,w,12.0,1.1905345999985002,1,+10,939,20.52709011564299,0.3913147866519666,-0.5750183486672378,3065723.0,-13.1355850716188,0.09934255234519718,0.035746588909532306,3069257.0,,,,,3069.9884886590035,3066.4544886590033,
191,20,20,F,1,4,183.0,31,2,high,5 + 9 - 8 + 1 + 1,8,9,7,8,3080.253883600002,3082.279897600005,3083.795104400022,3088.8130767000257,3090.0585946000065,3090.0585995999863,3091.5750286999973,3092.592168400006,e,8.0,1.2455178999807686,1,+10,949,-8.234594904988896,0.2543603860320718,0.5490665956911869,3079525.0,-23.02089186819024,0.14384419785007418,0.20511800416217563,3083058.0,,,,,3083.7894886590034,3080.2564886590035,
192,20,20,F,1,4,184.0,32,1,low,3 + 1 + 9 + 1 + 1,15,17,14,15,3094.1088532999856,3096.134113000008,3097.649310800014,3102.6693207999924,3103.722569199977,3103.7225742000155,3105.2393623000244,3106.256321699999,q,17.0,1.0532483999850228,0,+0,949,-34.60242395165184,0.17039085897259731,-0.07019928539377585,3093379.0,-16.655891095337758,-0.1387489617514568,-0.20725474449998327,3096913.0,,,,,3097.6444886590034,3094.1104886590033,
193,20,20,F,1,4,185.0,33,4,low,5 + 8 - 4 - 6 + 9,12,13,14,12,3107.7732963999733,3109.8005412999773,3111.315491700021,3116.3338017999777,3117.4025966000045,3117.402601299982,3118.9186671000207,3119.935602499987,e,12.0,1.068794800026808,1,+1,950,10.23243619766447,0.037770822126288905,-0.05330148297082049,3107045.0,-2.4268901061831194,0.08356262079739496,-0.34191101674811364,3110579.0,,,,,3111.3104886590036,3107.7764886590035,
194,20,20,F,1,4,186.0,34,3,high,5 + 6 + 7 - 1 - 9,8,8,9,7,3121.451960099977,3123.47930940002,3124.994648399996,3130.0134414000204,3132.1945488000056,3132.194554099988,3133.7109535000054,3134.727814099984,e,7.0,2.181107399985194,0,+0,950,-34.67553301091348,0.19881435773590805,-0.012978468425163925,3120724.0,2.148094363579453,-0.021634431312501423,-0.3474856740715926,3124258.0,,,,,3124.989488659003,3121.4554886590035,
195,20,20,F,1,4,187.0,35,3,low,4 + 8 - 3 + 5 - 1,13,13,14,12,3136.244475600018,3138.268463100016,3139.784418100025,3144.8026729000267,3145.79462890001,3145.7946339999908,3147.3110724000144,3148.328028100019,q,13.0,0.9919559999834746,1,+1,951,-2.2886081275736707,0.058701336610855304,-0.16636850284612725,3135513.0,10.934562812026627,0.022469227604610786,-0.14409802319961162,3139047.0,,,,,3139.7784886590034,3136.2444886590033,
196,20,20,F,1,4,188.0,36,1,low,7 - 1 + 9 + 1 - 1,15,14,15,13,3149.845209499996,3151.8726791000227,3153.387780799996,3158.406851999985,3159.4105997000006,3159.41060459998,3160.927114500024,3161.943942599988,w,15.0,1.003747700015083,1,+1,952,-2.505981284606081,-0.04464913080625266,-0.013651029224735378,3149117.0,-16.232585356263314,-0.21177085680351881,-0.4207742447323706,3152651.0,,,,,3153.3824886590032,3149.8484886590036,
197,20,20,F,1,4,189.0,37,1,high,8 - 1 + 1 + 6 + 1,15,15,16,14,3163.460464100004,3165.4857845000224,3167.000793299987,3172.020055699977,3173.186590700003,3173.1865960999858,3174.703281200025,3175.720457200019,q,15.0,1.1665350000257604,1,+10,962,-2.959501104881081,-0.26369777663989424,0.19213853958393745,3162730.0,8.895790681924892,0.09823770425995759,0.004804791155353705,3166265.0,,,,,3166.9964886590033,3163.4614886590034,
198,20,20,F,1,5,190.0,0,1,high,5 + 6 + 1 + 1 + 1,14,14,15,16,3216.6629773000022,3218.688372100005,3220.203295300016,3225.2216358000296,3226.2025186999817,3226.202523800021,3227.718892499979,3228.735791500017,q,14.0,0.9808828999521212,1,+10,972,-35.817412584579145,0.22721527264577168,-0.13940430454317632,3215933.0,6.3587116877917875,0.10677142662113859,0.20131646405483528,3219466.0,,,,,3220.1974886590033,3216.6644886590034,
199,20,20,F,1,5,191.0,1,2,high,8 + 1 + 9 + 1 - 4,15,15,16,14,3230.25260409998,3232.27907629998,3233.794274499989,3238.812500600005,3239.6905119000003,3239.6905166999786,3241.2071434999816,3242.2245915000094,q,15.0,0.8780112999957055,1,+10,982,18.311592640660933,0.04577879457372136,0.06590733376204261,3229524.0,-12.237142553923935,-0.02730934109388805,-0.658768271570175,3233057.0,,,,,3233.788488659003,3230.2554886590033,
