,id,age,sex,cued,block,trial,trialinblock,efflev,rewlev,calc,corAns,option1,option2,option3,tstart,ITI1Time,probTime,respTime,selectTime,ITI2Time,fbTime,ITI3Time,key_press,chosenAns,RT,acc,feedback,total_points,cuescr,cuecor,cuezyg,cuetime,probscr,probcor,probzyg,probtime,fbscr,fbcor,fbzyg,fbtime,probtime_c,cuetime_c,fbtime_c
0,21,22,F,0,Practice,,0,1,0,4 + 1 + 9 + 1 + 1,16,14,15,16,61.89163259998895,,61.8916348000057,66.91952409996884,68.1838045999757,68.18381099996623,69.70077999995556,70.72135619999608,e,16,1.264280500006862,1,Correct,0,,,,,0.480831688876048,-0.5883982975549404,-0.23510710197928253,60122.0,2.0447971927265094,0.6270967039938169,0.0364377097642985,67924.0,61.906769027983295,,69.7087690279833
1,21,22,F,0,Practice,,1,1,0,3 + 1 + 1 + 8 - 1,12,11,12,10,72.23894079995807,,72.23894379998092,77.25970459997188,77.87181949999649,77.8718256999855,79.38906610000413,80.40732229995774,w,12,0.6121149000246078,1,Correct,0,,,,,-29.489828074744878,-1.0040172247788668,-0.10751665457584991,70462.0,-23.9833169670707,-0.14677074084848307,0.2631290869834251,77610.0,72.24676902798329,,79.39476902798329
2,21,22,F,0,Practice,,2,2,0,8 + 1 + 6 + 1 - 4,12,12,11,10,81.9805148000014,,81.98052129999269,87.00134570000228,87.79178729996784,87.79179349995684,89.30877309996868,90.32707729999674,q,12,0.7904415999655612,1,Correct,0,,,,,2.1685754879838424,0.12595322540863307,0.03570475698343101,80204.0,-5.161951232476994,-0.3604412222078972,-0.029697790663600454,87530.0,81.98876902798328,,89.31476902798329
3,21,22,F,0,Practice,,3,2,0,9 + 4 - 6 + 1 - 1,7,6,7,5,91.8448448999552,,91.8448482999811,96.86407000001054,97.43958469998324,97.43959129997528,98.95590219995938,99.97323519998464,w,7,0.5755146999727003,1,Correct,0,,,,,0.07833369438881466,-0.6591872900204532,-0.09230136217734697,90067.0,-2.662294957826134,-0.6819285213714661,-0.03546540684778332,97176.0,91.85176902798328,,98.96076902798329
4,21,22,F,0,Practice,,4,3,0,9 + 3 - 5 + 6 + 7,20,20,22,21,101.48989119997714,,101.48989419999998,106.50881759996992,107.22354049998104,107.22354689997157,108.74022649996914,109.75730860000476,q,20,0.714722900011111,1,Correct,0,,,,,-3.6110574416150527,-1.6692521856650657,-0.11813298068902478,99711.0,7.960009988889098,1.014747880483065,0.12810062450266124,106960.0,101.49576902798329,,108.74476902798328
5,21,22,F,0,Practice,,5,3,0,2 + 1 + 9 - 7 + 6,11,11,9,10,111.27423769998131,,111.27424050000263,116.29332689999136,116.87172459997235,116.8717306999606,118.38976619997992,119.40720089996466,q,11,0.5783976999809965,1,Correct,0,,,,,12.59178852641708,0.2185211784556591,-0.09635883120759448,109496.0,9.766629358942717,0.4342608348954755,0.1863974148718046,116610.0,111.28076902798328,,118.39476902798329
6,21,22,F,0,Practice,,6,4,0,4 + 8 + 5 - 3 + 7,21,22,21,23,120.92432369996096,,120.92432679998456,125.94503439997789,126.55181689996972,126.55182329996023,128.06898199999705,129.08652339997934,w,21,0.606782499991823,1,Correct,0,,,,,14.739974705313422,-0.05093747448711561,0.13051255487252278,119147.0,-4.15456054036153,-0.238200834161292,-0.10829917241802822,126290.0,120.9317690279833,,128.0747690279833
7,21,22,F,0,Practice,,7,4,0,5 + 8 - 4 + 6 + 9,24,23,24,22,130.60367399995448,,130.60367699997732,135.62300500000129,136.7516842999612,136.75169090001145,138.26931329997024,139.2874664000119,w,24,1.128679299959913,1,Correct,0,,,,,-16.260868799847888,-0.46554799561952454,-0.06432150045400342,128826.0,1.7407059379188836,-0.2642422578464938,-0.06874915870616194,136490.0,130.61076902798328,,138.2747690279833
8,21,22,F,1,0,0.0,0,4,high,5 + 7 - 4 - 6 + 9,11,13,11,12,235.50117830000815,237.5287313999725,239.04410900000948,244.06295049999608,244.58122069999808,244.58122619998176,246.0980630000122,247.11549429997103,w,11,0.5182702000020072,1,+10,10,-9.475241317353577,-0.9804861036366592,0.45449803424227797,233731.0,20.44000816174082,-1.560834207727317,-0.8261623649086278,237265.0,-2.4922516777873795,-0.47365666781752935,-0.05064142022975737,244317.0,239.04976902798327,235.51576902798328,246.1017690279833
9,21,22,F,1,0,1.0,1,1,high,5 + 6 + 1 + 1 + 1,14,16,15,14,248.63241939997533,250.6561975000077,252.17150749999564,257.18929309997475,257.66923020000104,257.6692354999832,259.18585229996825,260.20333489996847,e,14,0.4799371000262908,1,+10,20,-23.948340603860274,-0.29322152601300466,0.22170079097803708,246859.0,-2.0702190589475475,0.05145824095515561,0.20534513521676745,250391.0,-18.810496227841483,0.05749459847930183,0.11271309708834698,257405.0,252.17576902798328,248.6437690279833,259.1897690279833
10,21,22,F,1,0,2.0,2,3,high,5 + 1 + 7 - 8 + 6,11,9,13,11,261.7199503000011,263.7430551999714,265.25837379996665,270.2771061999956,271.08515780000016,271.08516429999145,272.6019688000088,273.6192570999847,e,11,0.8080516000045463,1,+10,30,23.75372167580096,-0.3510042237297979,0.002442475788166476,259945.0,35.73601475125299,-0.4633021597448028,0.0888483870613217,263479.0,-11.413589181800653,0.38079168723764667,-0.044783240199858465,270821.0,265.2637690279833,261.7297690279833,272.60576902798334
11,21,22,F,1,0,3.0,3,1,low,4 + 7 + 1 - 1 - 1,10,11,9,10,275.136022199993,277.1636661000084,278.67888919997495,283.69725819997257,284.18109359999653,284.1810990999802,285.69769830000587,286.7149252999807,e,10,0.4838354000239633,1,+1,31,-27.735533598379163,-0.26940722844243137,0.17972772453011987,273366.0,-14.606654221754127,-0.05149756425691354,0.15710215485546208,276899.0,20.91784105716676,-0.5765936083579408,-0.05851261321882317,283916.0,278.6837690279833,275.1507690279833,285.7007690279833
12,21,22,F,1,0,4.0,4,1,low,6 + 9 + 1 + 1 - 1,16,16,15,14,288.23159979999764,290.2550907999976,291.77016959997127,296.78852519998327,297.4372013999964,297.43720699998084,298.9535047999816,299.9705731999711,q,16,0.6486762000131421,1,+1,32,2.141693946371113,0.44977587072718617,0.023055747544206362,286457.0,-24.53918276391372,-0.2769777977699972,-0.0069972930356647645,289990.0,-2.8607975993326686,0.30249589837672897,0.04353473023771093,297172.0,291.7747690279833,288.2417690279833,298.95676902798334
13,21,22,F,1,0,5.0,5,1,low,7 - 1 + 1 + 9 - 1,15,15,14,13,301.48741279996466,303.5111632999615,305.02726110001095,310.0473046000116,310.6290879999869,310.6290935999714,312.14576059998944,313.16280289995484,q,15,0.581783399975393,1,+1,33,0.15869615280775484,-0.18588963836620742,0.03661960590909619,299713.0,20.483082673069894,-0.08527726760374499,-0.17269972692853464,303249.0,7.100810996324302,-1.0750219103149483,0.9062071011036934,310364.0,305.03376902798334,301.49776902798334,312.1487690279833
14,21,22,F,1,0,6.0,6,3,low,2 + 9 + 1 - 5 + 7,14,15,14,12,314.6796934999875,316.7058868999593,318.22118459997,323.2396627999842,324.0290795000037,324.0290851999889,325.5455945999711,326.5625776000088,w,14,0.7894167000195011,1,+1,34,-30.585574220274317,-0.16708705028000903,0.06346748908908051,312907.0,-31.47318786256466,0.7785853497725395,0.26442740464658754,316441.0,23.942304733945154,0.2410471212880685,-0.7410003394460039,323764.0,318.2257690279833,314.6917690279833,325.5487690279833
15,21,22,F,1,0,7.0,7,4,low,2 + 9 - 6 + 8 - 4,9,7,11,9,328.0793129999656,330.1053127999767,331.6206727999961,336.63914649997605,337.17299829999683,337.173003599979,338.68943269999,339.7063141000108,e,9,0.5338518000207841,1,+1,35,-10.237788796094426,0.3310435712302997,0.08126866160266388,326307.0,-22.377400298007892,0.32453208787458276,0.012165290584225774,329841.0,15.438530275631933,-0.8517567720984438,-0.014802422278171523,336908.0,331.6257690279833,328.09176902798333,338.69276902798333
16,21,22,F,1,0,8.0,8,3,high,8 + 6 - 7 + 1 - 4,4,5,3,4,341.2238675999688,343.25126299995463,344.7663906000089,349.78489319997607,350.18904009996913,350.1890457000118,351.7054137999657,352.7227084999904,e,4,0.4041468999930657,1,+10,45,11.156863540875156,0.9897025045642076,0.014850819031228868,339453.0,-15.88950909275325,-0.6489632256723112,0.08034655147376424,342987.0,-11.414606333591422,0.4930767335090449,0.1556265249253439,349924.0,344.77176902798334,341.2377690279833,351.7087690279833
17,21,22,F,1,0,9.0,9,4,high,6 + 9 + 7 - 3 - 5,14,12,13,14,354.2405548999668,356.2645367999794,357.7797470999649,362.7979522999958,363.6769981000107,363.6770034999936,365.1935162000009,366.21068129997,w,13,0.8790458000148647,0,+0,45,-4.38627389264962,0.9711238909559734,0.12184257177261593,352466.0,-25.630747854517384,-0.11218790998355299,0.06550372485003786,356000.0,3.039912214679987,0.47453680924652186,0.05356317111955633,442860.0,357.7847690279833,354.2507690279833,444.64476902798333
18,21,22,F,1,0,10.0,10,3,high,2 + 1 + 9 - 4 + 6,14,15,14,16,367.7278022000101,369.7538515999913,371.2690797999967,376.2870239999611,376.7090089999838,376.7090140999644,378.2253373999847,379.2425344999647,w,14,0.421985000022687,1,+10,55,-27.395520676119347,0.20301649729423676,1.628931302069064,365955.0,10.748200340303214,-0.5507467207000074,-0.007964461307104376,369489.0,9.143368910265139,0.38668549781450867,0.10518719003538535,376444.0,371.2737690279833,367.7397690279833,378.22876902798333
19,21,22,F,1,0,11.0,11,3,high,2 + 1 + 9 - 5 + 6,13,14,11,13,380.75928219995694,382.78642759996,384.3016309000086,389.3204972000094,389.84501629997976,389.8450215999619,391.3621169999824,392.3796233999892,e,13,0.5245190999703482,1,+10,65,9.573056821283064,0.7068337244443068,0.07126124602078043,378987.0,-17.96493886290243,0.10183908406309428,0.034560649041383895,382522.0,4.2787866881419685,-0.31654626454803836,0.2457241405796622,389581.0,384.3067690279833,380.77176902798334,391.36576902798333
20,21,22,F,1,0,12.0,12,1,high,3 + 1 + 9 + 1 + 1,15,14,15,17,393.89607779996,395.9180324999616,397.4332721999963,402.452672799991,403.02904629998375,403.02905199996894,404.5455861999653,405.56282150000334,w,15,0.5763734999927692,1,+10,75,6.03536910662268,-0.2698211045215473,0.003127761231704662,392119.0,19.2918410945478,0.2714699208386495,0.02695070959405088,395654.0,10.082300992604301,0.3123208309084635,-0.2885326599296105,402764.0,397.4387690279833,393.90376902798334,404.5487690279833
21,21,22,F,1,0,13.0,13,2,high,5 + 9 - 8 + 1 + 1,8,7,9,8,407.0794922999921,409.1020919999573,410.6174469999969,415.6358354999684,416.4290487999679,416.4290541000082,417.9454777999781,418.9626816000091,e,8,0.7932132999994792,1,+10,85,-22.571627043149725,0.0005525057219726293,0.18150438569283867,405304.0,-28.096599921386208,-0.9383982222971232,-0.041537025933990446,408837.0,0.09168823113660274,-0.0876820097567963,-0.0070377898843891895,416164.0,410.6217690279833,407.0887690279833,417.9487690279833
22,21,22,F,1,0,14.0,14,1,low,3 + 1 + 1 + 8 - 1,12,12,13,14,420.4798795999959,422.50678140000673,424.0217671999708,429.0396864999784,429.70090679998975,429.7009115999681,431.2174844999681,432.2339982999838,q,12,0.6612203000113368,1,+1,86,-48.17460247241127,0.26792242564820157,0.14403918711802466,418708.0,-25.258899879425424,0.5661683216147928,0.15006446320447164,422241.0,24.908812499585064,0.5425515295881134,-0.02988550101866516,429436.0,424.0257690279833,420.49276902798334,431.2207690279833
23,21,22,F,1,0,15.0,15,4,high,3 + 8 - 5 + 9 - 7,8,6,8,7,433.7509791000048,435.7780344999628,437.2930523999967,442.3117200999986,443.1249168000068,443.1249220999889,444.6414145999588,445.6587721999968,w,8,0.8131967000081204,1,+10,96,13.886747377123166,0.1378365763703826,0.026642892858925293,431979.0,-9.506444138923566,0.2742078832432595,0.017352699126562676,435513.0,-13.185134073075192,-0.12281982010205983,0.04838216837379927,482188.0,437.2977690279833,433.7637690279833,483.9727690279833
24,21,22,F,1,0,16.0,16,1,high,8 + 1 + 1 + 1 - 3,8,6,9,8,447.1754607000039,449.197013499972,450.7123151000124,455.73069060000125,456.2049205999938,456.2049256999744,457.7217733999714,458.7392151000095,e,8,0.4742299999925308,1,+10,106,-9.038689109803993,-0.40697474781124754,-0.052413947120411475,445398.0,-25.258151591271506,-0.17785461127864988,-0.0005284708488493273,448932.0,5.585817906007119,-1.0687744282034943,0.07657058207638645,455940.0,450.71676902798333,447.18276902798334,457.7247690279833
25,21,22,F,1,0,17.0,17,2,high,9 + 4 - 6 + 1 - 1,7,9,8,7,460.2564284999971,462.2795219999971,463.79432379995706,468.8126004000078,469.26894789998187,469.2689534999663,470.7856213999912,471.80259039998055,e,7,0.456347499974072,1,+10,116,-1.1223532480018967,0.44209249956966357,-0.057074010437179856,458481.0,-3.9956627821743558,0.2319114490556986,0.2621262731455425,462014.0,-8.751952511711846,0.3428965058039264,-0.11894885107116715,469004.0,463.7987690279833,460.2657690279833,470.78876902798334
26,21,22,F,1,0,18.0,18,4,high,4 + 9 - 7 + 8 + 5,19,19,20,21,473.3195184000069,475.34707399999024,476.86224359995686,481.8814466999611,482.4529480999918,482.4529531999724,483.96955169999273,484.9868279999937,q,19,0.5715014000306837,1,+10,126,-23.640139036162157,0.011106197001423901,-0.021349202694195046,471548.0,15.97274196967944,-0.4190268551887124,-0.11648143085630713,475082.0,51.54406151931674,-0.004947462845858119,0.12008418596476367,535723.0,476.8667690279833,473.3327690279833,537.5077690279833
27,21,22,F,1,0,19.0,19,3,high,7 + 1 + 9 + 5 - 6,16,16,14,15,486.502961399965,488.5250062000123,490.04022299998906,495.0585946000065,496.1169394999743,496.1169448999572,497.6336609999999,498.651032099966,q,16,1.0583448999677785,1,+10,136,6.897294757901058,0.5706371775303873,-0.22078138600409036,484726.0,1.6099729236842388,0.244996309588017,0.05849948589731202,488260.0,-23.12263248628877,0.005257648205247989,-0.08090752300334803,495852.0,490.0447690279833,486.5107690279833,497.6367690279833
28,21,22,F,1,0,20.0,20,3,low,5 - 1 - 4 + 6 + 7,13,13,14,15,500.1681032999768,502.1901648999774,503.70530929998495,508.7236385999713,509.1887958999723,509.1888016999583,510.7053731000051,511.7228269999614,q,13,0.4651573000010103,1,+1,137,12.836130273123722,-0.08318758492581058,-0.24859106160421995,498391.0,19.377989588598414,1.140681798344204,-0.11738733517639743,501925.0,10.303291187248792,-0.40949346419130705,-0.04428766107511706,508923.0,503.7097690279833,500.17576902798334,510.7077690279833
29,21,22,F,1,0,21.0,21,3,high,4 + 7 + 1 + 9 - 5,16,18,16,17,513.2395191999967,515.2652853999753,516.7805934000062,521.7990414999658,522.9008557999623,522.9008614000049,524.4176088999957,525.434927299968,q,18,1.1018142999964766,0,+0,137,20.664533679907162,0.33863311953556874,0.06939701742831472,511466.0,-7.62547335789688,0.7063636040147045,-0.07732805319995206,515000.0,0.29748069972121627,0.1655443463183861,0.04068111413946918,574971.0,516.7847690279833,513.2507690279833,576.7557690279833
30,21,22,F,1,0,22.0,22,4,low,7 + 6 - 4 + 9 - 5,13,14,12,13,526.9517493000021,528.9794286999968,530.494944599981,535.5130563999992,535.9888519999804,535.9888569999603,537.5053771999665,538.5222695999546,e,13,0.4757955999812111,1,+1,138,-6.571695247939655,0.5950816881983148,0.09296583639433997,525180.0,15.614493411534282,0.47735656820157235,0.4467617195934612,528714.0,9.19067010486075,-0.3872171236084494,-0.17700194880037445,614307.0,530.4987690279834,526.9647690279833,616.0917690279833
31,21,22,F,1,0,23.0,23,1,high,3 + 1 + 8 + 1 + 1,14,12,13,14,540.0399588999571,542.0669771999819,543.5821302999975,548.6004436999792,549.0608311999822,549.0608366999659,550.5774000000092,551.5946532000089,e,14,0.4603875000029802,1,+10,148,1.82267941150275,0.03121848963809537,-0.21184229163979706,538268.0,-12.248680746011697,0.002719837896122179,0.00021526277048034004,541801.0,1.2426320966392925,-0.19480778656425546,0.030303465406009478,548795.0,543.5857690279834,540.0527690279833,550.5797690279833
32,21,22,F,1,0,24.0,24,1,low,5 + 6 + 1 + 1 + 1,14,16,14,13,553.1114194999682,555.1382442999748,556.6534870999749,561.6712187000085,562.1409046999761,562.1409102999605,563.6573170999764,564.6741613000049,w,14,0.4696859999676235,1,+1,149,-1.2694198974672428,-0.005717231785124177,0.06376012502520512,551339.0,4.279753122510199,0.10474246200203119,0.12039590872848205,554872.0,-55.39500866281524,0.04973082363096459,-0.183781197924763,561875.0,556.6567690279833,553.1237690279834,563.6597690279833
33,21,22,F,1,0,25.0,25,3,low,7 - 1 + 8 - 6 + 4,12,12,13,11,566.1906272000051,568.2173981000087,569.7325910999789,574.7512204999803,575.2367669999949,575.2367721999763,576.7534268999589,577.7703414999996,q,12,0.4855465000146068,1,+1,150,-12.201575733279496,1.5026059411930186,1.6265171178257578,564418.0,24.89383910913348,-1.127269092623889,0.1275721997733783,567952.0,9.610409834552708,0.3220961499069155,0.07050589261529128,667091.0,569.7367690279833,566.2027690279833,668.8757690279833
34,21,22,F,1,0,26.0,26,2,low,6 + 1 + 1 + 8 - 9,7,5,7,9,579.2872884999961,581.315341199981,582.8304734000121,587.8490390999941,588.3568296000012,588.3568348999834,589.8734685999807,590.8906330000027,e,9,0.5077905000071041,0,+0,150,-2.8494578119401117,-0.9360529845906349,-0.013300435450858128,577516.0,-35.403646807989205,-0.17242881260703058,0.09967925249866627,581050.0,14.784184540792854,-0.552928493502951,-0.1137529973678193,601091.0,582.8347690279833,579.3007690279833,602.8757690279833
35,21,22,F,1,0,27.0,27,2,high,9 + 6 + 1 + 7 + 1,24,23,24,25,592.4071766000125,594.435329800006,595.9511917000054,600.9691789000062,601.3567085000104,601.3567140999949,602.8733802000061,603.8906714000041,w,24,0.3875296000041999,1,+10,160,22.0354115617734,0.8186956858960661,-6.857847412005359,590636.0,7.531982784881897,-0.4072821518737326,0.16724005379348394,594170.0,14.302776101499568,0.12039878300929896,0.0027613468890983484,627763.0,595.9547690279833,592.4207690279833,629.5477690279833
36,21,22,F,1,0,28.0,28,4,high,4 + 7 + 8 - 3 + 9,25,25,24,26,605.4071536999545,607.432388199959,608.9474132999894,613.9670109999715,614.572722199955,614.5727271999931,616.0890899999649,617.1062703999924,q,25,0.6057111999834888,1,+10,170,1.1965942022036709,-0.10620989689872928,0.07663577034552871,603633.0,4.335394109291238,-0.09846263067632766,0.18860287965489064,607167.0,-17.502202901441592,-0.21062040628172873,0.2950159965923269,764324.0,608.9517690279833,605.4177690279834,766.1087690279833
37,21,22,F,1,0,29.0,29,2,low,6 + 1 + 8 + 7 - 1,21,21,19,23,618.6232802000013,620.6507310000015,622.1661179999937,627.1847232999862,628.0287321999785,628.0287374999607,629.5455154000083,630.5623912999872,q,21,0.8440088999923319,1,+1,171,-4.071582614691856,0.020720849319702417,1.3536607377849488,616851.0,-23.055083681123904,-0.11286846928882799,-0.07895524269258258,620385.0,-20.273429244213276,0.11322637391179402,0.020035935371439217,640899.0,622.1697690279833,618.6357690279833,642.6837690279833
38,21,22,F,1,0,30.0,30,2,low,3 + 8 - 5 + 1 + 1,8,8,9,6,632.0796989999944,634.1029532999964,635.6181981999543,640.6362639999716,641.1649319999851,641.164936999965,642.6813803999685,643.6984693999984,q,8,0.5286680000135675,1,+1,172,-26.80077107105747,-0.3443951055815129,0.06490035930532878,630303.0,-0.331305821218411,0.43993809298769815,-0.04888912613886065,633837.0,-14.113591768645009,0.22742240201174724,0.18564448097136999,653954.0,635.6217690279833,632.0877690279833,655.7387690279833
39,21,22,F,1,0,31.0,31,2,high,4 + 8 + 1 + 1 - 5,9,8,9,11,645.2155361999758,647.2424407000071,648.757754399965,653.7755177000072,654.2206398999551,654.220644999994,655.7366153000039,656.7539004999562,w,9,0.4451221999479458,1,+10,182,7.060414432961532,-0.63032965171619,0.03328134187856557,643443.0,6.732858837581574,0.2740807085276691,-0.0570474749168286,646976.0,5.8256391862531824,0.14703702125606366,-0.006700417114038348,719730.0,648.7607690279833,645.2277690279833,721.5147690279833
40,21,22,F,1,0,32.0,32,3,high,5 + 7 + 1 - 4 + 6,15,13,15,17,658.270823400002,660.2982188999886,661.8135856000008,666.8319681999856,667.3566607999965,667.3566658999771,668.873741999967,669.891085399955,w,15,0.5246926000108942,1,+10,192,23.136506236916304,0.4810059709334906,0.023068274004164557,656498.0,5.215981076722002,-0.6143584705203802,0.10184910173586981,660032.0,9.671275357541713,-0.41743732986191606,0.06697413563258636,693290.0,661.8167690279834,658.2827690279834,695.0747690279833
41,21,22,F,1,0,33.0,33,1,low,6 + 9 + 1 + 1 - 1,16,15,14,16,671.4079156999942,673.4344953999971,674.9496854000026,679.967742400011,680.4686150999623,680.4686208000057,681.9851031999569,683.0019311999786,e,16,0.5008726999512874,1,+1,193,-14.945408657155216,0.2495840830900029,-0.04352357274816798,669635.0,19.21187713405502,-0.23154078282199997,-0.1426983674398259,673168.0,-3.531702808241615,-0.18647433909978872,0.1439456204626497,680202.0,674.9527690279833,671.4197690279833,681.9867690279833
42,21,22,F,1,0,34.0,34,3,low,4 + 1 + 8 + 9 - 5,17,18,19,17,684.5182214999804,686.5441351999762,688.059665000008,693.0780707999947,693.5566865999717,693.5566917000106,695.0730196000077,696.0896703999606,e,17,0.4786157999769784,1,+1,194,21.83938811696727,-0.05120139660563261,0.014019644833915157,682744.0,8.482283527742268,-1.123747434835166,0.04755952093120763,686278.0,-26.640302605271962,-0.41876739971589405,0.14239633095650195,706539.0,688.0627690279833,684.5287690279833,708.3237690279833
43,21,22,F,1,0,35.0,35,3,low,5 + 6 + 7 - 1 - 9,8,8,9,7,697.6071301999618,699.6305972000118,701.1458262999658,706.1642619000049,706.8046880000038,706.8046938999905,708.3220607999829,709.3392299999832,q,8,0.6404260999988765,1,+1,195,-19.3398720048906,-0.032995360462814816,0.1289929455693477,695831.0,23.66371238977525,0.4638223422737253,0.013791400732022119,699364.0,-22.986490358295804,0.2553965654240997,-0.10633810765918428,777523.0,701.1487690279833,697.6157690279833,779.3077690279833
44,21,22,F,1,0,36.0,36,2,low,4 + 7 + 1 + 1 - 8,5,4,5,7,710.8560559999896,712.8837660999852,714.3990055999602,719.4175354999606,719.9966840000125,719.9966890999931,721.5131581999594,722.5300858999835,w,5,0.5791485000518151,1,+1,196,8.093357147086063,0.973820020912262,0.12398582215904641,709084.0,0.6125211507328707,-0.26839769371245303,-0.02610953970993668,712618.0,-1.0232150634288324,0.3992246814377065,0.14367976763817492,830290.0,714.4027690279834,710.8687690279833,832.0747690279833
45,21,22,F,1,0,37.0,37,1,high,9 + 8 + 1 + 1 - 1,18,18,17,20,724.0465659999754,726.0719928999897,727.5871809999808,732.6048150999704,733.1725520999753,733.172557599959,734.6897988999845,735.707002799958,q,18,0.567737000004854,1,+10,206,-7.0696093675479865,0.10095025487049547,-0.16215794144856144,722272.0,-27.726823108666068,0.3143263149208959,-0.1954177758485347,725805.0,22.507503678228357,-0.08987386954167587,-0.005614360416368758,732907.0,727.5897690279833,724.0567690279834,734.6917690279834
46,21,22,F,1,1,38.0,0,4,high,3 + 9 - 5 + 6 + 8,21,22,23,21,755.5206745999749,757.5466296999948,759.06184759998,764.0808563999599,764.5885734999902,764.5885786999715,766.1055927000125,767.1238399999565,e,21,0.5077171000302769,1,+10,216,-9.218286873528927,-1.0138063055535804,-0.959700719793954,753747.0,10.012614468030142,0.2705444798063317,-0.30124762526166693,757281.0,9.890718476306981,-0.8577019524161509,-0.21481169041802683,935209.0,759.0657690279833,755.5317690279833,936.9937690279833
47,21,22,F,1,1,39.0,1,3,low,4 + 8 - 9 + 1 + 7,11,9,11,13,768.6410236000083,770.6627883999608,772.1779638999724,777.1966751999571,777.7886006999761,777.7886063999613,779.3056427999982,780.3226729999878,w,11,0.5919255000189878,1,+1,217,0.7239381900444322,0.6359055986180211,-0.16728987188383782,766863.0,21.26385840948314,-0.13573278125149635,0.1434657577495373,770397.0,7.461664181332651,-0.705774617898995,0.16938858755522324,817258.0,772.1817690279834,768.6477690279834,819.0427690279834
48,21,22,F,1,1,40.0,2,1,high,7 - 1 + 9 + 1 - 1,15,15,14,13,781.8394031999633,783.8616565999691,785.3768465999747,790.3954113000073,790.9725141999661,790.9725193000049,792.4889114999678,793.5060484999558,q,15,0.5771028999588452,1,+10,227,-4.868961207665295,0.046434511313134585,-0.021685705853246695,780061.0,-3.3913876047612117,0.8829546971433251,0.10418490850312834,783595.0,14.751894312024184,0.6636309580821855,0.24364346620303268,790706.0,785.3797690279833,781.8457690279834,792.4907690279833
49,21,22,F,1,1,41.0,3,1,high,5 + 1 + 1 + 6 + 1,14,14,13,16,795.0227535999729,797.0458475999767,798.560900499986,803.5786633999669,804.1565920999856,804.156597299967,805.6731912000105,806.6904503999976,q,14,0.5779287000186741,1,+10,237,7.547413726187721,0.7826899037854735,0.04132710694030273,793246.0,-1.0888121051824426,-0.13212564035879293,0.654723742820301,796778.0,5.324021411737544,0.46990610872367355,0.08747071955580821,803890.0,798.5627690279833,795.0307690279833,805.6747690279833
50,21,22,F,1,1,42.0,4,3,high,8 + 3 + 1 - 7 + 9,14,12,15,14,808.2072660999838,810.2298628999852,811.7448663999676,816.7633733999683,817.5245169999544,817.5245217999909,819.0411404999904,820.0585862000007,e,14,0.7611435999860987,1,+10,247,-0.4373430665166387,0.08385351895659632,0.1230851997239808,806430.0,-47.3459402217902,0.3757711996944515,-0.14508206696989046,809963.0,-17.0960476811805,-0.07143983294755696,0.28793738285209725,869466.0,811.7477690279833,808.2147690279833,871.2507690279833
51,21,22,F,1,1,43.0,5,2,low,4 + 1 + 9 + 1 - 6,9,8,9,7,821.5752360000042,823.5990250000032,825.1142601000029,830.1322363999789,830.5564246999566,830.5564300999977,832.0729913999676,833.0899965999997,w,9,0.4241882999776862,1,+1,248,-0.12371405242365441,1.3530106255113292,1.8651021969720245,819799.0,-19.787490450891735,-0.4358052530903658,0.03926695036773209,823332.0,-3.232483481679586,-1.2660217388054313,-0.07887104614788543,843402.0,825.1167690279833,821.5837690279833,845.1867690279834
52,21,22,F,1,1,44.0,6,2,low,5 + 7 - 8 + 1 + 1,6,7,8,6,834.6068767000106,836.6296985999797,838.1449212000007,843.1633641999797,843.6686204999569,843.6686260999995,845.185317299969,846.2022541000042,e,6,0.5052562999771908,1,+1,249,-6.070891055058471,0.16263884526215922,-0.1572506646914329,832830.0,-71.03996535976397,0.6324401754169218,-0.09603373455284148,836363.0,-3.5489786091905398,0.700784621556684,0.20056689501375136,856458.0,838.1477690279834,834.6147690279834,858.2427690279833
53,21,22,F,1,1,45.0,7,2,high,6 + 1 + 1 + 7 - 9,6,4,8,6,847.7190240999917,849.7428856999613,851.2576231999556,856.2772933999659,856.7244940999663,856.7244995000074,858.2409975999617,859.2583722999552,e,6,0.4472007000003941,1,+10,259,-21.716425500615195,0.5550878679999958,-0.04172463962193529,845943.0,-7.431670546263853,-0.04879793975232882,-0.02361196063151727,849477.0,18.333187630575043,0.7380701033137296,0.3165695077249515,882834.0,851.2617690279833,847.7277690279833,884.6187690279833
54,21,22,F,1,1,46.0,8,3,high,9 + 3 - 4 + 6 + 7,21,23,21,22,860.7749409999815,862.8024354999652,864.3183348999592,869.3377627999871,869.732379299996,869.7323845999781,871.2488891999819,872.2661566999741,w,21,0.3946165000088513,1,+10,269,13.423561589031364,-0.009690042976468582,-0.1803071621119381,859002.0,10.04706908042928,-0.04942367248732804,0.07963293811892713,862537.0,-0.8038288462793126,0.6161952737250065,-0.21452130455119756,909049.0,864.3217690279834,860.7867690279833,910.8337690279833
55,21,22,F,1,1,47.0,9,2,low,7 + 1 + 9 - 1 - 8,8,8,7,6,873.782855700003,875.8089762000018,877.3235358999809,882.3442913999897,883.1004399000085,883.1004450999899,884.6169694999699,885.6339851999655,q,8,0.7561485000187531,1,+1,270,16.617606710685184,0.38941567781800757,-0.07650513380746471,872009.0,-2.638320163228009,-0.5250218695423241,0.0010581219237320028,875544.0,7.946248280260139,-0.4908836885428256,-0.15207335933024568,948241.0,877.3287690279833,873.7937690279833,950.0257690279833
56,21,22,F,1,1,48.0,10,4,high,5 + 7 - 4 + 8 + 6,22,23,22,24,887.1505938000046,889.1787968999706,890.694173099997,895.7128146999748,896.2123918999569,896.2123969999957,897.7287852999871,898.7460016999976,e,24,0.4995771999820135,0,+0,270,-13.817716542848645,1.7989916658697487,0.05054021248011775,885378.0,-25.195559776498754,-0.11091561088543234,0.14932831226691512,888912.0,-26.11321620203813,0.5090844844873903,-0.059603948178691635,961329.0,890.6967690279834,887.1627690279834,963.1137690279833
57,21,22,F,1,1,49.0,11,3,low,4 + 5 - 3 + 7 - 1,12,13,11,12,900.262875699962,902.2857099999674,903.8009863999904,908.8194775999872,909.3165275999928,909.3165326999732,910.8330975999706,911.85008449998,e,12,0.4970500000054016,1,+1,271,-8.131092926254668,-0.7999686518489373,0.16700692897873437,898485.0,13.78136964621119,-0.07306317264077489,0.06222531297882661,902019.0,-2.055953788291413,1.4958967986395395,0.10256934702497711,922210.0,903.8037690279833,900.2697690279833,923.9947690279834
58,21,22,F,1,1,50.0,12,3,high,3 + 8 - 7 - 1 + 9,12,14,12,13,913.3664463000024,915.388961199962,916.9044053999824,921.9233546999748,922.4764655999606,922.4764712000032,923.9933746999596,925.0102975000044,w,12,0.5531108999857679,1,+10,281,5.956918079384038,0.4652595518301421,-0.14654240239955474,911588.0,18.050346702161537,-0.10387472332313408,0.0773404477523485,915123.0,-21.726004849774306,0.25359435718395584,-0.08234159282307285,1000961.0,916.9077690279834,913.3727690279833,1002.7457690279833
59,21,22,F,1,1,51.0,13,4,low,8 + 4 + 7 - 5 - 6,8,8,6,9,926.5270836999988,928.5535939999972,930.068810399971,935.0874291000072,935.4763885999564,935.476393799996,936.9928105999716,938.009722399991,q,8,0.3889594999491237,1,+1,282,5.850161107638829,-0.7019699750229558,0.22415970404962016,924753.0,13.51772429301949,0.017901139463849525,0.023875972746999263,928287.0,9.335988350802621,0.019865423547818395,0.09619404511950602,1040336.0,930.0717690279834,926.5377690279834,1042.1207690279832
60,21,22,F,1,1,52.0,14,2,low,7 + 5 + 1 - 1 - 8,4,2,3,4,939.5271675999976,941.5542048999924,943.0692081999732,948.0877859999893,948.5084215999814,948.5084275999689,950.0247037999798,951.0412580999546,e,4,0.420635599992238,1,+1,283,-0.42626773105117977,0.22327186132689825,0.13488246034503382,937753.0,-3.2825751263159226,0.6682438545738929,0.22320715626069942,941287.0,7.514956988409404,0.7308291022510573,0.20522612458209455,1014129.0,943.0717690279834,939.5377690279834,1015.9137690279833
61,21,22,F,1,1,53.0,15,4,low,7 + 6 - 9 + 8 - 3,9,7,9,8,952.5578291999992,954.58467750001,956.0998610999668,961.1183543999796,961.5963939999928,961.5963994999764,963.1128948999684,964.1309402000044,w,9,0.4780396000132896,1,+1,284,11.736868675776478,0.7386313133528883,0.21556297811901715,950784.0,7.0487524316054655,-0.43222462137948536,0.0549554962539025,954318.0,20.50145216491582,-0.5557460872343754,0.20944295346354314,1079985.0,956.1027690279833,952.5687690279833,1081.769769027983
62,21,22,F,1,1,54.0,16,3,high,6 + 1 + 8 + 7 - 9,13,14,15,13,965.6478572000052,967.6736092999928,969.1887784999562,974.207088999974,975.0523237999878,975.0523292999716,976.5687180999666,977.5858150999992,q,14,0.8452348000137135,0,+0,284,1.5852955073652701,-0.0075597062493599765,0.2702497786461824,963873.0,0.6142936812825379,-0.7790424267528921,0.009798445198281325,967407.0,-5.855963027340233,0.17605856418473298,-0.07534314260206809,1145656.0,969.1917690279834,965.6577690279834,1147.4407690279832
63,21,22,F,1,1,55.0,17,1,high,3 + 1 + 9 + 1 - 1,13,14,13,12,979.1028003999965,981.1271629999974,982.6424111999804,987.6604007999996,988.0683993999846,988.068404599966,989.5854867000016,990.6028704000056,w,13,0.4079985999851487,1,+10,294,13.429970264069869,0.35531239884027244,-0.048486600406654645,977326.0,-18.85086018130747,-0.08522657006046686,0.09617167644090063,980860.0,5.0575591984476045,0.3331042176287644,-0.03716274909323447,987802.0,982.6447690279833,979.1107690279833,989.5867690279833
64,21,22,F,1,1,56.0,18,3,low,6 - 1 + 7 - 8 + 9,13,13,11,12,992.1193922999664,994.1454167999908,995.6604482000112,1000.6787239999976,1001.2283261999836,1001.2283312999645,1002.7449517999776,1003.76183709997,q,13,0.5496021999861114,1,+1,295,27.118157928223333,-0.7164346731405242,0.10927056730405704,990344.0,9.739999773050805,-1.3208923520612226,-0.20951633934679093,993878.0,-17.242830306617385,-0.6204363822100776,0.005322720745299048,1171840.0,995.6627690279834,992.1287690279834,1173.6247690279831
65,21,22,F,1,1,57.0,19,2,low,8 + 1 + 4 - 7 + 1,7,6,5,7,1005.2793697000016,1007.3063542000018,1008.8215368000092,1013.839912800002,1014.396294599981,1014.396299999964,1015.9128126999713,1016.9299313999944,e,7,0.5563817999791354,1,+1,296,39.189239390874754,-1.4977805077057722,0.07906302160663126,1003505.0,-16.84594403027919,-0.6822818999086451,-0.13241137706795536,1007039.0,-26.05481740445341,-1.148083970992067,0.12341932269767764,1053569.0,1008.8237690279833,1005.2897690279833,1055.3537690279832
66,21,22,F,1,1,58.0,20,1,high,2 + 1 + 9 + 1 - 1,12,12,11,13,1018.4468059999635,1020.4714429999584,1021.9866542000092,1027.0056440999615,1027.420244799985,1027.4202499999665,1028.9367605999578,1029.95414039999,q,12,0.414600700023584,1,+10,306,0.5879493251555097,0.06006695582411403,-0.28595857978815564,1016671.0,-11.63203924127233,0.24717952288187295,0.08950196355243145,1020205.0,13.808135670818885,-0.008464606124438667,0.09586964552136568,1027153.0,1021.9897690279834,1018.4557690279834,1028.9377690279832
67,21,22,F,1,1,59.0,21,4,low,3 + 8 - 7 + 9 - 5,8,7,9,8,1031.4710053000017,1033.4982921999765,1035.0134512999794,1040.0320084000125,1040.604206399992,1040.6042114999727,1042.1205594000055,1043.1380213999655,e,8,0.572197999979835,1,+1,307,1.743856537720939,0.27578930263035684,-0.015358779355888696,1029697.0,-0.3303043055027244,0.6240846532938118,-0.024330580614655428,1033231.0,-14.644496531905212,0.6004184016465963,0.08286448467727636,1106240.0,1035.0157690279832,1031.481769027983,1108.0247690279832
68,21,22,F,1,1,60.0,22,2,high,3 + 9 + 1 - 5 + 1,9,7,9,8,1044.6542694999953,1046.6756875999854,1048.1911837999942,1053.209078099986,1053.836236300005,1053.8362418999895,1055.3530856999569,1056.371030899987,w,9,0.6271582000190392,1,+10,317,16.034428530640877,0.33646067816283853,0.10782955881811618,1042875.0,-5.194985500693914,-0.3668718861063276,-0.2821050736271835,1046408.0,-11.89852759219802,0.24034181447155767,-0.030816987925343042,1066625.0,1048.192769027983,1044.6597690279832,1068.4097690279832
69,21,22,F,1,1,61.0,23,2,high,8 + 1 + 1 + 9 - 4,15,14,16,15,1057.8879550999843,1059.9100015999866,1061.425331300008,1066.4436197999748,1066.8921964999754,1066.8922014999553,1068.4085485999822,1069.4261294999742,e,15,0.448576700000558,1,+10,327,11.137791498520752,-0.041851786475804786,0.03796922461310581,1056109.0,-48.13404407239957,-1.0828425142793607,-0.028657811712398784,1059643.0,-14.529832047218019,-0.6896915764144707,1.6454496007394535,1093057.0,1061.4277690279832,1057.8937690279831,1094.8417690279832
70,21,22,F,1,1,62.0,24,4,high,3 + 8 - 4 + 9 + 6,22,23,21,22,1070.9426610000082,1072.9702687999816,1074.4856259999797,1079.5038511999885,1080.25220659998,1080.2522118999625,1081.769195600005,1082.7867169000092,e,22,0.7483553999918513,1,+10,337,12.393430816720095,0.298419354752407,0.024200920644421364,1069169.0,1.0993341520390119,0.162940997292214,-0.007750096441606402,1072703.0,5.863487479943995,0.6704177328915426,0.1582547179304754,1119376.0,1074.4877690279832,1070.9537690279833,1121.1607690279832
71,21,22,F,1,1,63.0,25,2,high,4 + 8 + 1 + 1 - 6,8,9,7,8,1084.3034882000063,1086.3305181000032,1087.8457691000076,1092.8638984999852,1093.3241986999635,1093.324203600001,1094.8407761999988,1095.8579504999798,e,8,0.4603001999785192,1,+10,347,-8.97816768520894,-0.35103433751625523,0.031721887498524115,1082529.0,12.49057199866405,-1.3194303101249565,0.015583577466738774,1086063.0,-15.485513169632647,0.012316233660431664,0.16590042889318402,1185016.0,1087.8477690279833,1084.3137690279832,1186.8007690279833
72,21,22,F,1,1,64.0,26,4,low,6 + 5 - 7 + 8 - 9,3,4,5,3,1097.3746166999915,1099.3994442999829,1100.9146527999546,1105.9332507000072,1106.508127100009,1106.508131999988,1108.0247954999795,1109.0418732999824,e,3,0.5748764000018127,1,+1,348,5.910073363582937,0.8023322866853748,1.553307251114254,1095598.0,0.8057169861119249,0.5128413563888286,0.02179535584168013,1099132.0,17.135487853622735,0.28677868091082814,0.3502106780963432,1158784.0,1100.9167690279833,1097.3827690279832,1160.5687690279833
73,21,22,F,1,1,65.0,27,4,high,9 + 8 - 5 - 7 + 6,11,10,13,11,1110.5588063999894,1112.5845520999865,1114.09964879998,1119.1181247999775,1119.644204000011,1119.6442091999925,1121.1606445999932,1122.1778393999557,e,11,0.5260792000335641,1,+10,358,-0.8538986785155931,-0.2387437185725796,0.0721590906859293,1108783.0,11.944350081122264,-0.8429513475466441,-0.06697106801517072,1112317.0,8.464164295439081,-0.3762039495498861,-0.00886918134853465,1211241.0,1114.1017690279832,1110.567769027983,1213.0257690279832
74,21,22,F,1,1,66.0,28,1,high,2 + 1 + 9 + 1 + 1,14,14,12,13,1123.694902499963,1125.7191820999724,1127.234411399986,1132.2521943000029,1132.8121516999672,1132.8121566000043,1134.3288885999937,1135.3462201000077,q,14,0.5599573999643326,1,+10,368,12.313123539088716,0.3372697712262447,0.06876160907495388,1121918.0,18.512946438957094,-1.0360905748385711,0.13183310724471564,1125451.0,16.10189226940099,-0.10311912866590323,0.005688844989667707,1132545.0,1127.2357690279832,1123.702769027983,1134.3297690279833
75,21,22,F,1,1,67.0,29,3,high,5 + 6 - 4 - 1 + 8,14,16,15,14,1136.8631374000106,1138.88733160001,1140.4028960999567,1145.4206833000062,1145.9241378000006,1145.9241427999805,1147.440820799966,1148.4579739999608,e,14,0.5034544999944046,1,+10,378,26.561027487889074,0.1993282514266772,0.15778637169442944,1135086.0,-13.150984753893622,0.5530773981326202,-0.1002826954211502,1138619.0,-12.513724260020357,0.5631960987737248,-0.011616110861736084,1332903.0,1140.4037690279831,1136.8707690279832,1334.6877690279832
76,21,22,F,1,1,68.0,30,4,low,6 + 9 - 7 + 8 - 5,11,11,12,13,1149.9743961999775,1152.0033414000063,1153.518243599974,1158.5369127999877,1159.052150500007,1159.0521555999876,1160.568645599997,1161.5857989999931,q,11,0.5152377000194974,1,+1,379,-12.89830410428507,0.8532336783383281,0.0909508126023284,1148202.0,-51.55650762458325,-0.2633415264213861,0.08252586734955702,1151735.0,10.445941706942623,0.8149615033583908,0.03238515596838143,1250481.0,1153.519769027983,1149.9867690279832,1252.2657690279832
77,21,22,F,1,1,69.0,31,3,low,6 + 8 + 7 + 1 - 9,13,14,13,15,1163.1028445999837,1165.1283212999697,1166.6435815999866,1171.663594499987,1172.108160200005,1172.1081657999894,1173.624398099957,1174.6410399999586,w,13,0.4445657000178471,1,+1,380,-24.966077509904025,0.5991937373818779,0.10008867051064696,1161327.0,-16.376932076392944,0.47743011665825197,-0.23542597315013314,1164862.0,4.449741537281206,-0.19228893257380975,-0.023327133962257385,1411631.0,1166.6467690279833,1163.1117690279832,1413.4157690279833
78,21,22,F,1,1,70.0,32,2,high,6 + 1 + 8 + 5 - 1,19,18,17,19,1176.1575280000106,1178.18436319998,1179.6996721999603,1184.7176406999934,1185.284068399982,1185.2840732999612,1186.800860999967,1187.81864079996,e,19,0.5664276999887079,1,+10,390,-10.5686908451422,-0.36523085070102557,-1.3245359115635407,1174383.0,38.56900353762824,0.41966415971748106,-0.19535032274862818,1177916.0,-5.325228419817137,-0.624247124012471,0.06799731275715759,1224312.0,1179.7007690279831,1176.1677690279832,1226.096769027983
79,21,22,F,1,1,71.0,33,1,low,8 + 1 + 1 + 1 - 4,7,8,7,5,1189.3361586999963,1191.36172049999,1192.8768495999975,1197.896026999981,1198.3161057999823,1198.316110899963,1199.832760499965,1200.849669899966,w,7,0.4200788000016473,1,+1,391,-10.130208174084782,-0.6505400270982813,0.07405067666605136,1187560.0,13.7254663088213,-0.34785446951875443,-0.0015738057413439144,1191094.0,-7.28528059390408,-0.764133007585456,-0.11180976103257079,1198048.0,1192.8787690279833,1189.3447690279831,1199.8327690279832
80,21,22,F,1,1,72.0,34,4,low,5 + 8 - 4 - 6 + 9,12,12,13,14,1202.3666602000012,1204.3930087999906,1205.9082385000074,1210.926715300011,1211.5091394999763,1211.5091444999562,1213.0255397,1214.0428958999692,q,12,0.5824241999653168,1,+1,392,-19.49508413352268,0.1438630785500159,0.09463589068421063,1200591.0,-7.650524480369772,-0.5995128435927146,0.09874348063667204,1204125.0,13.81770391063704,-0.6167826351917363,-0.11586370394210554,1345951.0,1205.9097690279832,1202.375769027983,1347.7357690279832
81,21,22,F,1,1,73.0,35,2,high,7 + 6 + 1 - 1 - 8,5,5,3,4,1215.5597437999677,1217.5815049000084,1219.0966995999916,1224.115286199958,1224.5801490999877,1224.5801544999704,1226.0965902999742,1227.1142384000125,q,5,0.4648629000294022,1,+10,402,-12.114107591400234,0.3502403456464025,-0.02509768895200004,1213780.0,-13.46348266615538,0.9203463303542101,0.034279187562608504,1217313.0,18.45319034549965,-1.4427787251902444,0.5788662026534777,1293415.0,1219.0977690279833,1215.5647690279832,1295.1997690279832
82,21,22,F,1,1,74.0,36,3,high,8 + 5 + 1 - 7 + 9,16,14,16,17,1228.6309423999628,1230.6539779999875,1232.1691528999943,1237.1872444999751,1237.6440162999788,1237.6440212999587,1239.1605441999857,1240.1777945999638,q,14,0.4567718000034801,0,+0,402,18.602362798390114,0.6915754088714188,-0.16175058099098338,1226852.0,-20.711605461909222,0.22788596756234902,0.007044960943869638,1230386.0,-7.136000001705604,0.3088991427955765,0.16426958002543457,1464462.0,1232.1707690279832,1228.6367690279833,1466.2467690279832
83,21,22,F,1,1,75.0,37,4,high,7 + 8 - 4 + 6 + 5,22,22,21,23,1241.694330999977,1243.7203830999788,1245.2356261999812,1250.2539135999978,1250.7480215000105,1250.7480265999911,1252.2654311999795,1253.2827414000058,q,22,0.4941079000127502,1,+10,412,-27.32502343910323,0.43164097568832016,-0.1549648153537495,1239919.0,12.69593864057443,0.2837367458739424,0.2013383811594034,1243452.0,-28.48131979056985,-0.35048288489490176,0.11370171614090618,1372455.0,1245.2367690279832,1241.7037690279833,1374.2397690279831
84,21,22,F,1,2,76.0,0,2,low,5 - 1 + 1 + 8 + 9,22,23,21,22,1284.5122831999906,1286.538398500008,1288.0537232999925,1293.0726577999883,1293.6839853999554,1293.6839910999988,1295.200702000002,1296.217769699986,e,22,0.6113275999668986,1,+1,413,10.421542960173248,-2.207871526327148,0.3625907831505515,1282736.0,-24.888180819571826,-0.09893334140316057,0.35287610295207905,1286271.0,28.8088221453638,1.625606317147387,0.002907418633871117,1437983.0,1288.0557690279832,1284.5207690279833,1439.7677690279831
85,21,22,F,1,2,77.0,1,1,high,4 + 8 + 1 - 1 - 1,11,13,11,9,1297.735166999977,1299.762204699975,1301.277393599972,1306.295294499956,1307.0919521999897,1307.0919579999754,1308.608489700011,1309.6256529999664,w,11,0.7966577000333928,1,+10,423,23.665542043555206,0.08473199053718528,0.08485299432317484,1295960.0,11.010249015514315,-0.2270638905714062,0.09352579037554931,1299493.0,-10.327689789638338,0.09591848440218165,-0.09949692579943248,1306824.0,1301.2777690279831,1297.7447690279832,1308.6087690279833
86,21,22,F,1,2,78.0,2,1,low,9 + 7 + 1 + 1 + 1,19,18,19,20,1311.142509599973,1313.1686787999934,1314.684089699993,1319.7021494999644,1320.1639725999555,1320.1639782999991,1321.6803810999843,1322.697061199986,w,19,0.4618230999913066,1,+1,424,15.283864404005199,0.04894089718115957,-0.01594137756551639,1309366.0,-0.6316207407315098,-1.2881652462257263,0.15704271534493497,1312900.0,7.950026399597564,-0.2347222159121607,0.09605546953071253,1319895.0,1314.6847690279833,1311.1507690279832,1321.6797690279832
87,21,22,F,1,2,79.0,3,3,low,7 - 5 + 9 + 1 - 4,8,9,8,7,1324.213762499974,1326.2413174000103,1327.7562241999549,1332.774741399975,1333.1718747999985,1333.1718800999806,1334.6883772999863,1335.7052983999602,w,8,0.3971334000234492,1,+1,425,7.7887830420855195,-0.22566304591431674,0.15958263204107492,1322439.0,16.539252556331366,0.5800176654931626,0.02226251609317087,1325972.0,8.85317800098911,-0.19446760345594782,-0.025624434432053533,1477622.0,1327.7567690279832,1324.2237690279833,1479.4067690279833
88,21,22,F,1,2,80.0,4,4,low,5 + 7 - 4 + 6 + 9,23,24,23,25,1337.2220124999876,1339.2495442999643,1340.764915000007,1345.7840116999578,1346.2201631999924,1346.2201685999753,1347.7366497999756,1348.753082399955,w,23,0.4361515000346116,1,+1,426,-17.494985421320813,0.8190729846728422,0.12471838129985868,1335447.0,27.754310776529962,-0.5660048094950305,0.27918666114739876,1338981.0,9.167599969139445,-0.3015960862036211,0.17426665151881537,1424896.0,1340.7657690279832,1337.231769027983,1426.6807690279832
89,21,22,F,1,2,81.0,5,1,low,6 + 1 + 1 + 7 - 1,14,14,13,12,1350.2699771999614,1352.295992099971,1353.8109848999884,1358.828347600007,1359.5798877999769,1359.5798931999598,1361.0964703999923,1362.1133742000093,q,14,0.7515401999698952,1,+1,427,21.584572783949383,1.126540570634285,-0.2458851609120387,1348493.0,4.293341607828445,0.7258735465307495,0.06513098765259318,1352027.0,59.792933462357695,-1.0698287285551853,-0.0709974923387986,1359311.0,1353.8117690279832,1350.2777690279831,1361.0957690279831
90,21,22,F,1,2,82.0,6,4,low,4 + 7 - 8 + 9 - 3,9,9,11,8,1363.6301769999554,1365.6559205999947,1367.1715085000033,1372.190552199958,1372.723887500004,1372.7238926999853,1374.2403107999708,1375.2572120999685,q,9,0.5333353000460193,1,+1,428,18.150431476680605,-0.30185384529603887,-0.17515631206166637,1361853.0,5.321645197911977,-0.1726760027903138,-0.052289541350643676,1365388.0,10.658283295356963,-0.5636639823813416,0.0856148559075991,1451399.0,1367.1727690279831,1363.6377690279833,1453.183769027983
91,21,22,F,1,2,83.0,7,4,low,6 + 9 + 7 - 3 - 5,14,14,15,13,1376.7741256000008,1378.799208100012,1380.314460899972,1385.3334470999544,1385.739790499967,1385.7397959000082,1387.256313299993,1388.2734992000042,w,15,0.4063434000127017,0,+0,428,26.85577329021492,-0.05414667738118073,0.051696892315444165,1374997.0,-46.41883723444848,-0.31539276629050494,0.0008194500396474513,1378531.0,13.646954775720861,0.4062377500480112,0.07451359797233748,1503982.0,1380.3157690279832,1376.7817690279833,1505.7667690279832
92,21,22,F,1,2,84.0,8,1,low,8 + 1 + 5 + 1 + 1,16,17,15,16,1389.790281299967,1391.815957099956,1393.331250999996,1398.3490833999822,1398.8119160999777,1398.8119213999598,1400.3284464000026,1401.345283099974,e,16,0.4628326999954879,1,+1,429,-40.671606551374666,0.6597643170740293,0.14697269488234865,1388013.0,5.0711394241146,0.3199270482160905,0.121345092455873,1391547.0,-4.538273506534123,0.03339385109158144,0.01581162597985375,1398543.0,1393.3317690279832,1389.7977690279831,1400.327769027983
93,21,22,F,1,2,85.0,9,3,low,6 + 7 + 8 + 1 - 9,13,14,13,15,1402.862469099986,1404.8903332999907,1406.4055151999928,1411.4240218999912,1411.8998132999986,1411.8998183999793,1413.416566699976,1414.433585599996,w,13,0.4757914000074379,1,+1,430,3.4437549545867165,0.9594137410867907,-0.0694584532082696,1401088.0,7.942471314224856,1.250605798746979,0.22468789604827522,1404621.0,-32.29641809700352,-0.26076733434641675,-0.07172252337528162,1516990.0,1406.4057690279833,1402.8727690279832,1518.7747690279832
94,21,22,F,1,2,86.0,10,4,high,5 + 8 - 6 + 7 + 4,18,17,18,19,1415.9504120000056,1417.9754332999582,1419.490534099983,1424.509075300011,1425.1637968999569,1425.1638018999947,1426.6811652999604,1427.6985020999564,w,18,0.6547215999453329,1,+10,440,-11.448081832987807,0.912273963555851,0.10222686477483123,1414173.0,10.030107322107867,-0.6978087526217722,0.027370643664026417,1417706.0,-7.5699056735584875,0.22769750024958224,0.043869629128433285,1543142.0,1419.490769027983,1415.9577690279832,1544.9267690279833
95,21,22,F,1,2,87.0,11,2,high,6 + 1 + 7 + 5 - 1,18,17,16,18,1429.215335499961,1431.24250329996,1432.7578336999868,1437.7763754999614,1438.2519013999845,1438.251906599966,1439.7681377999834,1440.785198299971,e,18,0.475525900023058,1,+10,450,10.865664465638737,-0.1445046204214746,-0.10277590588551222,1427440.0,-23.38590748251425,1.0931353602995983,0.1922405625254371,1430973.0,7.269849801424485,0.5314094692312299,0.038107926337735076,1661101.0,1432.7577690279832,1429.2247690279833,1662.8857690279833
96,21,22,F,1,2,88.0,12,4,low,8 + 5 - 4 + 7 + 9,25,24,26,25,1442.302054299973,1444.326157399977,1445.8411719999858,1450.860773399996,1451.6677987999865,1451.6678042999702,1453.184791799984,1454.2016879000005,e,25,0.8070253999903798,1,+1,451,16.733218651876427,0.06367576075122727,-0.07569831403765259,1440523.0,-8.415583945025263,0.11070498093944536,0.10046286571272,1444057.0,48.9482262623104,-0.5532063891892207,0.23138103687136713,1622093.0,1445.8417690279832,1442.307769027983,1623.8777690279833
97,21,22,F,1,2,89.0,13,3,low,8 - 1 + 6 - 7 + 5,11,12,13,11,1455.7183841000078,1457.7452944999677,1459.2601959999884,1464.278873000003,1464.7318556999671,1464.7318615000113,1466.2483648000052,1467.265190999955,e,11,0.4529826999641955,1,+1,452,1.9018436355549033,0.014878568734451036,0.013618881837633934,1453942.0,6.685496822345154,-0.16918891426376526,0.011617960457683374,1457476.0,19.22989905658353,-0.6513772328771887,-0.03333139899135151,1530054.0,1459.2607690279833,1455.7267690279832,1531.8387690279833
98,21,22,F,1,2,90.0,14,3,low,2 + 9 - 3 + 4 + 1,13,11,13,14,1468.7814175999956,1470.8056523999549,1472.3209518999793,1477.3392422999605,1477.8917774999863,1477.8917826999675,1479.408305099991,1480.425302299962,w,13,0.5525352000258863,1,+1,453,-8.797182660205909,0.15921454886237552,0.021205938870803465,1467003.0,-7.131066299652616,0.07098167920110221,0.04350880893414821,1470536.0,23.856595978073248,0.0226161712956916,0.13123830266540049,1582965.0,1472.3207690279833,1468.7877690279831,1584.7497690279831
99,21,22,F,1,2,91.0,15,1,high,8 - 1 + 1 + 6 + 1,15,15,16,14,1481.9421071999825,1483.9673694999656,1485.4820841999608,1490.5001150000026,1491.051823799964,1491.0518289000029,1492.5684208999735,1493.586138399958,q,15,0.5517087999614887,1,+10,463,7.9924772321033775,0.48279459496163124,0.15304371005388306,1480165.0,-12.470892328783933,0.6218538463978467,-0.22404330049069898,1483697.0,-27.002209726851284,-0.041823463516206694,-0.10460460557567908,1490783.0,1485.481769027983,1481.9497690279832,1492.567769027983
100,21,22,F,1,2,92.0,16,4,high,2 + 9 - 4 + 8 + 7,22,21,23,22,1495.1030431999825,1497.1297484000097,1498.6449203999946,1503.6632424999843,1504.2516812999966,1504.251686099975,1505.7682078999933,1506.7852777999942,e,22,0.5884388000122271,1,+10,473,9.19066951869966,-0.9342222839728116,0.1142517941624015,1493327.0,20.852647866170006,-0.046046261605656724,-0.1620833653116418,1496860.0,-57.78833508845785,0.5061538666344116,-0.05487285651102791,1700869.0,1498.644769027983,1495.1117690279832,1702.6537690279831
101,21,22,F,1,2,93.0,17,3,low,4 + 8 - 3 + 5 - 1,13,12,13,14,1508.302144599962,1510.3288163999678,1511.8438922999776,1516.862292099977,1517.2596717000124,1517.2596766999925,1518.7764266000013,1519.7930620000116,w,13,0.3973796000354923,1,+1,474,-2.8853199038080763,0.22577265053649676,0.12083137640802422,1506526.0,-10.535575750401904,-0.25296216979061015,0.0957935397588896,1510059.0,8.374133382215179,-0.00349736965515568,-0.10711105915878694,1609078.0,1511.8437690279832,1508.3107690279833,1610.8627690279832
102,21,22,F,1,2,94.0,18,3,low,3 + 1 + 6 - 8 + 9,11,11,12,13,1521.3098577999626,1523.3374373000115,1524.8529369999887,1529.871052099974,1530.323690099991,1530.3236958999769,1531.8401665999554,1532.857134599995,q,11,0.452638000017032,1,+1,475,33.22350436172091,-0.77057443186873,0.12640333776565438,1519534.0,-24.731301019061256,1.3266158768116494,-0.15217697670150399,1523068.0,-3.3457410113221533,-0.39087345080562574,0.14086874318003018,1648101.0,1524.8527690279832,1521.3187690279833,1649.8857690279833
103,21,22,F,1,2,95.0,19,4,high,5 + 7 - 4 - 6 + 9,11,13,11,12,1534.373914900003,1536.401397300011,1537.9166749999858,1542.935505500005,1543.4116730999667,1543.4116785000078,1544.9282187999925,1545.9454464999726,w,11,0.4761675999616273,1,+10,485,-17.243871088831632,0.21544810711898776,0.15145678858598988,1532598.0,-5.3230565837615735,-0.9046040670594406,-0.05701592360458374,1536132.0,-24.003988813006274,-0.3466173764614142,0.15361533838825325,1752996.0,1537.9167690279833,1534.3827690279832,1754.7807690279833
104,21,22,F,1,2,96.0,20,1,high,9 + 1 + 1 + 7 - 1,17,19,17,16,1547.4623754000058,1549.489484199963,1551.004579600005,1556.0227793999948,1556.451717399992,1556.451722499973,1557.9679510999704,1558.98513679998,w,17,0.428937999997288,1,+10,495,6.682846726970336,0.04510324830004109,-0.08566464693602205,1545686.0,20.810259958113853,-0.1056723803518187,0.0037883789802741763,1549220.0,-19.19461353097627,0.8131899833453149,-0.07744636021001305,1556182.0,1551.0047690279832,1547.4707690279831,1557.9667690279832
105,21,22,F,1,2,97.0,21,4,low,9 + 4 - 6 + 8 + 7,22,21,22,24,1560.5022844999912,1562.5295140999951,1564.0447089999798,1569.0633250999963,1570.1240454000072,1570.1240506999893,1571.6403044000035,1572.657099700009,e,24,1.0607203000108711,0,+0,495,14.31236052110231,0.5763758208296377,-0.14821898311980153,1558726.0,9.220998824134757,0.5823828586712665,-0.05810503823214308,1562260.0,21.350402718517806,0.3798937607007371,-0.04063890469362619,1869308.0,1564.0447690279832,1560.5107690279833,1871.0927690279832
106,21,22,F,1,2,98.0,22,3,low,3 + 1 + 8 - 5 + 9,16,16,15,17,1574.1739457999938,1576.200868999993,1577.7161189999897,1582.7353700000094,1583.2356209999998,1583.2356263999827,1584.7520263000042,1585.768885699974,q,16,0.500250999990385,1,+1,496,-34.6251304128579,-0.944439637833737,-0.10327326196782893,1572397.0,-50.65151021512458,-0.44090143754150546,-0.049216950762765777,1575932.0,12.796140320286142,-0.4004830332468403,0.049918433332825085,1687453.0,1577.7167690279832,1574.1817690279831,1689.2377690279832
107,21,22,F,1,2,99.0,23,1,low,7 + 1 + 4 + 1 - 1,12,13,11,12,1587.2858302000095,1589.3131283000112,1590.829048399988,1595.8474129000097,1596.331730099977,1596.3317352999584,1597.8488198000125,1598.865619499993,e,12,0.4843171999673359,1,+1,497,4.4867924512426285,-0.5166260522381956,-0.12102645907855036,1585509.0,23.437014264752143,-0.07600348711207339,-0.018509132248982763,1589044.0,-25.616088806405255,0.7836060874008197,0.14122401721224942,1596062.0,1590.8287690279833,1587.2937690279832,1597.846769027983
108,21,22,F,1,2,100.0,24,3,high,7 - 1 + 8 - 6 + 4,12,13,11,12,1600.382459799992,1602.408196399978,1603.923158199992,1608.9432626999917,1609.3475532999728,1609.3475584000116,1610.864226399979,1611.8815444000063,e,12,0.4042905999813229,1,+10,507,-5.892902043922142,0.5155002877576687,0.1885034226885005,1598604.0,13.570431097888,-0.17104908397887453,0.18434775922116975,1602139.0,-30.798924878783836,0.15605616997912986,0.08895905107544522,1856164.0,1603.923769027983,1600.3887690279832,1857.9487690279832
109,21,22,F,1,2,101.0,25,4,low,8 + 4 - 5 + 7 - 6,8,7,8,6,1613.3985627999646,1615.4263485999545,1616.9416272999952,1621.9605890999665,1622.3635249999934,1622.3635306999786,1623.879595800012,1624.896434299997,w,8,0.4029359000269323,1,+1,508,-19.25607080096757,-0.27977106209112623,0.2935168715670753,1611623.0,-1.232549279405303,0.2183790610569183,0.08268548713766499,1615156.0,39.65010098278732,0.29180181536970284,0.12040645079038614,1882404.0,1616.9407690279832,1613.4077690279832,1884.1887690279832
110,21,22,F,1,2,102.0,26,1,high,6 + 1 + 8 + 1 + 1,17,15,17,16,1626.413190399995,1628.438257700007,1629.9531918999855,1634.9717202999743,1635.3636310999864,1635.363636199967,1636.880252700008,1637.8975016999757,w,17,0.3919108000118285,1,+10,518,-12.135251607980813,-0.227794170898596,0.0015826139121255522,1624634.0,-16.74404829009961,-1.1679475798213073,-0.12963074215282466,1628169.0,14.140224135478116,0.5085777296364897,0.01767470209433286,1635094.0,1629.9537690279833,1626.4187690279832,1636.8787690279833
111,21,22,F,1,2,103.0,27,3,high,3 + 8 + 1 + 5 - 9,8,9,8,7,1639.4142135999864,1641.4389993000077,1642.9539810999995,1647.972183000005,1648.371589699993,1648.3715948999743,1649.8880843999796,1650.905418499955,w,8,0.399406699987594,1,+10,528,24.66384297508235,-0.4192339736716493,-0.05964775322086924,1637635.0,-9.104947214094514,0.2081767369661769,-0.17568787131342223,1641168.0,4.0880221030172805,1.0916650328463078,-0.06038971004428184,1960683.0,1642.952769027983,1639.4197690279832,1962.4677690279832
112,21,22,F,1,2,104.0,28,2,high,8 + 1 + 9 + 1 - 5,14,15,14,13,1652.4223322999896,1654.448837200005,1655.964864199981,1660.9829131999868,1661.3715544999577,1661.3715592999945,1662.888040299993,1663.9058028999716,w,14,0.3886412999709137,1,+10,538,10.611628575153917,0.546424689092337,0.07230158463281677,1650645.0,45.490649880031086,-0.481284265787993,0.0468826896524539,1654179.0,-10.787301133869466,0.1367703730892762,-0.0936210434328788,1674141.0,1655.9637690279833,1652.4297690279832,1675.9257690279833
113,21,22,F,1,2,105.0,29,2,high,3 + 1 + 8 - 5 - 1,6,5,6,7,1665.422540600004,1667.4475149000064,1668.9626959000016,1673.9810488999938,1674.4115189999577,1674.411524199997,1675.9281655999948,1676.945310399984,w,6,0.4304700999637134,1,+10,548,7.261476681621714,-0.5051909627898583,-0.13567894519068013,1663644.0,12.499855882529099,-0.4524781699891802,-0.1545422370396894,1667177.0,-9.290371051532382,0.6772390314942536,0.04785646497091456,1765981.0,1668.961769027983,1665.4287690279832,1767.7657690279832
114,21,22,F,1,2,106.0,30,3,high,9 - 5 - 1 - 6 + 8,5,7,5,4,1678.4618685999883,1680.4873468999867,1682.0026472999598,1687.0210005000115,1687.7236089999788,1687.7236144999624,1689.2401467000018,1690.257344999991,w,5,0.7026084999670275,1,+10,558,3.1541693910458157,-0.4620403513401721,-0.005285951407353107,1676684.0,-9.87293918867813,0.15612848913358945,-0.012192454155582677,1680217.0,9.633666810513464,0.8090545476785183,-0.0024525548432965394,1986979.0,1682.0017690279833,1678.4687690279832,1988.7637690279832
115,21,22,F,1,2,107.0,31,4,high,9 + 7 - 5 + 8 + 6,25,25,24,27,1691.774040999997,1693.7990710999584,1695.3143166999798,1700.3328216999653,1701.1394942000045,1701.1394998999897,1702.6559891999932,1703.6733894000065,q,25,0.8066725000389852,1,+10,568,8.906957958833143,-0.8091448737614475,0.09058267397188247,1689995.0,43.18497156637881,-0.35711053488336786,-0.1366584178166217,1693529.0,-15.687823707273976,0.17489082102453146,0.16136210296247588,1921531.0,1695.3137690279832,1691.779769027983,1923.3157690279832
116,21,22,F,1,2,108.0,32,1,high,6 + 1 + 8 + 1 - 1,15,14,15,13,1705.1905644999931,1707.2156221999903,1708.7308615999646,1713.7491323999711,1714.0995297000045,1714.0995347999851,1715.6161598999752,1716.633495899965,w,15,0.3503973000333644,1,+10,578,13.642255033100215,1.0401472365832234,2.3279442736064695,1703411.0,28.575477876139317,0.5110284781485572,-0.2773566704821999,1706945.0,2.840460704003699,-0.3405328256258837,0.3956966787897698,1713829.0,1708.7297690279831,1705.1957690279833,1715.6137690279832
117,21,22,F,1,2,109.0,33,1,low,9 + 8 + 1 + 1 - 1,18,17,19,18,1718.150430299982,1720.1780750000034,1721.6933305999846,1726.7121595999924,1727.163492999971,1727.163498400012,1728.6800853000022,1729.697504199983,e,18,0.4513333999784663,1,+1,579,13.67984570582463,-0.2663915672730166,0.21146648027293002,1716374.0,-7.089782966538307,-0.19082256968370714,0.06648587519713978,1719907.0,1.3270651900330854,1.284151667868183,-0.056464794269550644,1726893.0,1721.6917690279831,1718.1587690279832,1728.6777690279832
118,21,22,F,1,2,110.0,34,1,low,6 + 9 + 1 + 1 - 1,16,15,14,16,1731.2144230999984,1733.2373072999762,1734.7525371999943,1739.7707588999765,1740.195408599975,1740.19541320001,1741.712521999958,1742.72961390001,e,16,0.4246496999985538,1,+1,580,40.32687903730242,0.5167003611955447,0.12038690289357357,1729433.0,9.899546862419356,0.5261663108425108,0.17071128285030346,1732966.0,-9.656087279465622,-0.2858374725284092,0.09989909447798562,1739925.0,1734.750769027983,1731.2177690279832,1741.7097690279832
119,21,22,F,1,2,111.0,35,4,low,7 + 8 - 4 + 6 - 5,12,11,13,12,1744.2462976999814,1746.2719156999956,1747.7871171999725,1752.8056400999776,1753.2675285000005,1753.2675342999864,1754.7841298999847,1755.8014278999765,e,12,0.4618884000228718,1,+1,581,32.386709521735696,0.14293823499688862,0.14534970416635273,1742467.0,-28.59126087600533,-0.4842657432937161,-0.22596243906685443,1746001.0,1.7364973096359009,0.6019184023927595,0.1244129523448767,1973899.0,1747.7857690279832,1744.2517690279833,1975.683769027983
120,21,22,F,1,2,112.0,36,2,high,3 - 1 + 9 - 5 + 1,7,6,7,5,1757.3184917999895,1759.3438616999774,1760.8592731999815,1765.8774993999978,1766.2516610999592,1766.251666600001,1767.7681189999566,1768.785302000004,w,7,0.3741616999614052,1,+10,591,-15.832048701942572,-0.8972555272344334,-0.062042566435089874,1755540.0,5.033134779827963,-1.6830357717790116,0.11413580635746712,1759073.0,-11.897324159271442,-0.05395010093121311,0.09101812667256448,1779093.0,1760.8577690279833,1757.3247690279832,1780.8777690279833
121,21,22,F,1,2,113.0,37,2,high,5 - 8 + 7 + 1 + 1,6,6,7,8,1770.3022545999847,1772.3267070999718,1773.8416438999702,1778.8613402000046,1779.3640476999572,1779.364053500001,1780.8798432999756,1781.896955200005,q,6,0.5027074999525212,1,+10,601,3.478276178697562,-0.6166262743146351,-0.059742875068775625,1768522.0,-16.34064464761955,0.7379485197557596,0.1475441042696346,1772057.0,7.34297588519437,-0.511959175480146,0.09356988554953816,1895395.0,1773.8417690279832,1770.3067690279831,1897.1797690279832
122,21,22,F,1,3,114.0,0,3,low,7 - 1 + 9 - 5 + 4,14,13,14,15,1847.4557017000045,1849.4830525,1850.9982978999612,1856.0182125999709,1856.435301599966,1856.4353063000017,1857.9517693999803,1858.968790099956,w,14,0.4170889999950304,1,+1,602,-2.4881640700716545,-0.35500095799945086,0.0210955460769382,1845678.0,9.558569204078037,-0.21555745788402536,0.18444618042901406,1849213.0,3.9095108023995415,0.03057400247470543,0.11908043783947342,2065723.0,1850.9977690279832,1847.4627690279833,2067.507769027983
123,21,22,F,1,3,115.0,1,4,high,9 + 3 - 5 + 8 + 6,21,21,19,23,1860.485223900003,1862.5082902999711,1864.0234586999868,1869.041868900007,1869.57928169996,1869.579287600005,1871.0955624000053,1872.11269499996,q,21,0.5374127999530174,1,+10,612,14.062161160249822,0.5742310244850986,-0.20128584967750962,1858703.0,-0.5228463183073302,0.8731300428733961,0.05289835844800361,1862237.0,2.2697206297729244,0.6560145852581707,0.07590450904563939,2013258.0,1864.0217690279833,1860.4877690279832,2015.0427690279832
124,21,22,F,1,3,116.0,2,4,high,4 + 7 + 9 - 5 + 7,22,24,23,22,1873.6297946999548,1875.6537363000095,1877.1686984999687,1882.1869858999853,1882.675373299979,1882.6753786999616,1884.191823099973,1885.2095272999725,e,22,0.4883873999933712,1,+10,622,19.46430264017939,0.3687765568680126,0.3138964500263568,1871849.0,-29.989368512484102,-0.05828692346291131,0.05796999534224323,1875382.0,-1.7134683848664078,0.5724517649267975,0.18997895570203172,2091947.0,1877.1667690279833,1873.6337690279831,2093.7317690279833
125,21,22,F,1,3,117.0,3,2,low,8 + 1 + 7 + 1 - 4,13,12,13,14,1886.7263388999852,1888.7546233999888,1890.2696108999664,1895.2880608999983,1895.667223399971,1895.6672286000105,1897.1837462999972,1898.200514199969,w,13,0.3791624999721534,1,+1,623,-25.43538338425965,-0.21496698861697272,-0.23061751110362483,1884949.0,0.8071169474333963,0.31575467677597313,-0.04451504996917022,1888483.0,2.1387587119623817,-0.12383924178705286,-0.0788087560949311,1908564.0,1890.2677690279831,1886.7337690279833,1910.3487690279833
126,21,22,F,1,3,118.0,4,2,high,2 + 1 + 9 - 4 + 1,9,9,11,8,1899.7172401999703,1901.7442280999967,1903.2593440999624,1908.2773656999923,1908.835303300002,1908.8353084999835,1910.351818199968,1911.3691115999827,q,9,0.557937600009609,1,+10,633,-8.722201661336799,0.16053317245828325,0.21137344214328646,1897939.0,-18.777226940664733,-1.3798684091871705,-0.046726929522421745,1901472.0,16.82353336079803,0.694433135452253,0.17572064613510152,1934611.0,1903.2567690279832,1899.7237690279833,1936.3957690279833
127,21,22,F,1,3,119.0,5,4,low,3 + 9 - 4 + 7 + 6,21,20,21,19,1912.885403399996,1914.908429800009,1916.4236825999687,1921.4422861000055,1921.8032157999696,1921.8032204000049,1923.3195546999923,1924.33650049998,w,21,0.36092969996389,1,+1,634,2.331060177812601,-0.07866898080833806,0.09020435590059872,1911104.0,-11.143175404241457,-0.13894775703766005,0.04132151027830089,1914637.0,15.143667645193108,0.30891126433335536,-0.16830675941486506,2157674.0,1916.4217690279831,1912.8887690279832,2159.458769027983
128,21,22,F,1,3,120.0,6,2,low,3 + 9 - 1 - 5 + 1,7,7,6,5,1925.8534258999864,1927.881662699976,1929.396678799996,1934.4147998999688,1934.8832322999951,1934.88323789998,1936.3999406999792,1937.4168525999996,q,7,0.4684324000263586,1,+1,635,-0.05995158033964998,0.7012339224561197,0.2995380107600729,1924076.0,-9.378022366244629,-1.5067631402529642,-0.10238971340215786,1927610.0,10.790702742016556,0.463124960253678,0.08780628538134572,1947619.0,1929.394769027983,1925.8607690279832,1949.4037690279831
129,21,22,F,1,3,121.0,7,2,low,6 + 8 + 1 + 1 - 7,9,8,11,9,1938.9334387999843,1940.9587364000035,1942.474057299958,1947.493166100001,1947.891268200008,1947.8912734999903,1949.4076391999845,1950.4247469999827,e,9,0.398102100007236,1,+1,636,-20.9128968756692,-0.08401435308226901,0.15807088548528814,1937154.0,-7.3834055428595615,-0.3168785166343655,-0.29158469145437893,1940687.0,9.399493772030985,1.216109573319863,-0.02245903592089249,2104971.0,1942.471769027983,1938.9387690279832,2106.755769027983
130,21,22,F,1,3,122.0,8,3,high,4 + 7 - 3 + 5 - 1,12,13,11,12,1951.9413862999645,1953.9665065999725,1955.481606699992,1960.499809400004,1960.9551795999869,1960.955184499966,1962.4713455999736,1963.4884798999992,e,12,0.4553701999830082,1,+10,646,-13.218803777643043,0.3753336079757581,0.07987880372983902,1950161.0,16.470589733199,0.3559920560405878,0.01330714477064765,1953695.0,2.1307094945656146,0.7309940267358543,1.7161922236388185,2171050.0,1955.4797690279831,1951.9457690279833,2172.8347690279834
131,21,22,F,1,3,123.0,9,4,low,5 + 6 - 4 + 7 + 9,23,23,25,24,1965.0052362999995,1967.0313981999643,1968.5464889999712,1973.5644688999744,1974.1711737999576,1974.1711789999968,1975.6875947999647,1976.7049964999896,q,23,0.6067048999830149,1,+1,647,-12.741863015259682,-0.04635903677805242,-0.2129422161199277,1963226.0,1.93858328139196,0.35735658715649077,-0.10540475400393934,1966759.0,8.40787207016621,0.5703714507382767,0.28065823846297144,2223530.0,1968.5437690279832,1965.0107690279833,2225.3147690279834
132,21,22,F,1,3,124.0,10,3,low,7 + 5 + 9 + 1 - 6,16,15,14,16,1978.2218467000057,1980.247492099996,1981.7626989999555,1986.780598399986,1987.251171699958,1987.251177099999,1988.7677051000064,1989.7845688000089,e,16,0.4705732999718748,1,+1,648,-2.9304514122523955,-1.1588280027508642,0.04902859921870473,1976442.0,-8.993861496722893,-0.7653517537010899,-0.0372167803491501,1979975.0,-22.82703467488987,-0.27384232785714424,-0.08223295526371244,2184186.0,1981.759769027983,1978.2267690279832,2185.9707690279834
133,21,22,F,1,3,125.0,11,1,high,2 + 9 + 1 + 1 + 1,14,13,14,12,1991.3021580000056,1993.32683809998,1994.8420210999905,1999.859601199976,2000.3312298000087,2000.331235199992,2001.8477144999777,2002.8645733000008,w,14,0.4716286000330001,1,+10,658,0.4542521367519834,1.017686331119485,1.9137890608436727,1989520.0,-10.238523799557996,0.46726315247579464,-0.12238719094216144,1993054.0,11.41788993709475,0.27966643369956934,0.1660695192262307,2000059.0,1994.8387690279833,1991.3047690279832,2001.8437690279832
134,21,22,F,1,3,126.0,12,4,low,8 + 4 + 7 - 5 - 6,8,8,7,9,2004.381386199966,2006.4087636999905,2007.9237361999692,2012.94228139997,2013.531138799968,2013.5311441000083,2015.0472144999655,2016.0641004999636,q,8,0.5888573999982327,1,+1,659,10.437819024648054,0.45466360204999834,-0.08926552444167335,2002603.0,7.227542420642562,0.049156965024608645,-0.2864781940216572,2006137.0,-10.689227845210038,-0.4816739545935711,-1.2741220660546682,2236618.0,2007.9217690279831,2004.3877690279833,2238.402769027983
135,21,22,F,1,3,127.0,13,1,high,7 + 1 + 6 + 1 + 1,16,18,16,17,2017.580888699973,2019.6086195000096,2021.123585099995,2026.1412469999632,2026.523069399991,2026.523074499972,2028.039534099982,2029.056717199972,w,16,0.381822400027886,1,+10,669,-8.637111160646079,0.35827475451880186,0.020936899607491455,2015803.0,-1.0130314635298134,0.0037843291902444065,0.05961758456837707,2019336.0,7.5592891533598845,-0.07455101670498099,0.20891551990287072,2026251.0,2021.1207690279832,2017.5877690279833,2028.0357690279832
136,21,22,F,1,3,128.0,14,1,low,5 + 1 + 1 + 9 + 1,17,19,16,17,2030.573831799964,2032.6001569000075,2034.115305299987,2039.132946699974,2039.6110968999565,2039.6111019999955,2041.127004000009,2042.1439239999745,e,17,0.4781501999823376,1,+1,670,-2.9982510207076833,-0.522028747840559,0.1555932818860426,2028794.0,-10.892346480571419,-0.15273430915318542,-0.12488207135675422,2032327.0,2.8842930851122794,1.0040201756082263,0.2421310724774881,2039338.0,2034.1117690279832,2030.5787690279833,2041.1227690279832
137,21,22,F,1,3,129.0,15,1,low,3 + 1 + 8 + 1 + 1,14,13,16,14,2043.6606597999928,2045.684182900004,2047.199193699984,2052.217750699958,2052.6751251000096,2052.6751301999902,2054.1920404999983,2055.208955099981,e,14,0.4573744000517763,1,+1,671,3.5525169953235256,0.19288457751103216,0.028737071962303684,2041878.0,1.118483326303215,-0.5128163262576493,0.08828627436483316,2045412.0,-0.5452366558114754,0.08047355023217229,0.15007964119082162,2052403.0,2047.1967690279832,2043.6627690279831,2054.187769027983
138,21,22,F,1,3,130.0,16,3,low,8 - 7 + 9 + 1 + 4,15,15,16,14,2056.725976399961,2058.7535968999728,2060.268889600004,2065.287138399959,2065.995169500005,2065.9951748999883,2067.5119536999846,2068.5288519999594,q,15,0.7080311000463553,1,+1,672,-9.318534614152503,0.1549259997072081,0.14778013839282522,2054948.0,-0.6390247082877373,0.2946204655079674,0.12706904109890926,2058481.0,-13.303445703893853,0.2035406070026653,0.008585967896464819,2315281.0,2060.2657690279834,2056.732769027983,2317.065769027983
139,21,22,F,1,3,131.0,17,1,high,8 + 1 + 4 + 1 + 1,15,16,15,14,2070.045665199985,2072.069614399981,2073.584983699955,2078.602787200012,2079.051055899996,2079.0510613999795,2080.567488199973,2081.585307499976,w,15,0.4482686999836005,1,+10,682,-21.37726606026853,-0.053623650820380675,-0.12127974751410431,2068264.0,20.188628100524113,-0.17618211516766014,-0.01632708428598173,2071797.0,4.440787106551332,-0.8267024187574412,0.013254784537496178,2078779.0,2073.5817690279832,2070.0487690279833,2080.563769027983
140,21,22,F,1,3,132.0,18,4,high,8 + 3 - 4 + 5 + 9,21,21,23,22,2083.101802399964,2085.127764099976,2086.6429391999845,2091.6613641000004,2092.21908369998,2092.219089399965,2093.7355143000023,2094.752709899971,q,21,0.557719599979464,1,+10,692,-0.24082564947520568,0.36246089409284377,-0.153315180969809,2081321.0,11.238167767388825,-0.27038945253097246,-0.0061693049313911175,2084855.0,6.374859080181493,0.13929137118154333,-0.003918186092039644,2302121.0,2086.639769027983,2083.105769027983,2303.9057690279833
141,21,22,F,1,3,133.0,19,2,high,2 + 9 + 1 + 1 - 5,8,8,7,6,2096.26971209998,2098.295244799985,2099.8101961999782,2104.8283216999844,2105.2430389999645,2105.243043900002,2106.759416199988,2107.7767706000013,q,8,0.4147172999801114,1,+10,702,-7.880258278613928,-0.3205378646868873,0.22553569481285862,2094489.0,-39.01235195253243,-0.5582528646474127,0.2350786268907461,2098022.0,9.806256348986729,-0.319822817368995,0.0011207785390734415,2144514.0,2099.806769027983,2096.2737690279832,2146.2987690279833
142,21,22,F,1,3,134.0,20,1,low,6 + 1 + 1 + 9 - 1,16,15,14,16,2109.2937777999905,2111.320540199988,2112.8354282999644,2117.854517199972,2118.4750104999985,2118.475015599979,2119.991473399976,2121.008119700011,e,16,0.6204933000262827,1,+1,703,-2.416526930889903,-0.11190686534669059,-0.21025635275050814,2107514.0,-11.5078659061741,0.6901512462967965,-0.05594489432283112,2111048.0,-13.702662754202459,0.4910565105337641,-0.43976681946850205,2118202.0,2112.832769027983,2109.2987690279833,2119.9867690279834
143,21,22,F,1,3,135.0,21,3,high,9 - 1 + 5 - 6 + 8,15,15,17,14,2122.524856199976,2124.552635099972,2126.0679699999746,2131.0861503999918,2131.5309898999985,2131.5309947999776,2133.048108599964,2134.065073399979,e,14,0.4448395000072196,0,+0,703,-8.889486379909261,0.02454755605649339,0.26490883472955407,2120746.0,5.201101219902173,-0.6576254181165462,0.013815252040084935,2124280.0,24.787496620194673,0.130178749055184,-0.008050589926925866,2418713.0,2126.0647690279834,2122.5307690279833,2420.4977690279834
144,21,22,F,1,3,136.0,22,2,high,4 + 9 - 7 + 1 - 1,6,8,5,6,2135.581882199971,2137.608225999982,2139.123339999991,2144.1416931999847,2144.7869927999564,2144.7869985,2146.3034968999564,2147.3207701999927,e,6,0.6452995999716222,1,+10,713,-45.401235244076375,-0.25869552920473105,0.054461936301759994,2133802.0,3.1538790436884625,0.6349373721173714,0.10423328416406763,2137335.0,-9.386721428359706,-0.47499274269952796,0.050250360786870285,2197226.0,2139.1197690279832,2135.5867690279833,2199.0107690279833
145,21,22,F,1,3,137.0,23,4,low,4 + 7 - 8 + 9 - 4,8,8,9,7,2148.838065499964,2150.8625546999974,2152.3779093999765,2157.3966827999684,2157.947018100007,2157.94702359999,2159.4636122999946,2160.4804845000035,q,8,0.5503353000385687,1,+1,714,8.137116652293074,-0.4868344143012493,-0.010888046118703532,2147056.0,-3.875891102319679,-0.4786845111660014,-0.048132918071944086,2150590.0,-4.804713567209717,-0.4192964703341593,-0.12593574841362454,2405641.0,2152.3747690279833,2148.8407690279832,2407.4257690279833
146,21,22,F,1,3,138.0,24,3,low,2 - 4 + 9 + 7 + 1,15,15,16,13,2161.9971029000008,2164.022789799957,2165.537746999995,2170.5560217999737,2171.3229081999743,2171.322913699958,2172.8392262000125,2173.8565484999563,q,15,0.7668864000006579,1,+1,715,2.488633379970789,0.4394163726149811,0.22096293298133896,2160216.0,-3.429167747010137,0.4077927381499524,-0.16689311026224551,2163750.0,33.99109761264803,0.2214485452854369,0.0344871848480488,2733119.0,2165.534769027983,2162.000769027983,2734.9037690279833
147,21,22,F,1,3,139.0,25,3,low,6 - 1 + 7 - 8 + 9,13,11,12,13,2175.373193799984,2177.3977827999624,2178.912723199988,2183.931155700004,2184.459014699969,2184.4590204000124,2185.975564399967,2186.9925179999555,e,13,0.5278589999652468,1,+1,716,-65.59560153134625,-0.5812125586336139,-0.14455728219388808,2173591.0,18.456399687758033,-0.1347354457412715,0.11356144003416357,2177125.0,8.846841168501602,-0.011226282111833186,0.449324975941531,2772551.0,2178.909769027983,2175.375769027983,2774.335769027983
148,21,22,F,1,3,140.0,26,2,high,9 + 1 + 6 + 7 + 1,24,24,23,25,2188.5091630999814,2190.5353493999573,2192.050631099962,2197.068326699955,2197.4989936999627,2197.498999500007,2199.015409499989,2200.032852799981,q,24,0.4306670000078156,1,+10,726,11.71221871483403,0.14523097950088903,-0.23839003400973713,2186729.0,-51.16809176234653,-0.7054436653744771,-0.06136150544202934,2190262.0,-11.664290198217694,-0.35065472674423415,0.14335570425519162,2210410.0,2192.0467690279834,2188.513769027983,2212.194769027983
149,21,22,F,1,3,141.0,27,2,low,7 + 8 + 1 + 9 + 1,26,24,25,26,2201.549579999992,2203.577442299982,2205.0926999999792,2210.111236399971,2210.682922100008,2210.6829271999886,2212.1998068999965,2213.216824700008,e,26,0.571685700037051,1,+1,727,-2.1323278474976153,0.6186849348470229,0.012944823755783208,2199771.0,-0.1467186729677863,0.06231368140736304,0.11162784902386358,2203305.0,22.19884078785616,0.0615368939365295,0.08631930541555288,2249761.0,2205.089769027983,2201.5557690279834,2251.545769027983
150,21,22,F,1,3,142.0,28,4,high,2 + 9 - 3 + 5 + 8,21,22,21,23,2214.733581200009,2216.759309899993,2218.2744042999693,2223.2932074999558,2223.802967399999,2223.8029732999858,2225.319567799976,2226.336456899997,w,21,0.5097599000437185,1,+10,737,-14.882012364964563,-1.6061719874307214,-0.07709952828515032,2212952.0,-52.51967924772129,-0.5230335922216867,-0.03379285062809201,2216487.0,-6.498841395952535,-0.20982620677420094,-0.046200157207140435,2471344.0,2218.2717690279833,2214.7367690279834,2473.1287690279833
151,21,22,F,1,3,143.0,29,4,high,7 + 6 - 9 + 8 - 3,9,8,7,9,2227.85334099998,2229.8782612999785,2231.393498499994,2236.411680899968,2236.890845499991,2236.890850899974,2238.4072722999845,2239.424256999977,e,9,0.4791646000230685,1,+10,747,7.38976219017068,0.3778206675246141,0.01857604221324305,2226071.0,2.488207363322333,-0.008083496020310221,0.09247641990192568,2229605.0,-14.191814106903108,0.3914887625899164,0.20948181529747645,2602537.0,2231.389769027983,2227.855769027983,2604.321769027983
152,21,22,F,1,3,144.0,30,2,low,2 + 9 - 4 + 1 + 1,9,9,8,11,2240.9413058999926,2242.9669012000086,2244.482159999956,2249.500187699974,2250.034888299997,2250.0348937999806,2251.55126149999,2252.5681830999674,q,9,0.5347006000229158,1,+1,748,-3.5037807887561483,0.3021236721523648,-0.09571716552259879,2239160.0,24.811117185016577,0.04356898078562477,-0.0032426390335653643,2242694.0,1.5023801365584806,0.6460199060557201,-0.08989777968404455,2276002.0,2244.478769027983,2240.944769027983,2277.786769027983
153,21,22,F,1,3,145.0,31,1,low,2 + 1 + 1 + 9 - 1,12,13,11,12,2254.0853329999954,2256.1116140999948,2257.626877099974,2262.644920999999,2263.098979500006,2263.0989845999866,2264.6154406999703,2265.6326125999917,e,12,0.4540585000067949,1,+1,749,36.36808101165668,-0.7395596766297947,-0.10245800308401343,2252305.0,20.64635970080229,0.2682142107472032,0.1320141924039997,2255838.0,9.39912227278019,0.7710840564333141,0.01654377763025172,2262826.0,2257.6227690279834,2254.089769027983,2264.610769027983
154,21,22,F,1,3,146.0,32,2,high,4 + 9 - 7 + 1 - 1,6,6,8,5,2267.14928339998,2269.1750458999886,2270.6902614999563,2275.7085880999803,2276.27495240001,2276.274957699992,2277.791485900001,2278.8087660999736,q,6,0.566364300029818,1,+10,759,23.966126202125157,0.017731440623555805,0.07510963130174408,2265368.0,8.382277492080666,-0.6865631556902114,-0.1852752557514301,2268902.0,24.712704708775167,-0.8774907357559814,0.21108975884110404,2289050.0,2270.6867690279832,2267.152769027983,2290.8347690279834
155,21,22,F,1,3,147.0,33,2,high,6 + 1 + 1 + 7 - 9,6,4,6,8,2280.3255927999853,2282.350476099993,2283.8657696999726,2288.884197200008,2289.322869799973,2289.322874900012,2290.839428699983,2291.856748799968,w,6,0.4386725999647751,1,+10,769,-5.035353886378708,0.27303301835363225,-0.09828994498929644,2278543.0,13.814525315044179,-0.19477655365384905,0.07705943854222141,2282077.0,1.2979390854421737,0.7653556455430284,0.015246384723700324,2328313.0,2283.8617690279834,2280.3277690279833,2330.0977690279833
156,21,22,F,1,3,148.0,34,4,high,4 + 8 + 9 - 3 + 7,25,24,25,26,2293.373140299984,2295.400803799974,2296.9160427000024,2301.934328500007,2302.394803399977,2302.394808999961,2303.9113514999626,2304.9285105000017,w,25,0.460474899969995,1,+10,779,20.265047328280723,-1.5224669356435054,0.06916720948240007,2291594.0,12.454894104000086,0.19248668918543999,-0.0075339090520238905,2295127.0,-51.77305279004582,0.28545438121943345,-0.05644541724229102,2667895.0,2296.911769027983,2293.3787690279833,2669.679769027983
157,21,22,F,1,3,149.0,35,3,low,6 - 1 + 7 - 8 + 9,13,11,13,12,2306.445251600002,2308.4709676000057,2309.986165599956,2315.004426200001,2315.55475099996,2315.5547556999954,2317.071022499993,2318.08814539999,w,13,0.5503247999586165,1,+1,780,30.945323219071085,1.1672576172553208,0.1100070566982354,2304664.0,41.821482507198745,-0.08388963502600078,0.0454291039567738,2308198.0,45.53806895147349,0.25969897083783877,0.005181822763953736,2785695.0,2309.982769027983,2306.4487690279834,2787.4797690279834
158,21,22,F,1,3,150.0,36,2,low,5 + 1 + 7 - 6 + 1,8,7,6,8,2319.6050651000114,2321.633597099979,2323.1491079999832,2328.169058899977,2328.5868151999894,2328.586820799974,2330.1034119999968,2331.120241899974,e,8,0.4177563000121154,1,+1,781,-5.697498120477832,-0.12851748257261875,0.13370852730289906,2317826.0,-20.764116919234795,0.1302899132609383,0.03782921197881928,2321362.0,-23.6362893605608,0.459472600733954,0.06980068198188594,2341361.0,2323.1467690279833,2319.610769027983,2343.145769027983
159,21,22,F,1,3,151.0,37,2,low,9 + 6 + 1 + 7 + 1,24,23,25,24,2332.636735000008,2334.661458599963,2336.1766586999875,2341.1945102000027,2341.6349377000006,2341.634944099991,2343.151348299987,2344.168295499985,e,24,0.4404274999978952,1,+1,782,36.20254485980132,0.08018495450495067,-0.21717135408912824,2330854.0,-26.169636882835444,-0.09354477075005363,0.21249677856928262,2334387.0,-5.311173036356067,0.15131018942574492,0.25826388507295817,2431728.0,2336.1717690279834,2332.638769027983,2433.5127690279833
160,21,22,F,1,4,152.0,0,4,low,3 + 8 - 4 + 9 + 7,23,22,23,24,2396.8792601999594,2398.905666599981,2400.420897600008,2405.441238800005,2405.914776999969,2405.914782600012,2407.431312999979,2408.4482372999773,w,23,0.4735381999635137,1,+1,783,-54.28528398446312,-0.6255223211386269,0.13943870866031416,2395098.0,-36.41151900570742,-0.5793424539183878,0.17933962007642545,2398633.0,16.189467997956815,2.7723032615593812,3.5137037242430886,2720079.0,2400.417769027983,2396.882769027983,2721.8637690279834
161,21,22,F,1,4,153.0,1,3,high,3 + 1 + 8 - 5 + 6,13,15,14,13,2409.965048199985,2411.990534099983,2413.505796499958,2418.523450699984,2418.986649699975,2418.9866551999585,2420.5031302999705,2421.520354399981,e,13,0.4631989999907091,1,+10,793,1.9443423287322261,-0.20228630153976912,-0.2010741086759018,2408183.0,22.581085838551505,-0.33307614127676555,-0.07943569314692311,2411717.0,6.776740182210286,0.7869798341250522,0.0777976403705889,2798958.0,2413.5017690279833,2409.967769027983,2800.7427690279833
162,21,22,F,1,4,154.0,2,2,low,4 + 9 + 1 - 7 - 1,6,6,8,5,2423.0371200999944,2425.0631475999835,2426.5785695000086,2431.597035599989,2432.002689199988,2432.002694399969,2433.519189499959,2434.535919599992,q,6,0.4056535999989137,1,+1,794,8.392480002784632,0.08406092557419953,-0.11627986340159469,2421255.0,26.326144262648942,0.9826077002753895,-0.013484788287014826,2424789.0,-16.620873823959226,0.8833813327999325,-0.05613324615569759,2444752.0,2426.5737690279834,2423.0397690279833,2446.536769027983
163,21,22,F,1,4,155.0,3,2,high,5 + 8 + 1 - 1 + 9,22,23,21,22,2436.052294299996,2438.078488399973,2439.5937415999942,2444.6118656999897,2445.026628699969,2445.026633600006,2446.542868799996,2447.5601443999917,e,22,0.4147629999788478,1,+10,804,16.52648135613763,-0.6133472714825414,-0.013428534948358273,2434271.0,-5.508014023315238,0.32508138710899104,-0.17121775050475607,2437804.0,2.5849250819686826,0.7632641086723853,0.00015433952786425564,2510512.0,2439.5887690279833,2436.0557690279834,2512.2967690279834
164,21,22,F,1,4,156.0,4,1,low,3 + 1 + 1 + 9 - 1,13,12,13,14,2449.0768832999747,2451.10417159996,2452.6193677999545,2457.637938699976,2458.1147471999866,2458.114752399968,2459.6316567999893,2460.6486149999546,w,13,0.4768085000105202,1,+1,805,25.726542017099145,0.2656305972149351,0.08076834072726458,2447296.0,19.842874662918465,0.5536412278578302,0.06291965441897585,2450830.0,5.115010932347465,0.9721890371372295,0.08318498928685658,2457841.0,2452.614769027983,2449.080769027983,2459.625769027983
165,21,22,F,1,4,157.0,5,4,low,6 + 7 + 9 - 3 + 5,24,23,24,22,2462.1656132999924,2464.1915447000065,2465.706652099965,2470.7254523999877,2471.618612799968,2471.618618000008,2473.135302699986,2474.1521074000048,w,24,0.8931603999808431,1,+1,806,6.829700896904246,-0.8782697103185271,0.00879584671926148,2460384.0,0.01880432220321282,-1.2220488845571706,-0.13404401606691607,2463917.0,-6.647235128384231,0.2281659848229829,0.0038279978241080315,2746247.0,2465.701769027983,2462.168769027983,2748.031769027983
166,21,22,F,1,4,158.0,6,1,high,8 + 1 + 1 - 1 - 4,5,5,6,3,2475.668782199966,2477.6970912999823,2479.212386199972,2484.2303088000044,2484.6426556999795,2484.642661299964,2486.158827899955,2487.1759582000086,q,5,0.4123468999750912,1,+10,816,8.491217648662861,0.25959319196141095,0.020966160614603435,2473889.0,11.704659274729416,0.18954507544491328,-0.128723534301876,2477423.0,-22.596052540252117,0.45030651547141165,-0.2183267789989931,2484368.0,2479.207769027983,2475.6737690279833,2486.152769027983
167,21,22,F,1,4,159.0,7,1,high,7 - 1 + 8 + 1 - 1,14,13,14,12,2488.692534199974,2490.7162150999648,2492.231235699961,2497.2499612999964,2497.6665445999824,2497.666550499969,2499.182913900004,2500.2001774999662,w,14,0.4165832999860868,1,+10,826,1.249103427111251,-1.0639116797680401,0.04761864863341625,2486909.0,1.1531965738969774,-0.44143047033933147,-0.20745594578629634,2490442.0,5.168426715069581,-0.2259957060288622,-0.026631038932743323,2497392.0,2492.226769027983,2488.6937690279833,2499.176769027983
168,21,22,F,1,4,160.0,8,2,low,8 + 1 + 9 + 1 - 4,15,14,16,15,2501.716886599956,2503.7453016999643,2505.260475799965,2510.278591599956,2510.786761399999,2510.786766699981,2512.3029111999786,2513.3195866000024,e,15,0.5081698000431061,1,+1,827,-26.341030606869786,0.08976800720432099,-0.02621358462580803,2499937.0,7.3775832348283785,0.1898674252667325,-0.019913262202893023,2503471.0,10.547944009609163,-0.3264182938539193,0.21040801303266443,2523528.0,2505.255769027983,2501.721769027983,2525.312769027983
169,21,22,F,1,4,161.0,9,2,high,9 + 5 - 6 + 1 - 1,8,7,8,9,2514.8361963999923,2516.8641967999865,2518.37935459998,2523.3976669000112,2523.802641599963,2523.8026468000025,2525.3191815000027,2526.336371599988,w,8,0.4049746999517083,1,+10,837,9.390091618481643,0.2626034058634117,-0.04252501737011549,2513056.0,-13.373475630207857,-0.5593116840039833,-0.03816956753851475,2516590.0,9.314354627429601,0.6138410654271347,-0.321360740041408,2550064.0,2518.3747690279833,2514.8407690279832,2551.848769027983
170,21,22,F,1,4,162.0,10,4,low,4 + 7 + 8 - 3 + 9,25,24,26,25,2527.852990799991,2529.876293599955,2531.391453899967,2536.4104923999985,2537.2825450999662,2537.282550200005,2538.798957699968,2539.8164628999657,w,26,0.8720526999677531,0,+0,837,29.74022849721196,-0.5296375976381,-0.14681795757725524,2526068.0,-6.545230879844116,-0.34891104238920523,0.25191591064429764,2529602.0,28.08946435353042,-0.2591993846995324,0.027641315160219726,2759431.0,2531.386769027983,2527.8527690279834,2761.2157690279832
171,21,22,F,1,4,163.0,11,2,low,2 + 1 + 9 - 4 + 1,9,8,9,11,2541.333218799962,2543.36172549997,2544.8768649999984,2549.894912899996,2550.338641899987,2550.338646999968,2551.8557571999845,2552.8726483999635,w,9,0.4437289999914355,1,+1,838,-17.77398696896823,0.2734298300425744,0.2059953552321856,2539554.0,-58.666565853640954,0.038477936298713544,-0.009435662361225727,2543087.0,-22.448113884063133,-0.6744982725549393,-0.14914411171597486,2589440.0,2544.871769027983,2541.3387690279833,2591.2247690279833
172,21,22,F,1,4,164.0,12,1,low,4 + 1 + 1 + 7 - 1,12,13,12,14,2554.3893012999906,2556.414833599993,2557.930083899992,2562.948400299996,2563.442627499986,2563.4426329999696,2564.959144999972,2565.975906799955,w,12,0.4942271999898366,1,+1,839,28.564308395443817,-0.09361965492481605,0.15864596682169374,2552607.0,5.023904774927814,-0.09091329730769004,-0.01570733743401398,2556141.0,-31.887143384846333,0.8087503945432291,-0.01239473727556284,2563168.0,2557.9257690279833,2554.391769027983,2564.9527690279833
173,21,22,F,1,4,165.0,13,1,high,7 + 1 + 5 + 1 - 1,13,14,12,13,2567.492595699965,2569.518509899965,2571.03372409998,2576.0520184999914,2576.498466299963,2576.4984716000035,2578.015094099974,2579.0335694999667,w,12,0.4464477999717928,0,+0,839,-44.63378813626365,0.6266458768285359,0.04911281221934649,2565710.0,26.984271318222984,-1.9007200607351669,-0.11973752562286633,2569244.0,0.7339649093812168,0.813805863904034,0.24458397096984807,2615703.0,2571.0287690279833,2567.4947690279832,2617.487769027983
174,21,22,F,1,4,166.0,14,2,low,7 + 6 + 1 + 8 + 1,23,23,22,21,2580.550503699982,2582.576473299996,2584.091694100003,2589.1096908999607,2589.714600999956,2589.714606399997,2591.2311541999807,2592.248015099962,q,23,0.6049100999953225,1,+1,840,8.473826665277677,0.19253664916472246,0.16122014069285395,2578768.0,2.5575606237771504,-0.37959644628537337,0.13137385069392238,2582302.0,-8.17905153074873,0.6387707302432277,-0.16888046177169747,2628719.0,2584.0867690279833,2580.5527690279832,2630.5037690279833
175,21,22,F,1,4,167.0,15,4,high,3 + 9 - 5 + 8 - 7,8,8,7,9,2593.764634499966,2595.793630999978,2597.308851699985,2602.3278648999985,2602.810426399985,2602.810431499965,2604.326862099988,2605.3447076999582,q,8,0.4825614999863319,1,+10,850,-15.0707590530977,0.6865524270723613,-0.6483104219107894,2591985.0,1.8592694546968516,-0.5475835669908191,0.1219400242172628,2595519.0,,,,,2597.303769027983,2593.7697690279833,
176,21,22,F,1,4,168.0,16,1,high,7 + 1 + 4 + 1 - 1,12,12,14,13,2606.8614026999567,2608.885609399993,2610.401133199979,2615.4192909999983,2615.9784814000013,2615.9784869999858,2617.494458100002,2618.512234799972,q,12,0.5591904000029899,1,+10,860,-3.6367010137016607,-0.19779627874236816,0.1733789883746666,2605077.0,1.080816165592232,0.6694362511003069,0.1906855373809928,2608611.0,-4.824250589861197,-0.4212911237640693,-0.07334487085386554,2654760.0,2610.395769027983,2606.8617690279834,2656.5447690279834
177,21,22,F,1,4,169.0,17,2,low,9 + 4 + 5 + 1 - 1,18,19,17,18,2620.0289798000013,2622.054507499968,2623.5697242000024,2628.5877397999866,2628.9944556999835,2628.994461199967,2630.5109093000065,2631.527882299968,e,18,0.4067158999969251,1,+1,861,-4.6062816718509225,-0.35721212193403495,0.2816045642033904,2618246.0,22.178255916871528,-0.08651050906114754,0.1105416147207321,2621779.0,30.465013406499438,0.1057118040314533,0.03548414720128612,2641688.0,2623.563769027983,2620.0307690279833,2643.4727690279833
178,21,22,F,1,4,170.0,18,2,high,6 + 1 + 7 - 8 - 1,5,4,5,7,2633.0446265999926,2635.0728677999577,2636.588171100011,2641.606300299987,2641.9625080999685,2641.962513400009,2643.479347699962,2644.496528499993,w,5,0.3562077999813482,1,+10,871,-9.919733401948413,-1.0278557789354066,0.08410082105131433,2631264.0,8.597641028631621,0.03627697471588842,-0.0826136522174008,2634798.0,12.761753334565878,-0.012217889631312318,0.2936335343737806,2693960.0,2636.582769027983,2633.0487690279833,2695.7447690279832
179,21,22,F,1,4,171.0,19,1,high,5 + 8 - 1 + 1 + 1,14,14,16,12,2646.0129989999696,2648.04044849996,2649.555665199994,2654.574932299962,2655.034438100003,2655.034443599987,2656.551123099984,2657.568278599996,q,14,0.4595058000413701,1,+10,881,14.439291304543026,0.41949770518723906,0.0942440499300985,2644232.0,-20.280340956983622,0.17128422868906945,0.02182181198077071,2647766.0,16.66031576823532,-0.18342565571931324,-0.15388244371301685,2680959.0,2649.5507690279833,2646.016769027983,2682.743769027983
180,21,22,F,1,4,172.0,20,4,low,5 + 9 - 4 + 7 + 6,23,23,25,24,2659.084952800011,2661.112849499972,2662.627842599992,2667.6462452000123,2668.170418499969,2668.1704238000093,2669.686990099959,2670.703933599987,q,23,0.5241732999566011,1,+1,882,-66.11633045247116,0.1610245077086958,0.1626601828947054,2657304.0,5.606708588910115,0.32094045854646414,0.14628768173613915,2660838.0,,,,,2662.6227690279834,2659.0887690279833,
181,21,22,F,1,4,173.0,21,1,low,2 + 9 + 1 + 1 + 1,14,13,12,14,2672.2206671999884,2674.246235199971,2675.761486399977,2680.7804390999954,2681.234381699993,2681.234386899974,2682.750467100006,2683.7679483999964,e,14,0.45394259999739,1,+1,883,-6.760128620491395,0.47090030668467797,0.33156658836899267,2670437.0,17.46288075687699,0.35862870835033167,-0.0304376119482197,2673972.0,14.73501868460227,0.1180938738433639,0.25451258637644036,2706999.0,2675.7567690279834,2672.221769027983,2708.783769027983
182,21,22,F,1,4,174.0,22,2,low,7 + 5 + 1 + 9 + 1,23,22,23,21,2685.284676100011,2687.312190499972,2688.8274338999763,2693.845362699998,2694.234398400004,2694.234403599985,2695.751650499995,2696.7690246999846,w,23,0.3890357000054791,1,+1,884,7.640205916981978,0.18074847870888888,-0.2835657095286428,2683503.0,11.232883872539349,0.10171287375530724,-0.1084334064604926,2687037.0,-4.091086977798505,-0.9226753818753712,0.09521932241192133,2930854.0,2688.821769027983,2685.2877690279834,2932.638769027983
183,21,22,F,1,4,175.0,23,1,low,2 + 1 + 9 + 1 - 1,12,11,12,13,2698.285748699971,2700.3107842999743,2701.8260332999635,2706.845511099964,2707.274365499965,2707.2743708000053,2708.790802499978,2709.807596999977,w,12,0.4288544000010006,1,+1,885,8.117651552328528,-0.3861331368677767,-0.1722311096079121,2696502.0,-22.541255140957574,0.4657276488594082,0.05168325692066045,2700037.0,-9.601211450197855,0.7837686926172704,-0.02466360954133906,2812214.0,2701.821769027983,2698.286769027983,2813.998769027983
184,21,22,F,1,4,176.0,24,4,low,2 + 5 - 3 + 9 + 8,21,21,22,19,2711.324317199993,2713.3514117999584,2714.8664456999977,2719.884881599981,2720.3542804999743,2720.3542857999564,2721.8711143999826,2722.8883226999897,q,21,0.4693988999933935,1,+1,886,-23.06502233854321,1.5839453413890716,0.19488594668577974,2709542.0,-12.615336034339581,-0.39308112268032147,0.02965572000103478,2713076.0,,,,,2714.860769027983,2711.326769027983,
185,21,22,F,1,4,177.0,25,3,low,2 + 1 + 9 - 7 + 6,11,11,13,12,2724.405135100009,2726.432389499969,2727.9474944999674,2732.9658135999925,2733.394443999976,2733.3944491999573,2734.9110302999616,2735.927935099986,q,11,0.4286303999833762,1,+1,887,-7.538310813437299,-1.1478371066000266,-1.8323524288468427,2722623.0,-24.464883910943527,0.7026005966085602,0.11414159947920277,2726157.0,2.3740428355501706,0.6103781698856077,0.35432487203895846,2838910.0,2727.9417690279834,2724.4077690279832,2840.694769027983
186,21,22,F,1,4,178.0,26,4,high,8 + 7 - 4 + 5 + 9,25,24,26,25,2737.444995899976,2739.4708967999904,2740.986176299979,2746.0045424999557,2746.5223745999974,2746.52237989998,2748.0390378999878,2749.0562688999926,e,25,0.517832100042142,1,+10,897,-21.055231254948193,-0.32300855600257616,0.07603198124098398,2735662.0,-18.08013548025282,0.2607078414053392,-0.062220219757474826,2739196.0,,,,,2740.980769027983,2737.446769027983,
187,21,22,F,1,4,179.0,27,4,high,7 + 6 + 8 - 4 + 5,22,21,23,22,2750.57296749996,2752.59778359998,2754.113066299993,2759.1314787999727,2759.7062432999955,2759.706248499977,2761.222594599996,2762.2397111000028,e,22,0.5747645000228658,1,+10,907,38.988922793198384,-0.4941417155190937,0.005382130813888164,2748788.0,-5.007064297845069,0.9149090800414701,0.2193867413733379,2752323.0,,,,,2754.107769027983,2750.572769027983,
188,21,22,F,1,4,180.0,28,3,high,7 - 6 + 8 + 1 + 7,17,15,17,16,2763.756778299983,2765.7825351000065,2767.2976320000016,2772.3160092000035,2772.826288099983,2772.8262931999634,2774.34266689996,2775.3599496000097,w,17,0.510278899979312,1,+10,917,-23.260040945934005,-0.14260525549048353,0.11452363370052066,2761974.0,-35.64861913111377,-0.27394006513065783,-0.23265942734442113,2765507.0,-27.56289903830821,0.9722604496113032,-0.054323601115251474,2851919.0,2767.2917690279833,2763.7587690279834,2853.703769027983
189,21,22,F,1,4,181.0,29,3,high,3 - 7 + 5 + 1 + 9,11,13,12,11,2776.8767331999843,2778.902643699956,2780.4179513999843,2785.4358607999748,2785.9702974999677,2785.970302700007,2787.4869503999944,2788.5039006999577,e,11,0.5344366999925114,1,+10,927,-7.220598544398644,0.19318018638593593,0.208531457330833,2775094.0,-2.480900580103654,-0.09805976193663035,-0.016263494696644454,2778627.0,21.34703350988376,-0.03704109191573046,0.09757919724383957,2944006.0,2780.411769027983,2776.8787690279833,2945.790769027983
190,21,22,F,1,4,182.0,30,3,high,5 + 6 - 4 - 1 + 7,13,13,14,15,2790.0206087999977,2792.047413399967,2793.5623679999844,2798.580806199985,2799.23425139999,2799.234256799973,2800.75038719998,2801.767608799972,q,13,0.6534452000050806,1,+10,937,-55.74879539356698,-0.008091497149091964,0.25518281441618074,2788238.0,32.29845890307874,-0.4291016993591521,0.053772079013160834,2791772.0,,,,,2793.556769027983,2790.022769027983,
191,21,22,F,1,4,183.0,31,1,low,4 + 9 + 1 - 1 - 1,12,13,11,12,2803.2842711999547,2805.3120583999557,2806.827297699987,2811.845942299988,2812.4903850999544,2812.490390499996,2814.0068403999903,2815.023603299982,e,12,0.6444427999667823,1,+1,938,11.150519737171608,0.43808580164355426,0.12512723636401413,2801503.0,32.71420381134089,-0.4288940877321945,-0.1599136159141894,2805037.0,-4.001396370994925,-0.27162264363887534,0.019708865391220076,2864910.0,2806.821769027983,2803.2877690279834,2866.694769027983
192,21,22,F,1,4,184.0,32,4,high,8 + 4 + 7 - 5 - 6,8,9,6,8,2816.5400541999843,2818.5664229000104,2820.0816526999697,2825.1016135999816,2826.13022479997,2826.1302300000098,2827.64657869999,2828.663533199986,w,6,1.028611199988518,0,+0,938,32.69527041040402,-0.5516665766468751,0.1846347002051254,2814757.0,20.482422881860153,-0.5706260678386439,-0.1463761473440104,2818292.0,,,,,2820.076769027983,2816.5417690279833,
193,21,22,F,1,4,185.0,33,3,high,4 + 1 + 8 + 9 - 5,17,17,19,18,2830.180111099966,2832.204229699972,2833.7197262999834,2838.7375202999683,2839.1861583999707,2839.186164099956,2840.7022074999986,2841.7194954999723,q,17,0.4486381000024266,1,+10,948,-37.0630236087615,-0.2707443201655,-0.44173144861286673,2828395.0,29.773963902979027,1.083227621954621,0.09944782001506303,2831928.0,,,,,2833.712769027983,2830.179769027983,
194,21,22,F,1,4,186.0,34,3,high,3 + 8 - 7 + 1 + 9,14,12,14,13,2843.236704699986,2845.262718699989,2846.777861199982,2851.7960355000105,2852.19421409996,2852.1942192999995,2853.7107437999803,2854.7279954999685,w,14,0.3981785999494605,1,+10,958,-25.81307790980516,-0.8251179263064659,-0.007005707476830381,2841453.0,1.9064173391984287,0.19515883919145338,0.13711595881695526,2844987.0,,,,,2846.7717690279833,2843.237769027983,
195,21,22,F,1,4,187.0,35,1,low,5 + 9 - 1 + 1 + 1,15,13,15,17,2856.244841000007,2858.2721224999987,2859.7873808000004,2864.8051871999637,2865.1862031999626,2865.1862092000083,2866.7026940999785,2867.719601199962,w,15,0.381015999999363,1,+1,959,14.271297754789252,0.8098232652694106,-0.1513235452653361,2854463.0,-18.389887079059893,0.3369299061221085,-0.1267465111948769,2857996.0,-16.62602864555967,0.28124281220630465,-0.19007241949182196,2877926.0,2859.7807690279833,2856.2477690279834,2879.710769027983
196,21,22,F,1,4,188.0,36,1,high,7 + 1 + 4 + 1 - 1,12,13,12,11,2869.2371812000056,2871.263457399968,2872.779051599966,2877.798975099984,2878.202186999959,2878.202192800003,2879.7184579999885,2880.7357428999967,w,12,0.4032118999748491,1,+10,969,3.533568952106897,-0.6125506150168958,-0.11174477959727103,2867454.0,-9.244671749948864,0.5462897681224979,-0.12207423445820131,2870989.0,22.938789236281835,0.02756980771465045,0.30240094917559146,2890998.0,2872.7737690279832,2869.2387690279834,2892.7827690279832
197,21,22,F,1,4,189.0,37,1,low,3 + 1 + 8 - 1 + 1,12,13,12,10,2882.2530930999783,2884.279966700007,2885.795179799956,2890.8134654999594,2891.2741333000013,2891.274138799985,2892.790511799976,2893.8073307999875,w,12,0.4606678000418469,1,+1,970,-24.685235471735723,0.596473237377487,-0.018547635218541636,2880470.0,4.437175021471223,-0.03955049453914938,0.051607068208050055,2884004.0,,,,,2885.788769027983,2882.254769027983,
198,21,22,F,1,5,190.0,0,2,low,3 + 8 + 1 - 5 + 1,8,6,8,9,2922.134378499992,2924.161112800008,2925.676376599993,2930.695596000005,2931.130168600008,2931.1301741999923,2932.64669199998,2933.6636879,w,8,0.4345726000028662,1,+1,971,7.609847307617087,-2.4706803191528666,-7.313988784934988,2920351.0,5.582799821219391,-0.7602936587317579,-0.050284495152080666,2923886.0,,,,,2925.670769027983,2922.1357690279833,
199,21,22,F,1,5,191.0,1,3,low,8 + 4 + 1 - 7 + 9,15,15,16,13,2935.1805455999565,2937.2064321999787,2938.7213614999782,2943.7398312999867,2944.282076600008,2944.28208189999,2945.798456699995,2946.81513199996,q,15,0.5422453000210226,1,+1,972,-4.172334876024767,1.5044646628647271,-0.0982029802421307,2933397.0,-22.674807717111086,0.3012731299453897,-0.23397611306586596,2936930.0,,,,,2938.714769027983,2935.181769027983,
