,id,age,sex,cued,block,trial,trialinblock,efflev,rewlev,calc,corAns,option1,option2,option3,tstart,ITI1Time,probTime,respTime,selectTime,ITI2Time,fbTime,ITI3Time,key_press,chosenAns,RT,acc,feedback,total_points,cuescr,cuecor,cuezyg,cuetime,probscr,probcor,probzyg,probtime,fbscr,fbcor,fbzyg,fbtime,probtime_c,cuetime_c,fbtime_c
0,22,20,M,0,Practice,,0,1,0,4 + 1 + 9 + 1 + 1,16,16,15,14,37.21229799999856,,37.21230020000076,42.32037980000314,43.96852070000023,43.968526600001496,45.485402799997246,46.507119800007786,q,16,1.648140899997088,1,Correct,0,,,,,17.583836506496215,0.598718003763012,-2.7657619054462206,35503.0,-21.954412665806885,-0.43312586734289393,0.3390298516129171,43690.0,37.30949335000123,,45.49649335000123
1,22,20,M,0,Practice,,1,1,0,3 + 1 + 1 + 8 - 1,12,10,11,12,48.023838099994464,,48.02384160000656,53.05319039999449,54.40043439999863,54.40044139999373,55.91720779999741,56.93537639999704,e,12,1.3472440000041388,1,Correct,0,,,,,12.719285421842661,0.36131493275473403,0.9815969667674391,46236.0,16.70291023035535,-0.44186567949449795,1.0402025189566197,54118.0,48.04249335000123,,55.924493350001235
2,22,20,M,0,Practice,,2,2,0,8 + 1 + 6 + 1 - 4,12,12,11,10,58.45327539999562,,58.45328339999833,63.47332249999454,65.08033739999519,65.08034349999798,66.59724089999509,67.61537879999378,q,12,1.6070149000006495,1,Correct,0,,,,,13.404481736134352,0.36922448975264466,1.409872204562383,56656.0,-6.075279033135278,0.37276595032518856,3.5382531738452574,64798.0,58.46249335000123,,66.60449335000123
3,22,20,M,0,Practice,,3,2,0,9 + 4 - 6 + 1 - 1,7,6,7,5,69.1324539000052,,69.13245720000123,74.15144600000349,77.29649750000681,77.29650369999581,78.81323210000119,79.83051060000435,w,7,3.1450515000033192,1,Correct,0,,,,,6.885996491910454,-0.3789750664346876,0.4210198064485775,67334.0,-4.639450152543585,-0.07449416498314498,1.4139922188611682,77013.0,69.14049335000124,,78.81949335000124
4,22,20,M,0,Practice,,4,3,0,9 + 3 - 5 + 6 + 7,20,20,22,21,81.34760259999894,,81.34760649999953,86.36663910000061,87.39248999999836,87.39249589999963,88.90934260000358,89.92681970000558,q,20,1.0258508999977494,1,Correct,0,,,,,4.7368303004682595,-0.9014524775576538,-0.5563428388680114,79549.0,12.066355765767003,-0.28375600737993967,2.3282172924972246,87109.0,81.35549335000124,,88.91549335000123
5,22,20,M,0,Practice,,5,3,0,2 + 1 + 9 - 7 + 6,11,10,9,11,91.4436088000075,,91.44361210000352,96.46277830000328,97.77635369999916,97.77635909999664,99.29278489999706,100.31116219999969,e,11,1.313575399995898,1,Correct,0,,,,,-21.055571752422026,0.14161371274909307,-1.0171703857040324,89646.0,-9.214163833565877,0.02462926187075265,1.1716025127437293,97494.0,91.45249335000123,,99.30049335000123
6,22,20,M,0,Practice,,6,4,0,4 + 8 + 5 - 3 + 7,21,21,23,22,101.82828329999757,,101.8282870999974,106.84876380000787,107.6086021999945,107.60860839999803,109.12566950000472,110.14388810000672,q,21,0.7598383999866201,1,Correct,0,,,,,19.07947226549781,-0.1211457217878289,-1.32465734797508,100031.0,-28.0056655879759,0.4121855621964521,0.22131327341725804,107326.0,101.83749335000124,,109.13249335000123
7,22,20,M,0,Practice,,7,4,0,5 + 8 - 4 + 6 + 9,24,22,24,23,111.66214450000552,,111.66214800000309,116.68155090000072,117.7763976999995,117.77640390000306,119.29335550000542,120.3115398999944,w,24,1.094846799998777,1,Correct,0,,,,,11.641983467929013,0.2692840417328535,0.04357031275031087,109864.0,-4.991862885790046,-0.2880108704649391,0.13972039181847995,117494.0,111.67049335000124,,119.30049335000123
8,22,20,M,1,0,0.0,0,4,low,6 + 9 - 7 + 8 - 5,11,11,13,12,292.12631110000075,294.1751199999999,295.6905670999986,300.7615175999963,301.5422915999952,301.54229729999497,303.05900969999493,304.0757237000071,q,11,0.780773999998928,1,+1,1,18.315436907036744,2.2021803987271493,2.059990232620436,290357.0,9.755567438716565,-0.19980336473780191,-0.9884488584706732,293943.0,3.901296071585964,0.6425536183535456,1.0942480100236702,301257.0,295.7494933500012,292.16349335000126,303.06349335000124
9,22,20,M,1,0,1.0,1,1,low,9 + 7 + 1 + 1 + 1,19,20,19,18,305.5927240000019,307.617345000006,309.1324753999943,314.15128740000364,315.3662945999968,315.3662997000065,316.8829259000049,317.90011180000147,w,19,1.2150071999931242,1,+1,2,10.26240635754716,0.20878637427686897,-0.6493057344924429,303799.0,-14.854471998264746,0.4282084924042291,-1.5359122840056072,307332.0,-37.033290686679635,-0.728293096697179,1.5796498596378337,315081.0,309.1384933500012,305.6054933500012,316.88749335000125
10,22,20,M,1,0,2.0,2,1,low,2 + 9 + 1 + 1 + 1,14,12,13,14,319.4166660000046,321.4399890000059,322.95522530000017,327.9733303999965,329.3423266000027,329.34233179999865,330.85912239999743,331.87604550000106,e,14,1.3689962000062224,1,+1,3,-14.503007633460209,1.0756722408171342,-1.2551166800711258,317621.0,-18.68814139830243,-0.7698549211248302,-0.14227763779317026,321155.0,-48.47057803682261,0.9854180582039325,2.321919133805959,329057.0,322.9614933500012,319.4274933500012,330.86349335000125
11,22,20,M,1,0,3.0,3,4,low,4 + 7 - 8 + 9 - 3,9,8,11,9,333.39287820000027,335.41646170000604,336.931771100004,341.9510764000006,342.8142469000013,342.8142518999957,344.33092880000186,345.34837490000064,e,9,0.8631705000007059,1,+1,4,11.554448642062347,0.6455306808291619,0.32981351853061014,331598.0,2.016953461970016,0.1574539977610936,-0.1415575406044587,335132.0,24.23963780167324,-0.3039651700679098,2.3911738190000733,342529.0,336.93849335000124,333.40449335000125,344.33549335000123
12,22,20,M,1,0,4.0,4,3,high,4 + 8 - 3 + 5 - 1,13,13,12,14,346.864828100006,348.9126879999967,350.4280231000012,355.4465995000064,356.5902129000024,356.59021740000753,358.1070622999978,359.1245407999959,q,13,1.1436133999959566,1,+10,14,1.6206276821096317,-0.8808602598711728,-0.39255394414163103,345094.0,-5.7966406557318475,-1.1256612904939791,-0.38024744902452046,348627.0,33.3618228850214,-0.49886574786040594,3.714402996027653,356305.0,350.43349335000124,346.9004933500012,358.11149335000124
13,22,20,M,1,0,5.0,5,1,low,9 + 8 + 1 + 1 - 1,18,18,17,20,360.6421646999952,362.667555100008,364.1828274,369.2009546000045,370.35027300000365,370.35027799999807,371.8671666000009,372.8842246999993,q,18,1.1493183999991743,1,+1,15,22.15016779514042,0.7608819024600368,0.30663145969478567,358849.0,-0.9053030601445542,-0.29926874445860285,-0.5174215326638683,362382.0,-2.467058381716104,-0.27008355650426097,0.14140210790477736,370065.0,364.18849335000124,360.6554933500012,371.87149335000123
14,22,20,M,1,0,6.0,6,1,low,7 + 1 + 5 + 1 - 1,13,12,13,14,374.4004719000077,376.4251942999981,377.9404788999964,382.9586887000041,383.8142327999958,383.8142379000056,385.3310290999944,386.3474585000076,w,13,0.8555440999916755,1,+1,16,-2.891610063855815,-0.24281190264870656,-0.047203948364827664,372606.0,18.153885677388683,0.04100429857666832,0.614959605513282,376140.0,-6.958075856421237,-0.016035028178721156,1.0089222583173303,383529.0,377.9464933500012,374.4124933500012,385.33549335000123
15,22,20,M,1,0,7.0,7,4,high,5 + 7 - 4 - 6 + 9,11,12,11,13,387.8647232999938,389.8990198999964,391.4144469000021,396.4328551000072,397.47025319999375,397.4702583000035,398.98701840000285,400.00446690000535,w,11,1.0373980999866037,1,+10,26,-1.5209118649703601,0.607122528313667,-0.9418721604324825,386080.0,-31.584818970704667,-0.13598625226259653,0.7587233635583575,389614.0,-4.9072932236260725,-0.648403882571821,2.3424787712843855,397185.0,391.4204933500012,387.8864933500012,398.99149335000124
16,22,20,M,1,0,8.0,8,4,high,4 + 7 + 8 - 3 + 9,25,24,25,26,401.5210174999957,403.5458314999996,405.0611296999996,410.0802319000068,413.6463694999984,413.6463750999974,415.1634561999963,416.1805141999939,w,25,3.5661375999916345,1,+10,36,2.0157741776294547,1.0620059142307898,0.39995702614681505,399727.0,14.539194852777616,0.736724524373523,-1.329067652593955,403261.0,-4.99548650230491,0.0976643305644247,0.9440764079187991,413361.0,405.06749335000126,401.5334933500012,415.1674933500012
17,22,20,M,1,0,9.0,9,4,low,5 + 6 - 4 + 7 + 9,23,24,23,25,417.6974238999974,419.7250062999956,421.24128930000006,426.2614077000035,429.9422895000025,429.9422943999962,431.4592021999997,432.4765979999938,w,23,3.6808817999990415,1,+1,37,-0.6084531278407868,0.4880902340832973,-0.25337834187224706,415906.0,3.6786634519959165,-0.9753050444567268,0.9639610248982935,419442.0,-0.6297746612389927,-0.9429912596936196,-0.02287210494860803,429657.0,421.24849335000124,417.71249335000124,431.4634933500012
18,22,20,M,1,0,10.0,10,3,low,8 + 6 - 7 + 1 - 4,4,4,3,5,433.9933531999996,436.0364922000008,437.5518777999969,442.5704003999999,443.7264575000008,443.7264628999983,445.2431560999976,446.2599615000072,q,4,1.1560571000009077,1,+1,38,-20.261576895051544,-0.2499746751929912,0.1172407862130016,432217.0,5.492489369046414,-1.3045786334313583,-0.5733595678128314,435751.0,7.96759825257811,0.12219674293769689,1.2217811310105526,443441.0,437.5574933500012,434.0234933500012,445.2474933500012
19,22,20,M,1,0,11.0,11,4,high,5 + 9 - 4 + 7 + 6,23,25,24,23,447.77672160000657,449.8017378999939,451.31701080000494,456.3356436000031,457.4463395000057,457.4463442999986,458.9630087999976,459.9802093000035,e,23,1.1106959000026109,1,+10,48,16.50649948385899,0.29279261428681647,-1.3223319661096427,445981.0,3.6529429542834713,0.44721032199710375,1.0902548812500688,449516.0,-8.626594109965348,1.4611891195500553,-0.30912482628797555,457161.0,451.32249335000125,447.7874933500012,458.96749335000123
20,22,20,M,1,0,12.0,12,4,high,5 + 7 - 4 + 6 + 9,23,23,24,25,461.4973827000067,463.52231810000376,465.0375908999995,470.0557298000058,472.1743848000042,472.1743895999971,473.6910231000074,474.7082590000064,q,23,2.118654999998398,1,+10,58,-13.602993748820458,1.640430161471886,0.5101965440175507,459703.0,23.15452192998171,0.592029629043556,0.25752486126802676,463237.0,-15.965141479514406,0.411483660360326,0.533116097881335,471889.0,465.04349335000126,461.5094933500012,473.69549335000124
21,22,20,M,1,0,13.0,13,1,low,3 + 1 + 8 + 1 + 1,14,13,16,14,476.225322600003,478.2521403999999,479.76749490000657,484.7857470000017,485.8144445000071,485.8144507999969,487.33099760000187,488.34845259999565,e,14,1.0286975000053644,1,+1,59,7.327541560818753,1.488728871513982,0.9904359033748538,474433.0,-2.32198203755744,0.2909923869798927,-0.7543440890653796,477966.0,11.124980633029567,-0.00272788382169864,-0.020196731621175523,485528.0,479.77249335000124,476.2394933500012,487.33449335000125
22,22,20,M,1,0,14.0,14,1,high,4 + 7 + 1 - 1 - 1,10,11,9,10,489.86536250000063,491.9004270000005,493.4154286999983,498.43531580000126,500.8303404000035,500.8303453999979,502.3469668000034,503.3641304000048,q,11,2.395024600002216,0,+0,59,28.621866368725037,-0.4254285688744712,0.8880397316444224,488081.0,-16.293522963975338,0.3083794195040861,0.36185766151506904,491616.0,-7.482987666346979,0.8338712458983881,-0.7130438636117735,554344.0,493.4224933500012,489.88749335000125,556.1504933500013
23,22,20,M,1,0,15.0,15,2,low,3 + 9 - 1 - 5 + 1,7,5,7,6,504.8810486000002,506.94165589999466,508.456726000004,513.4749394999963,514.3104955000017,514.3105005999969,515.8269321999978,516.8436287000077,w,7,0.8355560000054538,1,+1,60,2.6313737802929396,0.005140564449289009,0.08300926791035979,503122.0,5.725469019561196,-0.1780730589026014,-0.15655309195244183,506655.0,-24.303724949608032,-0.8325063898647356,0.03323583184141232,514024.0,508.4614933500012,504.92849335000125,515.8304933500012
24,22,20,M,1,0,16.0,16,3,low,3 + 8 + 1 + 5 - 9,8,7,9,8,518.360460099997,520.3849287000048,521.9000617999991,526.919167,527.6384151999955,527.6384206000075,529.154881399998,530.1723193000071,e,8,0.7192481999954907,1,+1,61,-10.816880409130068,-0.21076158706973125,3.2434300266012905,516565.0,18.35114372859586,0.714649145251439,0.014966875685520797,520099.0,10.254380701200486,0.20306887603815849,0.06021152816316144,527352.0,521.9054933500013,518.3714933500013,529.1584933500012
25,22,20,M,1,0,17.0,17,4,high,8 + 4 + 7 - 5 - 6,8,6,8,9,531.6888047999964,533.712397299998,535.2272696,540.2460757999943,541.0784987000079,541.0785039000039,542.5948728999938,543.6116875000007,w,8,0.8324229000136256,1,+10,71,5.815345822069512,0.4014572881729572,0.5349099591604309,529893.0,5.533242217354289,-1.0484210960215883,-1.5009351763865766,533426.0,-14.59594913213336,-0.36964697489799914,0.7708783783952413,540792.0,535.2324933500013,531.6994933500013,542.5984933500013
26,22,20,M,1,0,18.0,18,1,low,5 + 6 + 1 + 1 + 1,14,15,16,14,545.1285132000048,547.1554994000035,548.6707690000039,553.6885658999963,554.6304311999993,554.6304369999998,556.146934999997,557.1635225000064,e,14,0.9418653000029736,1,+1,72,-2.2325195269636664,0.359612027466901,-0.6857241041570843,543336.0,44.76733176507125,-0.4671969030736731,-0.2766306270062189,546869.0,7.477088356735996,0.5805619919677207,1.7535958389085717,636424.0,548.6754933500013,545.1424933500012,638.2304933500012
27,22,20,M,1,0,19.0,19,3,high,3 + 1 + 8 - 5 + 6,13,14,13,15,558.6800838000054,560.7063853,562.2216501999937,567.2398877999949,568.0704884000006,568.0704935999966,569.587225700001,570.6049082999962,w,13,0.8306006000057096,1,+10,82,3.3501068403506853,-0.4276913537772611,-0.010592568035781458,556887.0,5.911502837115258,0.4042066980166972,-0.008193661816863429,560420.0,40.974813951615715,-1.1672223190394089,0.8729427829377288,567785.0,562.2264933500012,558.6934933500012,569.5914933500012
28,22,20,M,1,0,20.0,20,2,low,2 + 9 + 1 + 1 - 5,8,7,6,8,572.1216347000009,574.1484306000057,575.6637401000044,580.6835404000012,581.8144208000012,581.8144257999957,583.330942200002,584.3475670000043,e,8,1.1308804000000237,1,+1,83,36.47087022841974,-0.6808574862725312,-0.02695374305822895,570328.0,-16.96936456788572,-0.9228973274981263,-0.10514285474529572,573864.0,-10.973374176252273,-0.6981156572748244,0.15053914302558336,581528.0,575.6704933500013,572.1344933500012,583.3344933500013
29,22,20,M,1,0,21.0,21,3,high,9 - 5 - 1 - 6 + 8,5,7,4,5,585.864435800002,587.8900640000065,589.4052840000077,594.4243056999985,595.9105543000042,595.9105595000001,597.4275297999993,598.4447963999992,q,7,1.486248600005638,0,+0,83,-0.6186684281278048,0.4600893895565026,0.2793655577157341,584069.0,-24.578993745958364,0.2114436961201962,-0.021023002243755196,587604.0,34.992786283703815,1.0474319124097402,0.4905354234713635,609208.0,589.4104933500013,585.8754933500012,611.0144933500012
30,22,20,M,1,0,22.0,22,3,high,6 + 1 + 8 + 7 - 9,13,13,14,15,599.9615588000015,601.9835856999998,603.4986621999997,608.5170341000048,609.4944624000054,609.4944677000021,611.0111819000012,612.0284847000003,q,13,0.9774283000006108,1,+10,93,-5.341483677714253,0.4762360519820099,-0.037007163047005465,598164.0,19.10689509625592,0.5446010748539365,-0.09615491178770852,601697.0,3.065950403979938,-0.17001418748399555,0.2215828359612262,773751.0,603.5034933500012,599.9704933500012,775.5574933500012
31,22,20,M,1,0,23.0,23,4,low,7 + 6 - 9 + 8 - 3,9,9,7,8,613.5453386000008,615.5685845999978,617.0834709000046,622.1023334000056,623.2785662999959,623.2785715000064,624.7953898999986,625.8123825999937,q,9,1.176232899990282,1,+1,94,-18.657505070478024,1.346142357236828,0.026920572623165384,611748.0,-10.325340708654423,0.4474393101563612,-0.25265134905961695,615282.0,-3.057818664332288,1.0883641584017294,0.04324414288558165,622992.0,617.0884933500013,613.5544933500013,624.7984933500012
32,22,20,M,1,0,24.0,24,1,low,4 + 1 + 1 + 7 - 1,12,13,14,12,627.3290624000074,629.3568842999957,630.8718018000072,635.8904842000047,636.7105467000074,636.7105518000026,638.2272033000045,639.2438122000021,e,12,0.8200625000026776,1,+1,95,-40.535503340188654,0.3302036209867767,0.019403118788042795,625537.0,16.187408862328294,0.3488892562832353,0.01264391156649669,629070.0,2.7846893935798764,1.5058136942573128,0.17340116616592782,650496.0,630.8764933500013,627.3434933500013,652.3024933500012
33,22,20,M,1,0,25.0,25,1,high,6 + 9 + 1 + 1 - 1,16,15,16,14,640.7603054000065,642.7866002999945,644.3018832999951,649.3201616000006,650.7827271999995,650.7827324999962,652.2994139999937,653.317163700005,w,16,1.4625655999989249,1,+10,105,0.3697484809528273,-0.2028758921745757,-0.6346119616352137,638966.0,4.751519273631958,0.7064476621218523,-0.0548417855094292,642500.0,-32.15144314311145,1.2454277921212906,-0.03283355233485241,691816.0,644.3064933500012,640.7724933500012,693.6224933500013
34,22,20,M,1,0,26.0,26,4,low,9 + 4 - 6 + 8 + 7,22,24,22,21,654.8341729999956,656.8598934000038,658.3751638999966,663.3941186000011,664.2785884000041,664.2785933999985,665.7949552000064,666.8122211000009,w,22,0.8844698000029894,1,+1,106,14.63302264781279,-2.246217377150133,0.32947453425279316,653039.0,-7.32212303523078,-0.16682139921084538,0.004194575819241209,656573.0,-7.444969559155243,-0.07844040256579454,0.48292462556602644,663991.0,658.3794933500012,654.8454933500012,665.7974933500012
35,22,20,M,1,0,27.0,27,2,low,6 + 1 + 1 + 7 - 9,6,8,4,6,668.3289172999939,670.3543051000015,671.8695898000005,676.8882157000044,678.1904962999979,678.1905014000076,679.7072143999976,680.7240834999975,e,6,1.3022805999935372,1,+1,107,-24.017835451412793,0.11362268637002604,0.09447271949205183,666534.0,12.116037289411887,-0.6497779507020001,0.4032280056084574,670068.0,6.940307208897572,0.783278197453118,-0.15023389125151088,677903.0,671.8744933500012,668.3404933500012,679.7094933500013
36,22,20,M,1,0,28.0,28,1,high,3 + 1 + 9 + 1 - 1,13,12,14,13,682.2413972000068,684.2675999000057,685.7825812999945,690.800880499999,692.1025069000025,692.1025119999977,693.6193351999973,694.6365532000054,e,13,1.3016264000034423,1,+10,117,-2.7342784847788817,0.03044842566520778,0.4184569691652822,680447.0,1.0477734240033687,0.08196740441692807,0.451867906930254,683980.0,-23.779123906750364,0.49748099500888454,-0.04527648561315423,705576.0,685.7864933500013,682.2534933500012,707.3824933500013
37,22,20,M,1,0,29.0,29,1,low,6 + 1 + 1 + 7 - 1,14,12,14,13,696.1533556000068,698.1792313000042,699.6952309000044,704.7137249999942,705.8626522999984,705.8626573000074,707.3798231999972,708.3965698999964,w,14,1.1489273000042886,1,+1,118,8.62569356747511,-0.5172632857427697,0.8248274907117412,694359.0,21.08564702791316,0.12216153578872913,-1.1694732318287118,697893.0,-11.717986234997277,-0.020125509340655157,0.7346245600375618,787247.0,699.6994933500013,696.1654933500013,789.0534933500012
38,22,20,M,1,0,30.0,30,4,low,2 + 9 - 6 + 8 - 4,9,9,7,11,709.9132826999994,711.9388310000068,713.4542168000044,718.4731675000075,719.4705173999973,719.4705224000063,720.9878699999972,722.0048482999991,q,9,0.9973498999897856,1,+1,119,-7.245527228398318,1.6378751758923853,0.08886986899259353,708118.0,9.435858740850499,-0.45862983165098825,-0.3742611556435105,711652.0,-15.263123719465973,-0.16531319404934575,0.08615986904941098,719184.0,713.4584933500013,709.9244933500013,720.9904933500012
39,22,20,M,1,0,31.0,31,4,low,4 + 7 - 8 + 9 - 4,8,8,9,7,723.5216172000073,725.5466594000027,727.0619149999984,732.0805837999942,733.0626039000053,733.0626090000005,734.5790298000065,735.595851399994,q,8,0.982020100011141,1,+1,120,-12.7792494749764,-1.013428429163672,1.4857253690402357,721726.0,-3.566852047056827,-0.6613329044353886,-0.9064260946576468,725260.0,-20.68011939519608,0.3762998155054733,0.7192878556263229,732775.0,727.0664933500012,723.5324933500012,734.5814933500012
40,22,20,M,1,0,32.0,32,2,high,4 + 1 + 9 + 1 - 6,9,9,8,7,737.1124907000049,739.1474269000028,740.6633352000063,745.6813585000054,747.0385829000006,747.0385879999958,748.5553814000014,749.5726339999965,q,9,1.3572243999951752,1,+10,130,17.617972168626707,-0.27001143716400033,-0.4263918245520564,735326.0,31.885910905677672,-0.4314838757770856,-0.09420719944851585,738861.0,-21.302963916888963,0.09730250248081251,0.3666399179870192,746752.0,740.6674933500012,737.1324933500013,748.5584933500012
41,22,20,M,1,0,33.0,33,2,low,5 - 1 + 1 + 8 + 9,22,23,21,22,751.0893833000009,753.1180332999938,754.6333527999959,759.651664200006,760.630647900005,760.6306531000009,762.1472591000056,763.1638003999979,e,22,0.9789836999989348,1,+1,131,21.548073721374948,0.1571446474993623,0.10122109210122554,749297.0,31.690854675471954,0.016494975793258426,0.09488298304216558,752831.0,33.142724090981844,-0.08261479539341465,1.1697876461447894,760343.0,754.6374933500013,751.1034933500013,762.1494933500012
42,22,20,M,1,0,34.0,34,3,high,8 - 1 + 6 - 7 + 5,11,13,11,12,764.681093799998,766.7066384000063,768.2219371999963,773.2420446000033,774.0386204999959,774.0386254000041,775.5551176000008,776.5724025999953,w,11,0.7965758999926038,1,+10,141,-15.407927600256496,-0.0754713726737446,-0.8033745143835782,762885.0,-8.00868543415671,-0.33738364005109744,1.114875285915553,766421.0,-6.533101460917209,-0.9370028365121303,1.3948722752165783,800583.0,768.2274933500013,764.6914933500012,802.3894933500012
43,22,20,M,1,0,35.0,35,1,low,9 + 1 + 1 + 7 - 1,17,19,16,17,778.0891033999942,780.1145014000067,781.6298215999996,786.6497193999967,787.5347499000054,787.5347552000021,789.0514511999936,790.0684324000031,e,17,0.8850305000087246,1,+1,142,5.122742645162347,-0.3430354614403486,-0.07221934714006562,776293.0,34.082696779603616,-0.3094645794926647,-0.47778723259268485,779829.0,-39.16177668081838,-0.2804276326153432,-0.6489923502944013,893575.0,781.6354933500012,778.0994933500012,895.3814933500013
44,22,20,M,1,0,36.0,36,3,low,9 + 3 - 4 + 6 + 7,21,23,22,21,791.5853248000058,793.6125407000072,795.1279792999994,800.148008300006,800.870714699995,800.870719700004,802.3873639999947,803.4038375999953,e,21,0.7227063999889651,1,+1,143,-9.467294637826242,-0.028963503401068458,-0.16458941473538657,789791.0,43.95919565745799,0.03075768656301392,-0.2571149773110064,793327.0,-4.642931015899173,0.4184200239689915,1.0195174785513612,814232.0,795.1334933500012,791.5974933500013,816.0384933500012
45,22,20,M,1,0,37.0,37,3,high,9 - 1 + 5 - 6 + 8,15,15,17,14,804.9213447999937,806.9459553000052,808.461241500001,813.480006800004,814.5187843000022,814.5187893999973,816.0353789999936,817.0528577000077,q,15,1.0387774999981048,1,+10,153,13.58088564261066,0.49359155917827113,-0.031070176926296433,803125.0,-9.867132966687777,0.222149965967942,-0.3954691100719989,806658.0,-35.16121044399359,0.3331212688846219,0.6484081076363046,880200.0,808.4644933500012,804.9314933500012,882.0064933500013
46,22,20,M,1,1,38.0,0,2,low,4 + 8 + 1 + 1 - 5,9,9,8,11,857.8270133000042,859.8529203000071,861.3681875000038,866.3874276999995,867.0307038000028,867.0307097000041,868.5475093999994,869.564561399995,q,9,0.643276100003277,1,+1,154,25.915893882166884,-1.952875464841965,-4.110611388370602,856032.0,-28.377046123972885,-3.2307902492016067,-2.116938926636701,859566.0,-39.544771754894214,-0.3507620898855386,-0.06221051785975096,866743.0,861.3724933500013,857.8384933500013,868.5494933500013
47,22,20,M,1,1,39.0,1,3,high,7 - 6 + 8 + 1 + 7,17,16,17,15,871.0817529000051,873.1092886999977,874.6245077000058,879.6434757999959,880.486793899996,880.4867997999972,882.0038537000073,883.0223013000068,w,17,0.8433181000000332,1,+10,164,4.1559775269780985,0.09685941134378728,0.49111697687931244,869288.0,10.757893161720018,-1.9706435999332026,-1.3576109842267883,872822.0,15.392723320439,-0.18406624119609694,0.6802090339963949,976806.0,874.6284933500012,871.0944933500012,978.6124933500013
48,22,20,M,1,1,40.0,2,1,high,8 + 1 + 5 + 1 + 1,16,17,16,15,884.5396610000025,886.5615854000062,888.0767682000005,893.0959192000009,893.8628052999993,893.8628102999937,895.3792060999986,896.3965222999977,w,16,0.7668860999983735,1,+10,174,-50.25486333182767,0.11851151503299917,-0.5527211014451758,882739.0,19.920232460293015,-0.10917025097013955,-2.3489765859101333,886274.0,-6.969867543275495,1.0440099591386915,3.5284405375026218,907206.0,888.0804933500012,884.5454933500013,909.0124933500013
49,22,20,M,1,1,41.0,3,1,low,7 + 1 + 4 + 1 - 1,12,14,12,13,897.9134064999962,899.9356360999955,901.4510544000076,906.4693588999944,907.4947757000044,907.4947809000004,909.0113302999962,910.0290939999976,w,12,1.0254168000101345,1,+1,175,5.209534048925367,-0.18507229141045034,-0.9381417462212887,896114.0,6.243010375787655,0.04551647741345244,-0.14850053767539428,899648.0,29.499256821248544,0.09201575910125115,0.09601392020839339,1045278.0,901.4544933500013,897.9204933500013,1047.0844933500011
50,22,20,M,1,1,42.0,4,2,high,3 + 8 + 1 - 5 + 1,8,9,8,6,911.5458943999984,913.5729365000008,915.088201000006,920.1062614999972,921.7828076000004,921.7828127999963,923.2994449999968,924.317228,w,8,1.6765461000031792,1,+10,185,-15.693445098996017,0.5157794656978543,-0.6173638736362062,909751.0,2.8415240691812915,-0.28047226726684915,-0.8284973799739759,913285.0,3.791193804793,0.286293187500668,1.8236040997003373,921495.0,915.0914933500012,911.5574933500012,923.3014933500012
51,22,20,M,1,1,43.0,5,2,low,3 + 9 + 1 - 5 + 1,9,8,7,9,925.8339278000058,927.8616665000008,929.3769327000044,934.3949592999998,935.7347809000056,935.7347863000032,937.251896899994,938.2698229999952,e,9,1.339821600005962,1,+1,186,-6.096753237707615,0.24948290882841295,-0.24463463039524536,924040.0,-11.099055357194771,0.01661236035435021,0.055925072169161094,927573.0,-10.66147708523306,0.15186685286789015,0.7878838693874637,935447.0,929.3794933500012,925.8464933500012,937.2534933500012
52,22,20,M,1,1,44.0,6,4,high,6 + 5 - 7 + 8 - 9,3,4,3,5,939.786453099994,941.8111247000052,943.3263586999964,948.3466083999956,949.5667863999988,949.5667921999992,951.0834800000011,952.1007911000052,w,3,1.220178000003216,1,+10,196,-17.36886076719276,0.3666332527493923,-0.8252553963780551,937989.0,-9.414776596641385,0.36442666737479534,0.36772079511205824,941525.0,13.01348321428953,0.09072922747290946,0.7414901115206343,949279.0,943.3314933500012,939.7954933500013,951.0854933500012
53,22,20,M,1,1,45.0,7,4,low,9 + 7 - 5 + 8 + 6,25,24,25,27,953.6176006000024,955.6444145999994,957.1594023000072,962.1778723000024,963.102715999994,963.1027209000022,964.6199515000044,965.6368606000032,w,25,0.9248436999914702,1,+1,197,-46.33177699870092,-0.2646211345814944,0.04779101746610914,951822.0,10.39551865009617,-0.21931159126206268,-1.4935184968813644,955356.0,20.09012807194256,0.3831942185561754,0.06737282511873444,962815.0,957.1624933500012,953.6284933500012,964.6214933500013
54,22,20,M,1,1,46.0,8,3,low,5 + 1 + 7 - 8 + 6,11,11,9,13,967.153799199994,969.1797173999948,970.6949241999972,975.7134712999978,977.0948323000048,977.0948374,978.6114016000064,979.6287051999972,q,11,1.3813610000070184,1,+1,198,-3.796143145294092,0.14633939786892824,0.32919973098273236,965357.0,-11.763875511635092,-0.015380862964691655,0.14053982559084788,968891.0,0.07701930644840438,0.4937525148491151,-0.053065799505305655,1004262.0,970.6974933500012,967.1634933500012,1006.0684933500012
55,22,20,M,1,1,47.0,9,4,high,7 + 6 - 4 + 9 - 5,13,14,13,12,981.1461904000024,983.1709590999964,984.6863388000056,989.7045670999942,990.374727500006,990.3747329000034,991.8911153999944,992.9081383000012,w,13,0.6701604000118095,1,+10,208,-8.778117465942687,0.1304168680440183,-0.9307256960811028,979349.0,-16.536571767849715,0.3017085735866969,0.07355550957974266,982883.0,9.642862214511894,0.2227368570993411,0.5588602528926261,990086.0,984.6894933500013,981.1554933500013,991.8924933500012
56,22,20,M,1,1,48.0,10,3,low,6 - 1 + 7 - 8 + 9,13,12,13,11,994.4250408999942,996.4504617000056,997.9658684000024,1002.984232700008,1004.5508076999976,1004.5508130999953,1006.0673632999968,1007.0841717000004,w,13,1.5665749999898253,1,+1,209,1.179440908704322,0.526281366436506,0.4556948975308859,992629.0,0.6361247889772104,-0.26020052016926876,-0.008619943736537738,996162.0,9.024691618451183,0.3607955181755127,0.9740152673975331,1073030.0,997.9684933500013,994.4354933500013,1074.836493350001
57,22,20,M,1,1,49.0,11,2,low,6 + 8 + 1 + 1 - 7,9,11,9,8,1008.6011928999942,1010.6283872000058,1012.1433147000062,1017.1621385000036,1018.0069116999948,1018.0069165000024,1019.5234092000028,1020.5399814999982,w,9,0.844773199991323,1,+1,210,-4.801388933293481,-0.27507305921977565,1.3768913785211048,1006806.0,-4.383007841142707,0.06289670953251658,-0.12995283523530432,1010340.0,16.72883369580795,-0.04912435456679942,0.09321106067185125,1017718.0,1012.1464933500013,1008.6124933500013,1019.5244933500012
58,22,20,M,1,1,50.0,12,4,high,6 + 9 + 7 - 3 - 5,14,13,12,14,1022.056630299994,1024.0834657999949,1025.5986994999985,1030.6174061000056,1032.1028952000052,1032.1029001999996,1033.6195729000028,1034.637066299998,e,14,1.4854890999995405,1,+10,220,37.526753537989066,0.7617130888899504,0.5607845617411193,1020261.0,-8.779157044651356,-0.33546706715124675,0.15768275909156992,1023795.0,8.806115335570285,0.3024291691266776,0.004447993437704412,1031815.0,1025.6014933500012,1022.0674933500012,1033.6214933500012
59,22,20,M,1,1,51.0,13,1,low,2 + 9 + 1 + 1 + 1,14,14,12,13,1036.1539769999945,1038.181485699999,1039.696675900006,1044.7149399000043,1045.5669040000066,1045.5669089000005,1047.0834919000044,1048.0998133999965,q,14,0.8519641000020783,1,+1,221,-38.753062789861445,-0.430792939746655,0.33353169121564985,1034359.0,1.3391368940061463,0.2942575584166969,-0.35008063852036786,1037892.0,-47.05034422899957,0.36410141397871154,0.02632781191697986,1127126.0,1039.6984933500012,1036.165493350001,1128.932493350001
60,22,20,M,1,1,52.0,14,4,low,3 + 9 - 4 + 7 + 6,21,21,19,20,1049.6165665000008,1051.6415796999936,1053.1568856999947,1058.175144599998,1059.558833899995,1059.5588388000033,1061.0753710999998,1062.0921811000007,q,21,1.3836892999970587,1,+1,222,-3.144095110418043,-0.285475832236489,-0.13223011225380543,1047819.0,6.1120405935227815,0.08399344170787515,0.06777881459520518,1051353.0,-10.2553119211372,-0.7365816002796617,0.06664676876234821,1059270.0,1053.1594933500012,1049.625493350001,1061.076493350001
61,22,20,M,1,1,53.0,15,3,high,4 + 1 + 8 + 9 - 5,17,17,19,18,1063.6087740000075,1065.6360510999948,1067.1513758000074,1072.169285099997,1073.318851400007,1073.318856800004,1074.8355166999972,1075.853022700001,q,17,1.14956630000961,1,+10,232,31.482072131560678,-0.06513633299754584,0.24308983333835554,1061813.0,28.746627859632078,-0.5053041765592248,0.21354884081605663,1065347.0,21.292299346870827,-0.4464655877022832,1.4816891089544666,1086462.0,1067.153493350001,1063.6194933500012,1088.268493350001
62,22,20,M,1,1,54.0,16,3,high,6 - 1 + 7 - 8 + 9,13,12,11,13,1077.3703056999948,1079.3939681000047,1080.9091613000055,1085.9286829000048,1086.7508013000042,1086.7508062999989,1088.2675530999986,1089.284775699998,e,13,0.8221183999994537,1,+10,242,-6.97839695869861,-0.15049361779974468,0.10568535257777256,1075571.0,4.041758165127712,0.0760734516266548,-0.13802009809371896,1079105.0,19.619727676923237,-0.1437029353182271,0.06434201825315622,1099821.0,1080.9114933500011,1077.377493350001,1101.627493350001
63,22,20,M,1,1,55.0,17,3,low,4 + 7 - 3 + 5 - 1,12,13,12,11,1090.8015053999989,1092.825934099994,1094.3412305999957,1099.360442899997,1100.110878899999,1100.1108837000063,1101.6273930000025,1102.6444302000018,w,12,0.7504360000020824,1,+1,243,18.910364249641553,0.5609990298194578,0.1737960994990737,1089003.0,-25.467015393724566,-0.11074115893437275,-0.16715634490900566,1092538.0,-44.39651875733578,0.22088308718902816,0.7197310675504873,1450884.0,1094.3444933500011,1090.809493350001,1452.6904933500011
64,22,20,M,1,1,56.0,18,2,high,4 + 7 + 1 + 1 - 8,5,7,4,5,1104.1611455999955,1106.1882371999964,1107.7034243999951,1112.721940500007,1113.9748901999992,1113.974895599997,1115.491709599999,1116.5090984999988,e,5,1.252949699992314,1,+10,253,-17.112800176730953,0.33959710394169385,0.07215962516691876,1102366.0,-10.302679445723147,0.045319599338133454,-0.007081628197478151,1105899.0,13.193771169232154,0.14067536060620967,-0.176761395388078,1113686.0,1107.705493350001,1104.172493350001,1115.492493350001
65,22,20,M,1,1,57.0,19,1,high,6 + 1 + 8 + 1 + 1,17,15,17,16,1118.0258895000006,1120.0523570000078,1121.567256399998,1126.586557899995,1127.414931399995,1127.4149366000056,1128.9315674999962,1129.9486960000067,w,17,0.8283735000004526,1,+10,263,-1.6193703925266654,-0.633649870702012,0.01759865367839364,1116230.0,-15.817061311220236,-0.29694274959476363,-0.5531202039413867,1119764.0,-45.77707055753,-0.30759184235108616,-0.425424501785558,1141229.0,1121.570493350001,1118.0364933500011,1143.0354933500012
66,22,20,M,1,1,58.0,20,1,low,4 + 9 + 1 - 1 - 1,12,11,13,12,1131.4655704000031,1133.492648200001,1135.008032800004,1140.0260912999947,1141.5189214999991,1141.5189268999966,1143.035519600002,1144.0520914999945,e,12,1.4928302000043914,1,+1,264,-2.166770976689423,0.1283278275289801,0.030540212089831265,1129670.0,18.35603816924474,-0.01756611768743621,-0.03874807627140209,1133203.0,-2.4319174963009296,0.037662978710177875,-0.4829299217434335,1238325.0,1135.009493350001,1131.4764933500012,1240.1314933500012
67,22,20,M,1,1,59.0,21,2,low,9 + 6 + 1 + 7 + 1,24,23,25,24,1145.5688388999988,1147.5960911000002,1149.111533400006,1154.1306733999954,1156.2389842999985,1156.2389893000072,1157.7555290000018,1158.7725130000035,e,24,2.1083109000028344,1,+1,265,-13.956186046891727,-0.3588284136987072,0.15721311925773684,1143773.0,-1.7367527567649956,-0.11548735480452343,-0.060645577019813546,1147307.0,0.4146315781390282,-0.05301795913198948,0.3020103513057859,1155949.0,1149.1134933500011,1145.579493350001,1157.7554933500012
68,22,20,M,1,1,60.0,22,2,low,5 + 8 + 1 - 1 + 9,22,23,22,21,1160.2895944000047,1162.3152281999935,1163.8306625999976,1168.8487162999954,1169.7189927,1169.7189976999944,1171.2359288000007,1172.2529444999964,w,22,0.8702764000045136,1,+1,266,12.552746669876656,-0.19423583393324417,0.004556792804927712,1158491.0,0.00023263296767872532,0.2385498782372908,-0.7185228298689068,1162025.0,15.336977628578579,-0.1559766769048032,0.1380771278705768,1169430.0,1163.8314933500012,1160.297493350001,1171.2364933500012
69,22,20,M,1,1,61.0,23,2,low,5 + 9 - 8 + 1 + 1,8,9,8,7,1173.7691095000046,1175.7953779999953,1177.310572500006,1182.3286969000037,1183.1430417999943,1183.1430474999945,1184.659362899998,1185.6764268999978,w,8,0.8143448999908287,1,+1,267,8.97949067674501,0.10117366907495118,0.19036651685659134,1171972.0,29.18898975688934,-0.09279431885809153,-0.4119058740554373,1175505.0,15.155674676632817,0.07739235344392892,0.06739389479570912,1182853.0,1177.3114933500012,1173.778493350001,1184.6594933500012
70,22,20,M,1,1,62.0,24,2,low,8 + 1 + 9 + 1 - 5,14,15,14,13,1187.1932645000052,1189.219881500001,1190.735104899999,1195.7533066000033,1196.6950090000028,1196.6950142999997,1198.2116111000068,1199.2282975999988,w,14,0.9417023999994854,1,+1,268,8.800904068222621,0.12895554047596436,0.9734971873296308,1185396.0,21.191505012446868,-0.23381192656721694,-0.0014225289152256515,1188930.0,1.8231643189916262,0.00813886782676132,0.1509613735362605,1196405.0,1190.7364933500012,1187.202493350001,1198.211493350001
71,22,20,M,1,1,63.0,25,4,high,8 + 3 - 4 + 5 + 9,21,21,22,23,1200.7450458999956,1202.7737775999994,1204.289032200002,1209.3071603999997,1211.2229624000029,1211.2229672999963,1212.7400942999957,1213.757493600002,q,21,1.9158020000031684,1,+10,278,-26.246049298048053,-0.07607582518401834,0.544629874905298,1198950.0,-1.0707667151178981,-0.19410124091069836,0.10579055627463552,1202484.0,16.291773848983176,0.2780251955699411,0.16945748395883165,1210934.0,1204.290493350001,1200.7564933500012,1212.740493350001
72,22,20,M,1,1,64.0,26,4,high,2 + 9 - 3 + 5 + 8,21,21,23,22,1215.2744116999966,1217.2978686999995,1218.813097899998,1223.8322012999995,1225.0869804999966,1225.0869855000055,1226.603803499995,1227.6207909000077,q,21,1.2547791999968467,1,+10,288,8.150894707606051,0.35861992679684773,-0.10615975597209704,1213475.0,19.317796646588448,-0.03884915538123446,0.038342556213399215,1217008.0,7.688017392896506,0.9221200075674618,0.08392245530462406,1224797.0,1218.8144933500012,1215.281493350001,1226.6034933500011
73,22,20,M,1,1,65.0,27,1,high,3 + 1 + 8 - 1 + 1,12,12,10,13,1229.137589200007,1231.1602622000064,1232.675176100005,1237.693534200007,1238.6149785000016,1238.6149837999983,1240.131725900006,1241.149547399997,q,12,0.9214442999946186,1,+10,298,23.962559260118333,-0.11995069645993128,-0.0634058561718942,1227337.0,3.9609290749032215,-0.013531294039720976,0.060063289792571695,1230870.0,21.221893299754743,0.8367704318274338,0.3173363887788647,1278597.0,1232.676493350001,1229.143493350001,1280.403493350001
74,22,20,M,1,1,66.0,28,2,high,5 - 8 + 7 + 1 + 1,6,8,7,6,1242.6661153000025,1244.6934542999952,1246.2085518999957,1251.2274134000036,1251.967009400003,1251.967014299997,1253.4838468999951,1254.5013376999996,e,6,0.7395959999994375,1,+10,308,-25.90742636478314,0.47579348650313547,-0.05194075127524078,1240870.0,-1.443076547258773,-0.16908882437983852,0.9028411280821942,1244404.0,3.643691452600738,0.28374594571693734,2.9329826402163146,1251677.0,1246.2104933500011,1242.676493350001,1253.483493350001
75,22,20,M,1,1,67.0,29,2,high,7 + 5 + 1 - 1 - 8,4,2,4,3,1256.0182091000024,1258.0417377999984,1259.5570834999962,1264.5761326000063,1265.279064000002,1265.2790690999973,1266.7957330000063,1267.8131863000017,w,4,0.7029313999955775,1,+10,318,20.88790633237489,0.3944077856162371,-0.13260982675677813,1254218.0,-2.1538816537066126,0.508377321220272,0.8683361634324296,1257752.0,-15.579358266234651,0.4940558097869463,0.5384166603131737,1264989.0,1259.558493350001,1256.0244933500012,1266.7954933500012
76,22,20,M,1,1,68.0,30,1,low,8 + 1 + 1 + 1 - 4,7,8,5,7,1269.3300978000043,1271.3583481999958,1272.8736340000032,1277.8918703999952,1278.887001199997,1278.8870059000035,1280.4035208999994,1281.420194499995,e,7,0.9951308000017888,1,+1,319,30.989996276595463,0.016829013956010108,0.1360792890417395,1267534.0,8.261570806064025,-0.043548292796613985,-0.5810986726439777,1271068.0,2.6927041646400234,0.12455182194631842,-0.1326019631540678,1349389.0,1272.874493350001,1269.3404933500012,1351.195493350001
77,22,20,M,1,1,69.0,31,4,high,6 + 7 + 9 - 3 + 5,24,22,24,23,1282.9369386000035,1284.9643768999958,1286.4799213000078,1291.4991424000036,1292.3590283999947,1292.3590332000022,1293.876696899999,1294.8941373999987,w,24,0.8598859999910928,1,+10,329,-18.379241986879727,0.08063618415532225,-0.28758940921691156,1281141.0,-0.634154296649367,-0.15594447154863156,0.1730710273849143,1284674.0,-6.4837283719704875,0.245872406879168,1.0305208353028856,1292070.0,1286.480493350001,1282.9474933500012,1293.876493350001
78,22,20,M,1,1,70.0,32,4,high,5 + 7 - 4 + 8 + 6,22,23,24,22,1296.4109994000028,1298.4345003000053,1299.949795499997,1304.9694843000034,1305.7270653000014,1305.7270703999966,1307.2439216000057,1308.2612513000058,e,22,0.7575809999980265,1,+10,339,32.913673195171846,0.31857618672369004,0.13093145367911374,1294610.0,3.1751265240100013,0.06711632701732917,-0.13060566748179836,1298145.0,38.02437227027192,-0.24140388232690668,0.1443331362460798,1305437.0,1299.951493350001,1296.416493350001,1307.243493350001
79,22,20,M,1,1,71.0,33,4,high,8 + 4 + 7 - 5 - 6,8,9,7,8,1309.777768100001,1311.800920900001,1313.3163387999955,1318.335783999995,1321.7511248999945,1321.7511302000055,1323.267719399999,1324.2852748000005,e,8,3.415340899999137,1,+10,349,-15.980125623451997,0.32003226243485106,0.06958157375619578,1307977.0,-37.38035342141185,-0.08219571105499313,-0.06555261296822557,1311511.0,14.172710959356712,-0.11585981219389208,0.06501341592996956,1321461.0,1313.317493350001,1309.7834933500012,1323.2674933500011
80,22,20,M,1,1,72.0,34,2,low,9 + 1 + 6 + 7 + 1,24,24,23,25,1325.8021239999944,1327.827601500001,1329.342720700006,1334.3604296999983,1336.055129500004,1336.0551347,1337.5717927000078,1338.5892250000034,q,24,1.6946998000057647,1,+1,350,0.9502119286925712,1.1544434722814967,-0.21113307327063735,1324003.0,25.656000888108604,0.10204065709727494,-0.09230115983666076,1327536.0,-48.347479888007044,-0.40438945274226246,0.2444085069041133,1335765.0,1329.3424933500012,1325.809493350001,1337.5714933500012
81,22,20,M,1,1,73.0,35,1,high,5 + 1 + 1 + 9 + 1,17,17,16,19,1340.1059974999953,1342.1319020999945,1343.6474180000075,1348.6651746999996,1349.679117599997,1349.679123199996,1351.1959738000005,1352.2135053999957,q,17,1.013942899997346,1,+10,360,-10.808572645455293,-0.31208218472838567,-0.056235408193982206,1338308.0,22.218424710193325,-0.4100590529655488,-1.5721090962967579,1341841.0,6.405150950500394,-0.6698896854074805,-0.0980112088882088,1362861.0,1343.647493350001,1340.114493350001,1364.6674933500012
82,22,20,M,1,1,74.0,36,1,low,6 + 9 + 1 + 1 - 1,16,16,14,15,1353.7302710999938,1355.756248799997,1357.2717105000047,1362.2898910000076,1363.1510800999968,1363.1510851000055,1364.6679411000075,1365.6852405999962,q,16,0.861189099989133,1,+1,361,-3.3767085234770207,0.028456856133717956,0.14666287185955862,1351932.0,18.016782023873287,-0.6165444236592732,0.0900858854511224,1355465.0,30.776439778245393,0.8397136872620985,1.1642273665765197,1437140.0,1357.271493350001,1353.7384933500011,1438.9464933500012
83,22,20,M,1,1,75.0,37,4,high,2 + 9 - 4 + 8 + 7,22,23,21,22,1367.2017905999965,1369.2278895000054,1370.7431761000043,1375.7616795000067,1376.519146999999,1376.519160099997,1378.0358815000072,1379.053306700007,e,22,0.7574674999923445,1,+10,371,14.256811843789073,0.37784110072142685,0.01026904056282052,1365403.0,26.482418140739156,-0.03615670720861086,0.4037036929430511,1368937.0,5.646755294711324,-0.22584410734241178,0.060186420683421726,1376229.0,1370.743493350001,1367.2094933500011,1378.0354933500012
84,22,20,M,1,2,76.0,0,4,low,4 + 9 - 7 + 8 + 5,19,20,21,19,1415.019536000007,1417.0469831999944,1418.5622622999945,1423.582277900001,1424.2230973999976,1424.2231023000058,1425.7398511000065,1426.7569523999991,e,19,0.6408194999967236,1,+1,372,-3.5888880594693706,1.3568862165176307,-0.13280842517248548,1413222.0,-22.071692167716336,-0.19253047199040374,-0.5451131614684357,1416757.0,-16.55271952319155,-0.1107055066531597,-0.11959264431801042,1423932.0,1418.5634933500012,1415.028493350001,1425.7384933500011
85,22,20,M,1,2,77.0,1,1,low,2 + 1 + 1 + 9 - 1,12,11,12,13,1428.2743066999974,1430.3010197999974,1431.816332500006,1436.8348162000038,1437.4312740000023,1437.4312790999977,1438.9475389,1439.9641658000037,w,12,0.5964577999984613,1,+1,373,-3.9137593894202407,-0.02781797748624726,0.3630238092218283,1426476.0,-1.1507428953744276,0.14737768995665945,-0.2562382365879734,1430010.0,9.418807044712835,-0.1895087947575318,0.11993610319581638,1464212.0,1431.816493350001,1428.2824933500012,1466.018493350001
86,22,20,M,1,2,78.0,2,3,high,8 + 5 + 1 - 7 + 9,16,16,17,14,1441.4803911000054,1443.5067661000066,1445.0220298000058,1450.0405753999949,1451.1752355000062,1451.175240800003,1452.691826599999,1453.709142599997,q,16,1.1346601000113878,1,+10,383,22.26960310657783,-0.008359764006047321,-0.6244352438785077,1439682.0,24.892779051787755,-0.15689064659604224,0.7071173760684073,1443215.0,-16.025696393585974,0.03351529392505492,-0.04953185273842342,1557467.0,1445.021493350001,1441.4884933500011,1559.2734933500012
87,22,20,M,1,2,79.0,3,1,high,5 + 8 - 1 + 1 + 1,14,14,12,16,1455.2255837999985,1457.2496238000022,1458.7656866000034,1463.7846133999992,1464.5033525000035,1464.5033581000023,1466.0199589999977,1467.0371367000043,q,14,0.7187391000043135,1,+10,393,-20.21547868332489,0.36679834470165096,0.14103429645884047,1453425.0,23.297624097914927,0.16596572143915989,-0.2656198912812009,1456959.0,-1.9405177788135983,0.1446077097788967,0.0009792013553227008,1490636.0,1458.7654933500012,1455.231493350001,1492.442493350001
88,22,20,M,1,2,80.0,4,4,high,2 + 5 - 3 + 9 + 8,21,19,21,22,1468.5538470000029,1470.5781382999994,1472.0934353000048,1477.111872399997,1477.7431552000053,1477.7431601999997,1479.2602714999955,1480.277628099997,w,21,0.6312828000081936,1,+10,403,13.568713453844763,0.2121176220760379,0.006715350115638508,1466753.0,-29.87595655034988,0.22370753761627382,-0.027625826337513093,1470287.0,33.49108084017562,-0.42118604418732764,0.18004621431175583,1477452.0,1472.0934933500012,1468.559493350001,1479.2584933500011
89,22,20,M,1,2,81.0,5,1,high,2 + 1 + 9 + 1 - 1,12,11,12,13,1481.794028599994,1483.8202099000046,1485.3353874000022,1490.3537299000018,1490.9271921000036,1490.9271968999965,1492.4436442000006,1493.4618730999937,w,12,0.5734622000018135,1,+10,413,5.5467405553247,0.09381864107118298,0.10610482476135674,1479995.0,4.831695387160125,0.16584899394104635,1.4500588251353337,1483528.0,-17.841109571648477,0.08904739531645589,-0.12477892794599121,1544212.0,1485.3344933500011,1481.801493350001,1546.018493350001
90,22,20,M,1,2,82.0,6,4,high,3 + 9 - 5 + 8 - 7,8,7,9,8,1494.9787085999997,1497.005187600007,1498.5201705000072,1503.5389372000063,1504.2311943999955,1504.231199700007,1505.7476616000058,1506.7646169000072,e,8,0.6922571999893989,1,+10,423,-0.5264150368085083,0.1491122290697855,-0.88133023639132,1493180.0,-26.27134051739884,-0.36300001917958147,-0.3139592913704847,1496714.0,-22.961998358498946,-0.03423228863039096,-0.13671181880147554,1503940.0,1498.520493350001,1494.9864933500012,1505.7464933500012
91,22,20,M,1,2,83.0,7,2,high,7 + 8 + 1 + 9 + 1,26,26,25,24,1508.2814414000022,1510.3066784999974,1511.822109700006,1516.840584999998,1517.5512805000037,1517.5512860000017,1519.0677770000038,1520.0847575999942,q,26,0.7106955000053858,1,+10,433,6.435231235690841,0.09470227238177698,-0.059680455004176736,1506482.0,21.420821076448537,-0.06613571381061467,-0.06553925262488702,1510015.0,26.97519026336194,0.20118465440968114,-0.10198552322490029,1517260.0,1511.8214933500012,1508.288493350001,1519.066493350001
92,22,20,M,1,2,84.0,8,4,low,4 + 7 + 8 - 3 + 9,25,25,26,24,1521.601553600005,1523.6255036000075,1525.140505999996,1530.1587623999949,1530.9592158000014,1530.9592207999958,1532.475790299999,1533.4926932999952,q,25,0.8004534000065178,1,+1,434,-34.98854218657047,-0.11358033799358269,0.07265340504117734,1519800.0,-1.0832305054966973,-0.5664436487316205,-0.18481098762982073,1523334.0,-18.13029047788421,0.05452408988446811,-0.13388665188948634,1530667.0,1525.1404933500012,1521.606493350001,1532.473493350001
93,22,20,M,1,2,85.0,9,1,high,8 + 1 + 1 + 1 - 3,8,8,9,6,1535.0095173000009,1537.0363906999992,1538.5517091999936,1543.570134099995,1544.503233800002,1544.5032390999986,1546.0207143000007,1547.0382332000008,q,8,0.9330997000070056,1,+10,444,9.91032905657968,0.35077177589942954,-0.24988416005722192,1533211.0,23.232244796507537,-1.0823573533817794,0.014172997470397242,1536744.0,5.6669300360650166,0.36191684717449535,-0.23873746485475555,1598436.0,1538.550493350001,1535.0174933500011,1600.242493350001
94,22,20,M,1,2,86.0,10,3,low,5 + 6 + 7 - 1 - 9,8,9,8,7,1548.554562400008,1550.5787807000015,1552.0939757000017,1557.112438199998,1557.7591831000027,1557.7591877999948,1559.2758159000075,1560.293402299998,w,8,0.6467449000047054,1,+1,445,14.036484742477297,0.3069598029683127,0.21449287924918803,1546753.0,-7.358028467010435,0.006086611200348813,-0.42247799784985407,1550287.0,-27.41641677219056,-0.003294601903611305,0.1528072703551837,1652691.0,1552.0934933500012,1548.559493350001,1654.4974933500012
95,22,20,M,1,2,87.0,11,4,high,5 + 8 - 4 - 6 + 9,12,12,13,14,1561.8101347000047,1563.8369889000023,1565.3523393000069,1570.3707604999945,1571.5671793000074,1571.5671844000026,1573.0837861000036,1574.101218099997,q,12,1.196418800012907,1,+10,455,-4.453554623770472,0.08247086934345926,0.6623988678564521,1560011.0,2.985060934304668,-0.10441809787212941,-0.19420639187619626,1563545.0,0.8582115314993519,-0.1649888947625402,0.05068786868724473,1571275.0,1565.3514933500012,1561.817493350001,1573.0814933500012
96,22,20,M,1,2,88.0,12,2,low,8 + 1 + 7 + 1 - 4,13,13,14,12,1575.6179032000073,1577.6437182999944,1579.1590928000078,1584.1788199000002,1585.1992230000033,1585.1992283,1586.7158125999997,1587.7326993000024,q,13,1.0204031000030227,1,+1,456,-19.160823387703154,0.09376034687298773,-0.10578858440662842,1573818.0,2.434407308863065,0.19059062963135975,0.03779736033668657,1577353.0,-48.52758836195751,-0.07102543980930465,-0.08894710196062316,1584907.0,1579.1594933500012,1575.624493350001,1586.713493350001
97,22,20,M,1,2,89.0,13,1,high,7 + 1 + 6 + 1 + 1,16,16,17,18,1589.2492796000006,1591.275682899999,1592.7909345999942,1597.809833499996,1598.727311099996,1598.727316400007,1600.244352900001,1601.261546499998,q,16,0.9174775999999838,1,+10,466,-3.1946210317334423,-0.03477136434926109,-0.01684756348755645,1587450.0,15.29952042884787,-0.2536161479165604,0.18286553532784655,1590984.0,-6.725430141841442,-0.8073138034617018,-0.07299411751866414,1611811.0,1592.790493350001,1589.2564933500012,1613.617493350001
98,22,20,M,1,2,90.0,14,1,low,9 + 8 + 1 + 1 - 1,18,19,17,18,1602.7784697000025,1604.8060591999963,1606.3213486000022,1611.3396015000037,1612.1033046999946,1612.1033103999944,1613.620049899997,1614.6364522000076,e,18,0.7637031999911414,1,+1,467,-16.377980613292127,-0.3541842118179921,0.028825700296692958,1600980.0,-11.542926866264331,-0.1307678613945007,-1.1308978382031047,1604514.0,42.19175498867174,0.16822549582953927,0.14287557886408764,1735755.0,1606.320493350001,1602.7864933500011,1737.5614933500012
99,22,20,M,1,2,91.0,15,4,low,7 + 6 + 8 - 4 + 5,22,22,21,23,1616.1532651000016,1618.1789653000014,1619.6948200000045,1624.7149673999957,1625.9273967000045,1625.9274232000023,1627.443983300007,1628.4619507000025,q,22,1.212429300008807,1,+1,468,-5.650170946722891,-0.00873085520877881,0.022136178830699293,1614352.0,-6.8605332766603535,-0.00022074621910617154,0.004736185235716839,1617889.0,-10.89802896978015,-0.19848843513016634,-0.10121680278008638,1625635.0,1619.695493350001,1616.1584933500012,1627.441493350001
100,22,20,M,1,2,92.0,16,2,high,6 + 1 + 7 + 5 - 1,18,18,17,16,1629.9793871000002,1632.003769300005,1633.5190283999982,1638.5374512999988,1639.471346499995,1639.471352099994,1640.9880484000023,1642.0053886999958,q,18,0.9338951999961864,1,+10,478,9.05804649187041,0.1186528505936586,0.45445341594489763,1628178.0,-26.12792580809305,-0.47219617579557305,-0.9188872515160944,1631711.0,-5.168872484413959,0.06674408559952516,-0.01883643984589778,1639179.0,1633.5174933500011,1629.9844933500012,1640.9854933500012
101,22,20,M,1,2,93.0,17,3,low,5 + 6 - 4 - 1 + 8,14,14,15,16,1643.522001400008,1645.5484287,1647.0638847999944,1652.081932999994,1652.9833802000066,1652.9833853000018,1654.500009700001,1655.5170592000068,q,14,0.901447200012626,1,+1,479,-31.684372069391475,0.13167679943607435,0.012565292380029458,1641722.0,16.661664874713445,-0.8362032424282142,-1.2396733774865814,1645256.0,-22.839824218309122,-0.10853511884090938,0.5218635613613039,1668907.0,1647.0624933500012,1643.528493350001,1670.713493350001
102,22,20,M,1,2,94.0,18,3,high,4 + 7 + 1 + 9 - 5,16,17,18,16,1657.033393100006,1659.0578001999966,1660.5726641000074,1665.5908977000072,1669.1995807000058,1669.1995859000017,1670.7162533999945,1671.733656299999,e,16,3.608682999998564,1,+10,489,-22.14478406688896,0.15338609624786192,1.0207201455655808,1655231.0,14.780295124990957,0.13461623787192245,-1.3219283756642324,1658765.0,15.608292424138792,0.9313640993006032,0.1849974119937341,1709170.0,1660.5714933500012,1657.0374933500011,1710.9764933500012
103,22,20,M,1,2,95.0,19,4,high,9 + 8 - 5 - 7 + 6,11,13,10,11,1673.2505568000051,1675.2744147000049,1676.789554899995,1681.809569200006,1682.4553296999948,1682.4553352000075,1683.971935900001,1684.9892039999977,e,11,0.6457604999886826,1,+10,499,-10.875351948907646,0.14270669006990966,0.17951014581527147,1671448.0,-2.2560753892201495,0.031013276096258036,0.08905955396291265,1674983.0,25.625366679414242,-0.28176193823891005,-0.14664563658383312,1682163.0,1676.789493350001,1673.2544933500012,1683.9694933500011
104,22,20,M,1,2,96.0,20,2,low,3 + 1 + 8 - 5 - 1,6,5,7,6,1686.506095699995,1688.529515700007,1690.0445116000046,1695.0626816000004,1696.0794337999978,1696.0794394999975,1697.5962340999977,1698.6131639999949,e,6,1.016752199997427,1,+1,500,0.19919032449524998,-0.16432248030248964,-0.03197614385128422,1684703.0,14.7347120694949,-0.4136275935365932,-0.006142213540520025,1688236.0,-54.164266882265935,0.6333762850975782,-0.07667792817454844,1695787.0,1690.0424933500012,1686.509493350001,1697.5934933500012
105,22,20,M,1,2,97.0,21,3,low,7 + 5 + 9 + 1 - 6,16,15,14,16,1700.1297861000055,1702.1573864999957,1703.6726905999967,1708.6910588000028,1709.4634801000066,1709.463485500004,1710.9797457999955,1711.9964526999977,e,16,0.7724213000037707,1,+1,501,-8.554406843035474,0.6434842750493059,0.20227137773552117,1698331.0,2.562880363644719,0.041905135117850545,0.06389212631706198,1701864.0,-16.58214416737004,0.8725686090221716,-0.03729797480406205,1763210.0,1703.6704933500012,1700.137493350001,1765.0164933500012
106,22,20,M,1,2,98.0,22,4,low,5 + 7 - 4 - 6 + 9,11,12,13,11,1713.5132351000066,1715.5410803999985,1717.056325700003,1722.0755663000018,1722.7434484999976,1722.7434540999966,1724.2600563000017,1725.2767343000014,e,11,0.6678821999958018,1,+1,502,-17.856045543142162,0.4737290340178295,-0.2701617540451926,1711715.0,16.679477463977133,-0.12592381125015883,-0.19664126173397545,1715248.0,18.952526079616735,0.3203976403745421,-0.00020063687730864643,1722450.0,1717.0544933500012,1713.521493350001,1724.2564933500012
107,22,20,M,1,2,99.0,23,1,high,3 + 1 + 8 + 1 + 1,14,13,14,12,1726.7934502999997,1728.8190653000056,1730.3343469999963,1735.353500600002,1736.0474507000035,1736.0474555999972,1737.5645271999963,1738.5814783999958,w,14,0.6939501000015298,1,+10,512,-1.2404943524896126,0.07988160596204796,1.5196741696336635,1724992.0,8.834634764657503,0.3513602526706334,0.6648874763219474,1728527.0,-2.932075490531199,0.9825782816869508,0.11938836061113278,1749242.0,1730.3334933500012,1726.798493350001,1751.048493350001
108,22,20,M,1,2,100.0,24,1,high,5 + 6 + 1 + 1 + 1,14,13,16,14,1740.0983364999993,1742.122265500002,1743.6374320000032,1748.6558662000025,1749.535428999996,1749.5354338000034,1751.0517241000052,1752.0690734999953,e,14,0.8795627999934368,1,+10,522,7.670610971236911,-0.20243611274977802,0.03078879986473604,1738296.0,-39.224998208497695,0.09493172660122928,0.021108570834502016,1741828.0,19.61148461459251,-0.2573861401071751,0.08731680997463553,1790123.0,1743.634493350001,1740.1024933500012,1791.9294933500012
109,22,20,M,1,2,101.0,25,3,low,5 + 6 - 4 - 1 + 7,13,14,15,13,1753.5860577999993,1755.6122720999992,1757.1272392999963,1762.1456826000067,1763.5034157000046,1763.503420399997,1765.0194366000069,1766.0366898000066,e,13,1.3577330999978583,1,+1,523,24.404246868076513,0.36686496304505845,0.7472495803420309,1751785.0,11.695357167077006,0.20112753862469113,-0.30301587985692846,1755319.0,-19.366353852573383,0.1963478777247758,0.038579621325042446,1830498.0,1757.125493350001,1753.5914933500012,1832.3044933500012
110,22,20,M,1,2,102.0,26,4,low,7 + 8 - 4 + 6 - 5,12,13,11,12,1767.5533710000018,1769.5816998999944,1771.0970151999936,1776.1152680999949,1776.807465599995,1776.807470700005,1778.3240765999944,1779.3416453999962,e,12,0.692197500000475,1,+1,524,-24.433290376547614,0.9080234648658516,0.8472342875840346,1765754.0,2.7457336644525228,-1.1528921524875129,-0.39271861168030053,1769288.0,21.577265724444214,-0.1899632311354429,0.21433431896724642,1776514.0,1771.0944933500011,1767.560493350001,1778.320493350001
111,22,20,M,1,2,103.0,27,1,high,7 + 1 + 4 + 1 - 1,12,12,11,13,1780.858217800007,1782.8846137999935,1784.399845699998,1789.4195963999955,1790.4154970999953,1790.4155024000063,1791.9324059000064,1792.9497921000002,q,12,0.9959006999997656,1,+10,534,28.626973868582272,0.07186662947024125,-0.00836363229422643,1779057.0,-6.775138852505561,-0.2280976804107988,0.3749626547443703,1782593.0,-42.28519786123594,0.6147908518963856,-0.0032166125278600965,1816666.0,1784.3994933500012,1780.8634933500011,1818.472493350001
112,22,20,M,1,2,104.0,28,2,high,2 + 1 + 9 - 4 + 1,9,8,9,11,1794.4666414999956,1796.4933922000057,1798.008658000006,1803.0269930000068,1803.783436800004,1803.7834423000024,1805.300058199995,1806.3172620999976,w,9,0.7564437999972142,1,+10,544,-19.34626537160495,0.5548717349328758,0.33217249027539597,1792666.0,0.7909085883685254,-0.227075111377113,-0.06761476118056509,1796200.0,11.371899102330866,0.32469028825840685,0.4582538104830307,1803490.0,1798.0064933500012,1794.472493350001,1805.2964933500011
113,22,20,M,1,2,105.0,29,1,high,3 + 1 + 9 + 1 + 1,15,17,15,14,1807.834036100001,1809.8603297999944,1811.3757252000069,1816.3948397000056,1816.9593983999948,1816.9594031000013,1818.4759856000016,1819.4934065999987,w,15,0.5645586999889929,1,+10,554,40.41777311724701,-0.2675194886612049,0.039278483567045,1806033.0,5.450417772578229,0.5135382439088119,-0.1466380254471824,1809568.0,3.008627237654192,0.9624425437426813,0.00794726605570717,1870946.0,1811.374493350001,1807.839493350001,1872.752493350001
114,22,20,M,1,2,106.0,30,3,high,6 - 1 + 7 - 8 + 9,13,13,11,12,1821.0102806000068,1823.0345447,1824.549833099998,1829.5685717000013,1830.7915192999933,1830.7915247000053,1832.3082395999957,1833.3256696000024,q,13,1.2229475999920396,1,+10,564,-33.58437747961187,0.629228237328662,-0.04255961949643439,1819207.0,77.50423992598351,0.3536544872005978,0.43457251254640217,1822741.0,15.215041075281125,0.5019626907274377,0.20149571097604935,1898249.0,1824.547493350001,1821.0134933500012,1900.0554933500011
115,22,20,M,1,2,107.0,31,2,high,6 + 1 + 1 + 7 - 9,6,6,4,8,1834.8424992000075,1836.869528700001,1838.3846245000025,1843.403739100002,1844.2874665999989,1844.287471899996,1845.8038486000005,1846.821397100008,q,6,0.883727499996894,1,+10,574,-0.38185196131468757,-0.49642441282013205,-0.04933791281742339,1833042.0,15.36087705190935,-0.7029336393820627,-0.07164245398667557,1836576.0,-8.742564314613054,0.12856424205453187,-0.016881431986702555,1843994.0,1838.3824933500011,1834.848493350001,1845.800493350001
116,22,20,M,1,2,108.0,32,2,high,9 + 6 + 1 + 7 + 1,24,24,23,25,1848.338006300008,1850.3622004000065,1851.877202100004,1856.8961026000036,1858.079565699998,1858.079570899994,1859.595952600008,1860.6134746000023,q,24,1.183463099994697,1,+10,584,8.231306311383868,0.7131528142020045,-0.03929271977607374,1846535.0,8.443259114408281,0.48861013972340395,0.07685122161120228,1850068.0,-11.795160334839647,1.2121008697908717,0.03465140035194869,1857786.0,1851.874493350001,1848.3414933500012,1859.5924933500012
117,22,20,M,1,2,109.0,33,1,low,8 + 1 + 1 - 1 - 4,5,6,5,3,1862.1302265999984,1864.156528499996,1865.6717990000036,1870.6899003,1871.239457100004,1871.2394625000013,1872.756808300008,1873.774195200007,w,5,0.5495568000042113,1,+1,585,33.76140250496271,0.12762364154886896,0.11277196716782534,1860329.0,9.384086023361691,-0.3014371376497591,0.4644362407778828,1863862.0,13.549757910561691,-0.5676932595034989,-0.3703449869600841,1925402.0,1865.6684933500012,1862.135493350001,1927.2084933500012
118,22,20,M,1,2,110.0,34,4,high,9 + 3 - 5 + 8 + 6,21,19,23,21,1875.2906393000007,1877.3180195000025,1878.8331418000016,1883.851443100008,1884.9435211999955,1884.943526300005,1886.4598848000023,1887.477459300004,e,21,1.0920780999877024,1,+10,595,-3.4065307343448126,0.6961381114719751,-0.07833995865520293,1873490.0,-28.4380536342635,-0.37654088043996126,-0.028471464663961887,1877024.0,-28.484172780622025,0.1566906036157043,-0.08733987254956932,1884650.0,1878.830493350001,1875.2964933500011,1886.4564933500012
119,22,20,M,1,2,111.0,35,3,low,8 + 4 + 1 - 7 + 9,15,15,13,16,1888.994609500005,1891.0185223000008,1892.5340172,1897.553682800004,1898.5435390000057,1898.5435441000009,1900.060109500002,1901.0768596999987,q,15,0.9898562000016682,1,+1,596,7.051048612024344,-0.8304996160302824,0.04210239543885108,1887191.0,1.9104661201059514,-0.0955789022773672,-0.1871126987616969,1890726.0,-3.295839250136212,-0.0379133929810509,0.08262332895076963,1911970.0,1892.5324933500012,1888.9974933500012,1913.7764933500011
120,22,20,M,1,2,112.0,36,3,high,3 - 7 + 5 + 1 + 9,11,12,11,13,1902.5935833999972,1904.6183434999984,1906.1336803000013,1911.1516512999951,1912.2635653000036,1912.2635706,1913.7801796999995,1914.7974618000007,w,11,1.1119140000082552,1,+10,606,-50.463739017153785,0.07892381406514293,-0.13870844999211474,1900791.0,3.8062451423910195,-0.14584867226996057,0.11236393889138929,1904325.0,2.7722324175357755,-0.18873911876710414,1.6398486029821138,2036073.0,1906.1314933500012,1902.597493350001,2037.8794933500012
121,22,20,M,1,2,113.0,37,1,high,5 + 1 + 1 + 6 + 1,14,13,16,14,1916.314191700003,1918.3403485000017,1919.8556134999965,1924.873060800004,1925.695611300005,1925.695616500001,1927.212214600004,1928.229540100001,e,14,0.8225505000009434,1,+10,616,-5.196495881572563,-0.003291012489626155,-0.09254782380536142,1914513.0,9.246459779310834,0.36399195807558726,-0.19004322952869868,1918046.0,21.540262989012223,-0.013863187552644263,-0.20148719647618774,2131976.0,1919.8524933500012,1916.319493350001,2133.7824933500015
122,22,20,M,1,3,114.0,0,2,low,4 + 9 + 1 - 7 - 1,6,8,5,6,1959.7636114000047,1961.791084700002,1963.3061289000036,1968.3261434000012,1968.935706300006,1968.9357114000013,1970.4523453,1971.4694552,e,6,0.6095629000046756,1,+1,617,2.551357921336354,5.448678605694897,1.8140588380184806,1957963.0,-7.85231652253464,0.13121085256054865,-2.1225262406846905,1961498.0,8.914246716944925,-0.007836436091270826,-1.6605110660697422,1968641.0,1963.3044933500012,1959.769493350001,1970.4474933500012
123,22,20,M,1,3,115.0,1,2,high,6 + 1 + 7 - 8 - 1,5,7,4,5,1972.9861324999947,1975.011700300005,1976.5269774000044,1981.5463336999965,1982.271544999996,1982.2715501000057,1983.7881068999995,1984.8054976999997,e,5,0.7252112999995006,1,+10,627,-1.1984296720067729,-0.18407980472493435,-0.014481132469209346,1971184.0,18.291202030794636,-0.26565160844950064,-1.877645914589884,1974717.0,3.459907020601527,0.9883721037881248,0.09544519456530409,1981977.0,1976.5234933500012,1972.990493350001,1983.7834933500012
124,22,20,M,1,3,116.0,2,4,high,6 + 9 + 7 - 3 - 5,14,14,13,15,1986.322265900002,1988.349385900001,1989.8647298,1994.883209599997,1995.543611000001,1995.5436158999944,1997.0602744000064,1998.0775051999956,q,14,0.6604014000040479,1,+10,637,1.979993087851355,0.5402737165634912,-0.6708617381631781,1984522.0,54.163367238574295,0.2780793970175708,-1.1895284380402495,1988055.0,37.590795148501684,-1.4688196261520572,1.2024555110481865,1995249.0,1989.8614933500012,1986.328493350001,1997.0554933500011
125,22,20,M,1,3,117.0,3,2,high,6 + 1 + 8 + 7 - 1,21,23,19,21,1999.594490500007,2001.6193925999976,2003.1347240000032,2008.1549042999975,2009.359654,2009.359659399997,2010.8763024000075,2011.893856099996,e,21,1.2047497000021394,1,+10,647,-2.471733056690221,0.4411727478481364,0.2322569411101938,1997791.0,7.091853200999372,0.17753630253688613,0.5848314045695977,2001327.0,13.557803315558653,0.08586373131262093,1.0204748829699337,2009066.0,2003.1334933500011,1999.597493350001,2010.8724933500012
126,22,20,M,1,3,118.0,4,4,low,4 + 7 + 9 - 5 + 7,22,24,22,23,2013.4107365999955,2015.4357516000016,2016.9509993999964,2021.969378499998,2023.079753500002,2023.0797588999997,2024.596449100005,2025.6133653,w,22,1.1103750000038417,1,+1,648,7.3313400129444215,0.9541517123127448,-0.33390487311574724,2011607.0,16.499251268035778,-0.06256471999483271,-1.4510856325809027,2015141.0,-21.721285761107787,0.04828016478648456,0.7235549999636501,2022785.0,2016.9474933500012,2013.413493350001,2024.5914933500012
127,22,20,M,1,3,119.0,5,3,high,7 - 1 + 8 - 6 + 4,12,11,12,13,2027.130373399996,2029.158055199994,2030.6730870000029,2035.691723099997,2036.3676432000063,2036.3676481,2037.884277799996,2038.901643799996,w,12,0.6759201000095345,1,+10,658,-13.66360893087832,-0.053706464295322665,0.05507432645609178,2025329.0,28.78767816018314,0.11306921120646596,0.3171892772884375,2028863.0,50.267450802688295,0.06882320803953101,-0.14323639260978016,2089801.0,2030.6694933500012,2027.135493350001,2091.6074933500013
128,22,20,M,1,3,120.0,6,4,low,8 + 5 - 4 + 7 + 9,25,26,25,24,2040.418178699998,2042.445890300005,2043.9610689999968,2048.9794804999983,2049.495604399999,2049.4956097999966,2051.0120273000066,2052.0287551000074,w,25,0.5161239000008209,1,+1,659,7.914878206572553,0.08168088768864434,-0.25590026588604564,2038617.0,13.623625176754564,0.037267532727138786,0.14952740243987295,2042151.0,-6.169842298931991,0.17376705595606357,-0.04568458429183808,2049200.0,2043.9574933500012,2040.423493350001,2051.006493350001
129,22,20,M,1,3,121.0,7,2,low,7 + 6 + 1 + 8 + 1,23,22,21,23,2053.545578400008,2055.5714294000063,2057.0865556000062,2062.106423999998,2063.103727499998,2063.1037328999955,2064.620556399997,2065.637203399994,e,23,0.997303500000271,1,+1,660,4.870846200668844,0.06260578376944093,0.0417670406092836,2051743.0,-48.897272789337634,-0.1273728217801522,-0.8707721202953707,2055278.0,-3.085063530317683,-0.20586515066635647,1.0598306538266034,2062809.0,2057.084493350001,2053.5494933500013,2064.6154933500015
130,22,20,M,1,3,122.0,8,2,high,4 + 9 - 7 + 1 - 1,6,6,8,5,2067.154016500004,2069.181314100002,2070.696690500001,2075.715022599994,2076.695655300005,2076.6956609000044,2078.2119029000023,2079.228830100008,q,6,0.9806327000114834,1,+10,670,19.79305641587695,0.08694494882158432,-0.5735176704681835,2065353.0,-1.7018752273732023,-0.16251873637403147,0.45566350135366473,2068887.0,26.64819706697356,0.592540929403532,0.0732059656248023,2076400.0,2070.6934933500015,2067.1594933500014,2078.2064933500014
131,22,20,M,1,3,123.0,9,3,low,4 + 5 - 3 + 7 - 1,12,12,13,11,2080.7450727999967,2082.770739400002,2084.285929100006,2089.3048611999984,2090.095727699998,2090.095732800008,2091.6123481999966,2092.629462099998,q,12,0.7908664999995381,1,+1,671,14.547247509894127,0.12057757756404719,0.1126039225880835,2078942.0,-30.370276128239524,0.23495353801705487,0.10736979747302744,2082476.0,19.338030816651074,0.17315125929480635,0.049806359452906124,2118400.0,2084.2824933500015,2080.7484933500014,2120.2064933500014
132,22,20,M,1,3,124.0,10,2,high,8 + 1 + 9 + 1 - 4,15,14,15,16,2094.146354800003,2096.171708900001,2097.686736899996,2102.704921700002,2103.3037128,2103.303717999996,2104.8201365999994,2105.837679000004,w,15,0.5987910999974702,1,+10,681,12.792784559723117,-0.029519421176309013,3.2851729131392013,2092343.0,-4.781883733848956,0.49295092918642913,-0.310794458392444,2095876.0,-20.667585005228005,0.26829968733355436,-0.2642557676610986,2103009.0,2097.6824933500016,2094.149493350001,2104.8154933500014
133,22,20,M,1,3,125.0,11,3,low,6 + 8 + 7 + 1 - 9,13,14,13,15,2107.3550229999964,2109.380648499995,2110.895890400003,2115.9142295000056,2118.695769900005,2118.6957753000024,2120.212366599997,2121.229076600008,w,13,2.7815403999993578,1,+1,682,20.211506466928665,0.1722104944917171,0.16195617671557305,2105552.0,-2.8707193077948325,0.18930670717201004,-0.07773163718690013,2109085.0,-16.325519481614457,0.23833327438086416,-0.5855971117575105,2145569.0,2110.8914933500014,2107.3584933500015,2147.3754933500013
134,22,20,M,1,3,126.0,12,1,low,8 - 1 + 1 + 6 + 1,15,15,16,14,2122.745980599997,2124.772171500008,2126.2874209,2131.3066431000043,2132.271774000008,2132.271779100003,2133.788318799998,2134.8051354000054,q,15,0.9651309000037144,1,+1,683,11.668203801673593,0.3711820693826189,-0.05875014249625776,2120943.0,15.926027075374098,0.01654698059026849,0.0069509150850521895,2124478.0,18.322858557825576,0.004617781234988794,-0.10263832881368207,2159024.0,2126.2844933500014,2122.7494933500016,2160.8304933500012
135,22,20,M,1,3,127.0,13,3,high,4 + 1 + 8 + 9 - 5,17,17,18,19,2136.3218166000006,2138.3477365,2139.862974500007,2144.8813054000057,2145.8637274000066,2145.8637326000025,2147.3805613000004,2148.3975571000046,q,17,0.9824220000009518,1,+10,693,30.648911639825965,0.3621934713869215,-0.128452890187009,2134519.0,47.19863112153578,0.34122895962932764,-0.02961413352444331,2138052.0,37.14064897325583,0.3888205199277812,-0.006539439456682672,2172640.0,2139.8584933500015,2136.325493350001,2174.446493350001
136,22,20,M,1,3,128.0,14,1,high,4 + 8 + 1 - 1 - 1,11,9,13,11,2149.9145736000064,2151.9382549,2153.4543140000023,2158.472450000001,2159.3196846000064,2159.3196895,2160.836295900008,2161.8530084999948,e,11,0.8472346000053221,1,+10,703,-43.18178695195408,0.10406877098414036,0.19540730170257037,2148109.0,-29.026468335798192,0.39325855156684053,0.0006339657276941413,2151643.0,-10.370030421687797,0.2252495175127045,0.05509682995865872,2186016.0,2153.4494933500014,2149.9154933500013,2187.8224933500014
137,22,20,M,1,3,129.0,15,3,low,7 + 1 + 9 + 5 - 6,16,15,16,14,2163.369782199996,2165.396742099998,2166.912053299995,2171.9306545,2172.935815799996,2172.935821200008,2174.452508200004,2175.4694953,w,16,1.0051612999959616,1,+1,704,9.25936940383552,0.12945497450553356,0.4117792936569358,2161568.0,6.63055150898721,-0.29719012610506157,-0.012451033975447112,2165101.0,7.933028416108027,0.3443359479596291,0.0008172106153745418,2293904.0,2166.9074933500015,2163.3744933500016,2295.7104933500013
138,22,20,M,1,3,130.0,16,1,low,6 + 1 + 8 + 1 - 1,15,13,15,14,2176.986342899996,2179.013963499994,2180.529037600005,2185.547343099999,2186.3117740000016,2186.311778999996,2187.828292799997,2188.8457365000068,w,15,0.7644309000024805,1,+1,705,-1.4761995391245701,0.2709014122183402,0.057397182304271155,2175185.0,-27.296340774907346,-0.234957705967064,-0.10290923309169786,2178718.0,35.46790595355225,0.06083605804467629,-0.08414720353720595,2199536.0,2180.524493350001,2176.9914933500013,2201.3424933500014
139,22,20,M,1,3,131.0,17,1,high,2 + 1 + 9 + 1 + 1,14,12,13,14,2190.3622878000024,2192.387992200005,2193.9032458,2198.922186399999,2199.8318568999966,2199.831862299994,2201.348426700002,2202.365751400008,e,14,0.9096704999974464,1,+10,715,9.932783967346557,-0.48810458251090205,-0.12014247566881942,2188558.0,0.5230731320084008,0.0329946008993911,-0.027092984560006084,2192093.0,56.27647106032121,0.17923996916521778,-0.025006795555296835,2212800.0,2193.899493350001,2190.3644933500013,2214.6064933500015
140,22,20,M,1,3,132.0,18,1,low,5 + 9 - 1 + 1 + 1,15,17,13,15,2203.8823854000075,2205.910407200005,2207.426334100004,2212.4443987999985,2213.0957277999987,2213.095733299997,2214.612155299997,2215.629055700003,e,15,0.6513290000002598,1,+1,716,26.850732923195185,0.1421760972465096,0.12213903192712783,2202081.0,13.56831658566636,-0.10921922632866776,0.09366266827110437,2205615.0,-7.152160624883594,0.18393218130097688,-0.01382019766541931,2360335.0,2207.421493350001,2203.8874933500015,2362.1414933500014
141,22,20,M,1,3,133.0,19,2,high,7 + 1 + 9 - 1 - 8,8,7,6,8,2217.146061899999,2219.172353800008,2220.6876577999938,2225.7081493000005,2226.623881199994,2226.623886100002,2228.1406987999944,2229.158118699997,e,8,0.9157318999932612,1,+10,726,-6.455527967261023,0.08265910191955506,0.15235243572075863,2215343.0,-9.225256889124454,-0.11347699710621528,-1.5984546383960199,2218878.0,-20.414855968645263,0.09764543502985834,2.6708285427383442,2226329.0,2220.6844933500015,2217.149493350001,2228.1354933500015
142,22,20,M,1,3,134.0,20,2,low,4 + 9 - 7 + 1 - 1,6,6,8,5,2230.6749770000024,2232.7024159,2234.2174712999986,2239.236088100006,2240.087940199999,2240.0879456999974,2241.604571600008,2242.6223244,q,6,0.8518520999932662,1,+1,727,-2.5409013496534194,0.0971107439446639,-0.423202573822957,2228873.0,-13.212113836588408,-0.12799574224834265,-0.8813011121919976,2232406.0,8.280201922540378,-0.037026537398763715,0.40982733969963103,2239792.0,2234.2124933500013,2230.6794933500014,2241.5984933500013
143,22,20,M,1,3,135.0,21,4,high,3 + 8 - 5 + 9 - 7,8,6,7,8,2244.139762000006,2246.165648199996,2247.681238300007,2252.7011207000032,2253.463866399994,2253.463871400003,2254.980740500003,2255.9979799,e,8,0.7627456999907736,1,+10,737,-0.8449353938688926,0.2847954378892119,-0.9286223473363999,2242336.0,26.214487072131977,0.7652067478547049,-0.8879135486816634,2245872.0,-16.351349775020623,-0.05158147445436301,-0.2193278368781051,2253168.0,2247.678493350001,2244.142493350001,2254.9744933500015
144,22,20,M,1,3,136.0,22,2,high,6 + 1 + 8 + 5 - 1,19,19,17,18,2257.5153951999964,2259.542143800005,2261.0574449999986,2266.0756970999937,2266.9759017000038,2266.975907500004,2268.492692,2269.5106917999947,q,19,0.9002046000096016,1,+10,747,-13.757329764193319,-0.12842890188934364,0.06636138571244743,2255712.0,20.87937840519008,0.4572577712606263,-0.3901365907310981,2259246.0,-2.379796084954412,0.7661852017690252,0.09967965786837496,2266680.0,2261.0524933500014,2257.5184933500013,2268.486493350001
145,22,20,M,1,3,137.0,23,4,high,8 + 4 - 5 + 7 - 6,8,6,8,7,2271.0274465999973,2273.053642800005,2274.5696172000025,2279.588458700004,2280.4558569999936,2280.455861800001,2281.9722959000064,2282.9895955999964,w,8,0.8673982999898726,1,+10,757,-7.713346070399417,0.050632326082464374,0.17136431925031603,2269224.0,13.813608264233304,-0.7687527837011694,-0.2944936575083845,2272759.0,12.701271884215352,-0.2994252294243651,0.09408548847062326,2280160.0,2274.5654933500014,2271.0304933500015,2281.966493350001
146,22,20,M,1,3,138.0,24,3,low,8 + 3 + 1 - 7 + 9,14,14,12,15,2284.506658400001,2286.530346200001,2288.045232799996,2293.064561200008,2294.199940100006,2294.199945500004,2295.716482899996,2296.733542700007,q,14,1.1353788999986136,1,+1,758,-20.00666355566335,0.18679061070766467,-0.18632146506188474,2282700.0,-1.1639884067936652,0.29609057102601355,0.08463784900795135,2286234.0,-5.777764637129078,0.26013321479038254,-0.0494354665211012,2333960.0,2288.0404933500013,2284.506493350001,2335.7664933500014
147,22,20,M,1,3,139.0,25,2,high,7 + 5 + 1 + 9 + 1,23,21,23,22,2298.2505110000056,2300.2793733,2301.794669099996,2306.8125240999943,2307.4958957000053,2307.4959008000005,2309.012422800006,2310.0297890000074,w,23,0.6833716000110144,1,+10,768,65.57969641813504,0.4076720440180588,0.05327214186750728,2296449.0,3.5034729975003636,-0.19223510667716015,0.025428337991508565,2299983.0,18.482973433993735,-0.1255559705716962,-0.37427004273802544,2307200.0,2301.7894933500015,2298.2554933500014,2309.006493350001
148,22,20,M,1,3,140.0,26,2,high,8 + 1 + 1 + 9 - 4,15,16,15,14,2311.546694599994,2313.571053199994,2315.087038700003,2320.1048996000027,2320.767818399996,2320.767823300004,2322.284426600003,2323.302596499998,w,15,0.6629187999933492,1,+10,778,-19.877146077300786,0.19271244167832657,0.08137392820647182,2309741.0,12.236483518697742,0.13525389728493753,-0.15046883720658566,2313275.0,-3.1731767960241637,0.34437583958416784,-0.09919732599061026,2320472.0,2315.0814933500014,2311.5474933500013,2322.2784933500016
149,22,20,M,1,3,141.0,27,3,high,2 + 9 + 1 - 5 + 7,14,14,12,15,2324.819450499999,2326.847697799996,2328.3629564000003,2333.381651799995,2334.2558509999944,2334.255856100004,2335.772537099998,2336.7899335999973,q,14,0.8741991999995662,1,+10,788,10.304242545781928,0.5729239436400939,0.6887585816237829,2323018.0,24.638717150918765,-0.06352204803188188,-2.772938505503024,2326551.0,9.313711757752426,-0.2421823671904204,-0.015562543812315699,2347183.0,2328.3574933500013,2324.8244933500014,2348.9894933500013
150,22,20,M,1,3,142.0,28,3,low,8 - 7 + 9 + 1 + 4,15,16,15,14,2338.306543300001,2340.3309782,2341.8463535000046,2346.864526699996,2347.4799091000023,2347.479913899995,2348.9961511,2350.012902200004,w,15,0.6153824000066379,1,+1,789,15.79460689062302,0.15211735589023467,-0.12343784379080391,2336501.0,14.558107429094065,-0.12431827666755879,0.012314116522323504,2340035.0,23.439892084514476,0.1942168475784447,0.029394718690476385,2441631.0,2341.841493350001,2338.3074933500016,2443.437493350001
151,22,20,M,1,3,143.0,29,1,high,7 - 1 + 8 + 1 - 1,14,12,14,13,2351.5297323999985,2353.5542619000043,2355.069115599996,2360.087457200003,2360.632008600005,2360.632013800001,2362.148411800008,2363.165819600006,w,14,0.5445514000020921,1,+10,799,14.498226505898266,-0.06962730231524983,0.522438445906976,2349724.0,-4.819867980520929,0.41494553767388176,-1.4013060343227965,2353257.0,13.609942080826071,1.0585019308321102,-0.00823388786755297,2428144.0,2355.0634933500014,2351.5304933500015,2429.950493350001
152,22,20,M,1,3,144.0,30,4,low,8 + 7 - 4 + 5 + 9,25,24,25,26,2364.682591799996,2366.710913899995,2368.2261902000027,2373.2447822999966,2374.7839628000074,2374.783968200005,2376.3005623000063,2377.3178865999944,w,25,1.5391805000108434,1,+1,800,39.51342616866945,0.1898442183361544,-0.0075295655952409835,2362881.0,-45.54971204327483,-0.24640069644440077,0.22773291712204302,2366414.0,38.053662396151125,0.06062197260290736,-0.09489338410689108,2374488.0,2368.2204933500016,2364.687493350001,2376.294493350001
153,22,20,M,1,3,145.0,31,2,low,3 - 1 + 9 - 5 + 1,7,7,6,5,2378.8347736,2380.861122100003,2382.376307300001,2387.395547699998,2388.608046299996,2388.6080516999937,2390.124892299995,2391.141755100005,q,7,1.2124985999980709,1,+1,801,-1.5558920174565625,0.7839240070527991,0.02983618473676586,2377031.0,3.1893753110808127,0.14596933681743973,1.9006733341800797,2380565.0,11.671411818503989,0.24750933312495693,0.9734055641168851,2388311.0,2382.3714933500014,2378.8374933500013,2390.1174933500015
154,22,20,M,1,3,146.0,32,4,low,3 + 8 - 4 + 9 + 7,23,22,23,24,2392.6588870999985,2394.686230799998,2396.2015047000023,2401.2199013000063,2401.728027200006,2401.7280322000006,2403.244650599998,2404.261161500006,w,23,0.5081258999998681,1,+1,802,-11.472172100366189,0.03839596327953032,-0.157679936956177,2390856.0,-28.005820585476194,-0.22474743295565336,0.06051877150628404,2394389.0,-4.9623337198973685,-0.010618457577423523,1.2555789308877754,2401431.0,2396.1954933500015,2392.6624933500016,2403.2374933500014
155,22,20,M,1,3,147.0,33,2,low,9 + 4 + 5 + 1 - 1,18,17,19,18,2405.778018099998,2407.8040614000056,2409.3192923000024,2414.338248,2415.1200402999966,2415.1200454000063,2416.636666899998,2417.653474000006,e,18,0.7817922999965958,1,+1,803,32.13443521704486,-0.019841755191944088,-0.3203129875573447,2403973.0,-23.14301672968696,-0.24723037905483913,0.04208789681905922,2407508.0,26.06711026014227,0.15474131790990553,-0.0027201224563975224,2414823.0,2409.314493350001,2405.7794933500013,2416.629493350001
156,22,20,M,1,3,148.0,34,1,high,6 + 9 + 1 + 1 - 1,16,15,14,16,2419.170299300007,2421.1969522,2422.712125899998,2427.7301740999974,2428.4399856999958,2428.4399906000035,2429.9572548,2430.974725399996,e,16,0.70981159999792,1,+10,813,-19.915323663203676,-0.41231109916148156,-0.08929874570082807,2417367.0,-9.08359985528703,-0.13856003660146898,-0.05604326921149938,2420900.0,9.722786708991737,0.3860548268944548,2.70118348912726,2468287.0,2422.7064933500014,2419.1734933500015,2470.093493350001
157,22,20,M,1,3,149.0,35,3,low,5 + 7 + 1 - 4 + 6,15,13,15,17,2432.4915346000053,2434.515018799997,2436.030198499997,2441.048999799997,2441.928058000005,2441.928063200001,2443.4444155999954,2444.4610904,w,15,0.879058200007421,1,+1,814,-13.947332024854909,-0.370691460564732,-0.09113922596361834,2430685.0,5.937499771544113,-0.7583192274913477,-1.897933838205033,2434218.0,0.09594526224944921,0.24143221755630329,0.6790672882524826,2514983.0,2436.024493350001,2432.4914933500013,2516.7894933500015
158,22,20,M,1,3,150.0,36,4,low,5 + 8 - 6 + 7 + 4,18,19,17,18,2445.9777904999937,2448.003934099994,2449.5191816000006,2454.537823100007,2455.240096199996,2455.240101500007,2456.756844100004,2457.773732700007,e,18,0.7022730999888154,1,+1,815,16.070151797398104,0.679377947161476,0.48037679915908305,2444173.0,1.3293572164358665,-1.1544787122237699,-0.16337882757252853,2447707.0,22.682931731300446,0.060049262013717186,-0.15785276811594562,2454943.0,2449.513493350001,2445.979493350001,2456.7494933500016
159,22,20,M,1,3,151.0,37,1,low,7 + 1 + 4 + 1 - 1,12,11,13,12,2459.2904770000023,2461.318463799995,2462.8337067999964,2467.8519909000024,2468.584066800002,2468.5840722,2470.100707100006,2471.117482200003,e,12,0.7320758999994723,1,+1,816,-1.4979987597227913,0.7491157496041758,0.19049991240507103,2457488.0,-27.56916701095874,-0.45148174116508777,-0.17940993120691662,2461021.0,-36.93005640107894,-0.9827346522274532,0.07506607914782659,2759317.0,2462.8274933500015,2459.294493350001,2761.1234933500014
160,22,20,M,1,4,152.0,0,3,high,5 - 1 - 4 + 6 + 7,13,15,14,13,2506.0683619000047,2508.0942815000017,2509.6092264000035,2514.629004000002,2515.280152899999,2515.280158399997,2516.7967336,2517.814133399996,e,13,0.6511488999967696,1,+10,826,5.298746362482469,-0.48047603973724184,-1.096979849581337,2504263.0,26.811574771771355,0.2806642884409163,-0.3097737757225083,2507799.0,13.83647247122899,0.5444476201568906,2.447589177783449,2528095.0,2509.6054933500013,2506.0694933500013,2529.901493350001
161,22,20,M,1,4,153.0,1,3,high,2 - 4 + 9 + 7 + 1,15,16,15,13,2519.330799400006,2521.3563891999947,2522.871096200004,2527.889621399998,2528.3920171000063,2528.3920221000008,2529.908593700005,2530.925836800001,w,15,0.502395700008492,1,+10,836,77.96878490843494,0.09103528377939862,-0.5862573089909073,2517525.0,4.21520176431828,-0.20294622440854782,-1.4005395082176455,2521058.0,-18.43152136627844,0.09772963999535889,0.06077891948279457,2570158.0,2522.8644933500013,2519.3314933500014,2571.9644933500012
162,22,20,M,1,4,154.0,2,4,low,4 + 8 + 9 - 3 + 7,25,24,26,25,2532.442886799996,2534.469135799998,2535.984273199996,2541.002868900003,2541.5841261000023,2541.584131399999,2543.100882800005,2544.1178506,e,25,0.5812571999995271,1,+1,837,10.26845893036026,-0.34586332783843066,-1.2255251565943999,2530638.0,13.732779825089816,0.2769225576079475,0.99826641372912,2534172.0,8.411577261869294,-0.027766228984112074,-0.5923037599543974,2541287.0,2535.9784933500014,2532.4444933500013,2543.093493350001
163,22,20,M,1,4,155.0,3,4,high,3 + 9 - 5 + 6 + 8,21,21,23,22,2545.634951400003,2547.661942599996,2549.177512299997,2554.1974813999987,2557.224131499999,2557.224136699995,2558.740892800008,2559.7582199000026,q,21,3.026650100000552,1,+10,847,9.016876679867801,0.1423177877305548,0.07010530727211917,2543831.0,10.920859077652679,0.04304421628521515,-0.7192828299246572,2547365.0,-2.763761956663693,0.07336079140726759,0.2548180423011175,2556927.0,2549.171493350001,2545.6374933500015,2558.7334933500015
164,22,20,M,1,4,156.0,4,3,low,3 + 1 + 6 - 8 + 9,11,11,12,13,2561.275064100002,2563.300900799993,2564.816158600006,2569.834485600004,2570.4561237000016,2570.4561289999983,2571.9726214999973,2572.989225199999,q,11,0.6216380999976536,1,+1,848,1.5462366267914696,0.0997698697348155,0.11447648312558623,2559470.0,-0.14659504775868726,0.14224227524721433,-0.14223878680986313,2563003.0,19.029183289532384,-0.037008321323744875,-0.007393639810654884,2705630.0,2564.8094933500015,2561.276493350001,2707.4364933500015
165,22,20,M,1,4,157.0,5,4,low,8 + 4 + 7 - 5 - 6,8,8,6,9,2574.506110200004,2576.531673400008,2578.046753600007,2583.065433700001,2583.832145000008,2583.8321502000035,2585.348682900003,2586.366715600001,q,8,0.7667113000061363,1,+1,849,9.540832996850906,0.07495865780846822,0.1819088570898726,2572700.0,-30.24772969382025,0.02053867687875144,-0.06601694677522785,2576234.0,-13.590674356214043,0.007911185186923353,0.023871758453111847,2583535.0,2578.0404933500013,2574.506493350001,2585.341493350001
166,22,20,M,1,4,158.0,6,2,low,5 + 7 - 8 + 1 + 1,6,7,6,8,2587.883587400007,2589.9115417,2591.4267850000037,2596.4451547000062,2597.056097499997,2597.056102799994,2598.5725428000005,2599.5896173000074,w,6,0.6109427999908803,1,+1,850,4.205402208283591,0.24622541805306608,-0.31765200158435425,2586080.0,-3.5709734790020313,0.13728275351571795,-0.9044771849524524,2589614.0,-18.634599939955866,0.08522646663628786,-0.15732693478144633,2596758.0,2591.4204933500014,2587.8864933500013,2598.564493350001
167,22,20,M,1,4,159.0,7,2,high,9 + 4 - 6 + 1 - 1,7,9,8,7,2601.1064030999987,2603.132584200008,2604.647976799999,2609.666889900007,2610.288205200006,2610.288209999999,2611.804486699999,2612.8218571000034,e,7,0.6213152999989688,1,+10,860,12.99485103650439,0.3679401535495497,0.045031591266327275,2599301.0,-34.41952817319142,-0.6767350374744612,-0.21350786200089944,2602835.0,11.46053091224041,-0.8045765839913976,-3.3578739312000976,2609990.0,2604.6414933500014,2601.1074933500013,2611.796493350001
168,22,20,M,1,4,160.0,8,2,low,6 + 1 + 1 + 8 - 9,7,5,7,9,2614.338549399996,2616.3653010999988,2617.880615700007,2622.899027899999,2625.840238400008,2625.840244799998,2627.356801700007,2628.3738189,w,7,2.94121050000831,1,+1,861,-13.211301559205072,-0.20286940890041838,-1.4203449509200627,2612534.0,-0.31568953335642114,0.14536516122551624,1.4070168996584629,2616068.0,-1.8810270722377744,0.06647553291194663,1.15139260408018,2625542.0,2617.8744933500016,2614.3404933500015,2627.3484933500013
169,22,20,M,1,4,161.0,9,2,low,5 + 1 + 7 - 6 + 1,8,7,6,8,2629.8906346000003,2631.9148069999937,2633.4300837000046,2638.4484144000016,2639.0561841000017,2639.056188799994,2640.5725529000047,2641.589518199995,e,8,0.6077697000000626,1,+1,862,8.495088451239567,-0.0009627004373191639,0.03666557645504365,2628083.0,-21.798717432726697,0.00025039434722606835,0.0656174860840999,2631617.0,5.42621238483593,0.02683932250751675,0.10675879046877945,2638758.0,2633.4234933500015,2629.8894933500014,2640.564493350001
170,22,20,M,1,4,162.0,10,4,low,7 + 6 - 9 + 8 - 3,9,8,7,9,2643.1064537000057,2645.1327685,2646.6479909000045,2651.666400000002,2652.2801069999987,2652.280111900007,2653.795845300003,2654.8126350999955,e,9,0.6137069999967935,1,+1,863,7.124652619386764,0.6221229142560285,-0.07191382882194408,2641301.0,23.820393247367374,0.15154602611456536,0.009510419326986153,2644835.0,-3.005135704261459,0.1417628968947675,0.29579747498810627,2651981.0,2646.6414933500014,2643.1074933500013,2653.7874933500016
171,22,20,M,1,4,163.0,11,2,low,7 + 6 + 1 - 1 - 8,5,4,5,3,2656.329508099996,2658.356435599999,2659.8722602000053,2664.890639400008,2665.3522554999945,2665.352260600004,2666.868965800008,2667.8855068999983,w,5,0.4616160999867134,1,+1,864,-29.976699748260938,0.18214532684717377,-0.22753736639294275,2654525.0,15.141414025057948,0.306186781457902,0.022800154535441486,2658059.0,0.3166485934895462,0.3758688248642146,-0.061719842752433696,2665054.0,2659.8654933500015,2656.3314933500014,2666.8604933500014
172,22,20,M,1,4,164.0,12,2,high,3 + 8 - 5 + 1 + 1,8,6,9,8,2669.402436400007,2671.427028499995,2672.942363900001,2677.9614755000075,2678.656272399996,2678.6562776000064,2680.172743899995,2681.190037499997,e,8,0.6947968999884324,1,+10,874,-48.13037435497752,-0.0687635944986753,0.092493833677048,2667595.0,6.937804849418088,0.02502547869116234,0.16141902312407885,2671130.0,15.335301875977176,0.13063784665667222,-0.04288003042208266,2678358.0,2672.9364933500015,2669.401493350001,2680.1644933500015
173,22,20,M,1,4,165.0,13,2,low,2 + 1 + 9 - 4 + 1,9,11,9,8,2682.7068665999977,2684.734562700003,2686.249646700002,2691.2684993000003,2692.632262500003,2692.6322678,2694.148771699998,2695.1654258000053,w,9,1.3637632000027224,1,+1,875,-15.690438155948478,0.13168774374674808,-0.025387749500051404,2680903.0,1.9357244931213806,0.07061960325174454,-0.018735877027449943,2684436.0,12.974684953736698,-0.02510639681071103,0.08337755604781227,2692334.0,2686.2424933500015,2682.709493350001,2694.140493350001
174,22,20,M,1,4,166.0,14,3,high,4 + 8 - 9 + 1 + 7,11,13,9,11,2696.682021300003,2698.707631700003,2700.2228009999963,2705.2430961000064,2705.9282317000034,2705.928237,2707.445110400004,2708.4625049000024,e,11,0.685135599997011,1,+10,885,20.783139547934375,-0.14142780931573662,-0.03198237809421678,2694875.0,-5.032882889691887,-0.3469588392663796,-0.19807762110521576,2698411.0,49.19908424284577,0.15648785485738048,0.15435551747518272,2718661.0,2700.2174933500014,2696.6814933500013,2720.4674933500014
175,22,20,M,1,4,167.0,15,3,low,2 + 9 - 3 + 4 + 1,13,14,13,11,2709.979304799999,2712.0027779999946,2713.5175744000007,2718.536229400008,2718.960256300008,2718.960261400003,2720.4767231000005,2721.4931152000063,w,13,0.4240269000001717,1,+1,886,-15.328342304819099,0.04709808950514516,0.08291361950480636,2708171.0,10.903228087895801,0.23770398532698067,0.12130822389172757,2711704.0,-6.852642713875365,0.07616516195816425,0.02215555687641979,2732686.0,2713.5104933500015,2709.977493350001,2734.4924933500015
176,22,20,M,1,4,168.0,16,3,high,3 + 8 - 7 + 1 + 9,14,14,12,13,2723.009437200002,2725.035621200004,2726.550838299998,2731.5692652,2732.9842231000075,2732.984228000001,2734.500841600005,2735.5190402000007,q,14,1.414957900007721,1,+10,896,12.8265401246944,0.17258863822430182,0.4420436411056301,2721203.0,23.5324801978511,0.23648743387111004,0.08490886165426126,2724737.0,-8.662025939148226,-0.010817574792743034,0.03050467054892736,2746189.0,2726.5434933500014,2723.0094933500013,2747.995493350001
177,22,20,M,1,4,169.0,17,3,low,2 + 1 + 9 - 5 + 6,13,13,14,11,2737.0370769,2739.0635282000003,2740.5784874999954,2745.5967529000045,2746.488224700006,2746.4882292999973,2748.004641000007,2749.0213484999986,q,13,0.8914718000014545,1,+1,897,10.663748857627413,-0.0543469759952262,-0.0544269184353694,2735231.0,-16.500781001439748,0.14824412723436153,-0.02338386928556835,2738764.0,-27.932162616795427,-0.35825800071126146,-0.175453251912969,2773110.0,2740.5704933500015,2737.0374933500016,2774.9164933500015
178,22,20,M,1,4,170.0,18,1,low,7 - 1 + 9 + 1 - 1,15,14,15,13,2750.5382794000034,2752.5656764000014,2754.081619699995,2759.0997556000075,2759.6161881000007,2759.6161928999936,2761.132884999999,2762.149917700008,w,15,0.5164324999932433,1,+1,898,7.840642420300934,0.08260024591726078,0.0034538540563819886,2748733.0,3.110866909072165,0.12135697110671773,0.06261755781963929,2752268.0,0.8068836578875374,-0.02641399117021037,0.037969308180638706,2799709.0,2754.0744933500014,2750.5394933500015,2801.515493350001
179,22,20,M,1,4,171.0,19,3,high,3 + 1 + 8 - 5 + 9,16,15,17,16,2763.666813899996,2765.692023900003,2767.207257300004,2772.225676899994,2773.408371900005,2773.408377,2774.925136799997,2775.9426266999944,e,16,1.1826950000104262,1,+10,908,-20.486732175872497,-0.10471111053939963,0.04826426400524553,2761860.0,-13.569355722003078,-0.09050385501997105,-0.07706863799656771,2765393.0,-5.530559599701636,0.11025193947253076,0.04515698151259384,2786413.0,2767.1994933500014,2763.6664933500015,2788.2194933500014
180,22,20,M,1,4,172.0,20,3,low,2 + 1 + 9 - 7 + 6,11,12,11,13,2777.4594440999936,2779.4831302999955,2780.9980128000025,2786.016742299995,2786.7122804999963,2786.7122857000068,2788.2286124999955,2789.2456577999983,w,11,0.6955382000014652,1,+1,909,13.978141363272206,1.6124917784066213,0.4883125191520781,2775651.0,17.303267171850944,0.10869911503740637,-0.19608456474636204,2779184.0,15.325179131320628,-0.46973651183366316,-0.050950812416021174,2853445.0,2780.9904933500015,2777.457493350001,2855.2514933500015
181,22,20,M,1,4,173.0,21,1,low,8 + 1 + 4 + 1 + 1,15,14,15,16,2790.762661600005,2792.786808100005,2794.301998199997,2799.3199305000016,2800.008289499994,2800.008294500003,2801.5249843000056,2802.541950800005,w,15,0.688358999992488,1,+1,910,12.878741495116273,0.010404939301688954,0.024692896981450607,2788954.0,16.711154672917438,0.009583273677080228,0.028687327117929984,2792487.0,-7.271164178838411,0.011124410681633057,-0.05356315941908796,2813061.0,2794.2934933500014,2790.7604933500015,2814.8674933500015
182,22,20,M,1,4,174.0,22,1,high,3 + 1 + 1 + 9 - 1,13,14,13,12,2804.059036000006,2806.087086600004,2807.6023357999948,2812.6209105000016,2813.360241400005,2813.3602469000034,2814.876845699997,2815.894179900002,w,13,0.7393309000035515,1,+10,920,-15.102617130751701,0.025628344001321635,-0.15404657901012553,2802255.0,18.86983478906149,-0.07792406273139196,-0.05924711207820832,2805788.0,5.229415121604453,0.36795534389245477,13.549510786558107,2826446.0,2807.5944933500014,2804.0614933500015,2828.2524933500013
183,22,20,M,1,4,175.0,23,1,high,2 + 1 + 9 + 1 - 1,12,11,12,13,2817.4107582,2819.434337800005,2820.9496580999985,2825.968030000004,2826.744288300004,2826.744293700001,2828.260898099994,2829.2783921999944,w,12,0.776258300000336,1,+10,930,-56.8579544381934,0.07466709832680052,0.1368360045671393,2815602.0,11.861063394858235,0.17706209503404047,-0.37495720649876296,2819135.0,-2.2853078868295604,0.35609966792677294,-0.060071170867550316,2947613.0,2820.9414933500016,2817.408493350001,2949.419493350001
184,22,20,M,1,4,176.0,24,2,high,8 + 1 + 4 - 7 + 1,7,7,5,6,2830.7952875000046,2832.819665999996,2834.334499799996,2839.352979100004,2840.5122547000065,2840.5122595,2842.029173899995,2843.046518500006,q,7,1.1592756000027291,1,+10,940,7.976918402408368,0.2405202306239067,-0.03746023373478735,2828987.0,15.540171886119447,0.9111557590635941,0.05958167061822173,2832520.0,10.832878008370075,0.5862212689883874,0.0540006771042183,2840214.0,2834.3264933500013,2830.7934933500014,2842.0204933500013
185,22,20,M,1,4,177.0,25,3,low,2 + 1 + 9 - 4 + 6,14,16,14,15,2844.563239700001,2846.592933100008,2848.1083184000017,2853.126820000005,2853.7445043000043,2853.744510000004,2855.261075400005,2856.2780447999976,w,14,0.6176842999993823,1,+1,941,-18.04383386528191,6.3473761853985025,8.055753552405553,2842759.0,6.934582599774632,-0.38695209767176086,-0.6911496557125849,2846294.0,8.026765730246565,-0.2109018328366279,0.5149539291578713,2894037.0,2848.100493350001,2844.5654933500014,2895.843493350001
186,22,20,M,1,4,178.0,26,4,low,3 + 8 - 7 + 9 - 5,8,8,7,9,2857.794991899995,2859.821323199998,2861.336658700005,2866.3568765999958,2867.5204920999968,2867.5204972000065,2869.0372645000025,2870.054652299994,q,8,1.1636155000014696,1,+1,942,10.372373829496663,-0.0468763525751319,0.007920835561070483,2855989.0,-28.194019451651254,0.3515946710065463,0.0989797008498845,2859524.0,15.241546613274812,0.06097580973247929,0.024378204153571836,2867222.0,2861.3304933500012,2857.7954933500014,2869.0284933500016
187,22,20,M,1,4,179.0,27,4,low,7 + 8 - 4 + 6 + 5,22,21,23,22,2871.5714508999954,2873.595600000001,2875.1105913000065,2880.1292637000006,2880.9043558999983,2880.9043608000065,2882.420784899994,2883.437466899996,e,22,0.7750921999977436,1,+1,943,-1.5189186973571758,-0.12938244042558367,0.24033598735321737,2869763.0,-22.110295904873432,-0.5670455094513991,0.09568116892417722,2873296.0,-6.241145537957474,1.3269133005727376,-0.14723700002161833,2880605.0,2875.102493350001,2871.5694933500013,2882.4114933500014
188,22,20,M,1,4,180.0,28,3,high,7 - 1 + 8 - 6 + 4,12,12,11,13,2884.954313299997,2886.9813405000023,2888.496668100008,2893.5157420000032,2894.336297600006,2894.3363025,2895.8527220999968,2896.870074200008,q,12,0.8205556000029901,1,+10,953,15.054214752348589,0.08360106145886181,0.04341534839040295,2883148.0,23.370872272226787,-0.5323332333703368,0.09240570574866958,2886683.0,0.21189242697728972,0.18007708582149728,-0.7003816110476819,2961029.0,2888.4894933500013,2884.9544933500015,2962.8354933500013
189,22,20,M,1,4,181.0,29,2,high,4 + 8 + 1 + 1 - 6,8,9,8,7,2898.386912800008,2900.414235300006,2901.929164000001,2906.947270500008,2907.3763833999983,2907.376388000004,2908.893125899994,2909.9103785000043,w,8,0.4291128999902867,1,+10,963,-16.1904855162107,0.27010938242250493,-0.2046630495224122,2896581.0,-28.106001542683885,0.19377667050995395,-0.30218478645616886,2900114.0,5.036856577134749,0.3229830620089089,0.006774851864305154,2907077.0,2901.9204933500014,2898.3874933500015,2908.8834933500016
190,22,20,M,1,4,182.0,30,2,high,2 + 9 - 4 + 1 + 1,9,9,11,8,2911.4274114,2913.450638099996,2914.965939600006,2919.9843746999977,2921.1924169999984,2921.1924221999943,2922.708802699999,2923.726460300008,q,9,1.2080423000006704,1,+10,973,15.880003573829676,0.23110226332676387,-0.07326300477448355,2909618.0,5.115131003509234,-0.24606080530780883,-0.013680765899543479,2913151.0,-24.898280035238688,0.3668989122958255,0.034419758620329644,2920893.0,2914.957493350001,2911.4244933500013,2922.6994933500014
191,22,20,M,1,4,183.0,31,4,high,3 + 8 - 4 + 9 + 6,22,22,21,23,2925.2433555000025,2927.2704367999977,2928.7855843,2933.803681000005,2934.6643900000054,2934.664394899999,2936.1810071000077,2937.198856899995,q,22,0.8607090000004973,1,+10,983,6.872749550188566,0.6803670029910522,-0.016317079600928652,2923437.0,-19.598813174120206,-0.5337817553882127,-0.016070069513304475,2926970.0,-14.375358544053489,0.21987575038093432,0.01343375084792453,2934365.0,2928.776493350001,2925.2434933500012,2936.171493350001
192,22,20,M,1,4,184.0,32,1,low,6 + 1 + 1 + 9 - 1,16,15,16,14,2938.715783000007,2940.7417466000043,2942.2579327999997,2947.2763829000032,2947.912439000007,2947.912444100002,2949.429075100008,2950.445810400008,w,16,0.6360561000037706,1,+1,984,27.24750256345841,0.28546979022880414,0.03269121706137734,2936908.0,9.66349302359091,0.2575253703115381,-1.0409254915668318,2940443.0,20.273319342376038,0.03686856177890441,-0.04448022940402385,2974605.0,2942.2494933500016,2938.7144933500012,2976.4114933500014
193,22,20,M,1,4,185.0,33,3,low,7 - 1 + 9 - 5 + 4,14,14,15,13,2951.9624449999974,2953.9877132999973,2955.502960400001,2960.521683900006,2961.328360200001,2961.328364999994,2962.8451742000034,2963.8628796999983,q,14,0.8066762999951607,1,+1,985,20.968195705399424,-0.0500806532334277,-0.055293240837281266,2950155.0,-2.2801752257484225,0.7378702254276641,-0.037198737836525275,2953688.0,-6.968090618899161,0.37336274475084785,-0.01418197598398363,3001124.0,2955.4944933500014,2951.9614933500015,3002.930493350001
194,22,20,M,1,4,186.0,34,1,high,7 - 1 + 1 + 9 - 1,15,15,14,13,2965.3797082999954,2967.403809700001,2968.919054500002,2973.9373771999963,2974.904402100001,2974.9044074999983,2976.420988700004,2977.438275099994,q,15,0.9670249000046168,1,+10,995,-4.5317557046233325,-0.23342763741407868,0.40912096332262493,2963570.0,26.410832174884945,0.1447986733909632,-0.4037472131098405,2967104.0,-38.71400171113065,0.21583267146580987,-0.6284536995449685,3014388.0,2968.910493350001,2965.3764933500015,3016.1944933500013
195,22,20,M,1,4,187.0,35,3,low,7 - 5 + 9 + 1 - 4,8,8,7,9,2978.9553460000025,2980.981567099996,2982.496788200005,2987.515228899996,2988.2564013999945,2988.2564067000058,2989.773115899996,2990.7904503000027,e,9,0.7411724999983562,0,+0,995,9.980866756405513,0.7076860587272096,0.2181517065789189,2977148.0,21.877355816244688,0.05269953099238833,0.04959872956726619,2980682.0,-8.889298830299596,0.15742939609452744,-0.006885948996914415,3058213.0,2982.488493350001,2978.9544933500015,3060.0194933500015
196,22,20,M,1,4,188.0,36,3,high,6 + 7 + 8 + 1 - 9,13,15,13,14,2992.3066146000056,2994.332151900002,2995.8475186,3000.8659311999945,3001.424417000002,3001.424421600008,3002.9407530000026,3003.958266700007,w,13,0.5584858000074746,1,+10,1005,21.889067769405695,0.6969734691196106,0.07825354890967828,2990498.0,34.793952168323315,-0.11846511092260581,-0.03594983648263361,2994032.0,,,,,2995.8384933500015,2992.3044933500014,
197,22,20,M,1,4,189.0,37,1,high,3 + 1 + 1 + 8 - 1,12,13,14,12,3005.474804199999,3007.501485300003,3009.0168794000056,3014.034924199994,3014.688412000003,3014.688416899997,3016.2044733000075,3017.2218492999964,e,12,0.6534878000093158,1,+10,1015,7.754945274931972,0.3256944409774114,-0.02199860471231241,3003668.0,18.08033082532461,-0.23302309977647617,-0.013283484955469715,3007201.0,,,,,3009.0074933500014,3005.4744933500015,
198,22,20,M,1,5,190.0,0,2,high,9 + 5 - 6 + 1 - 1,8,8,7,9,3035.6206045,3037.646558499997,3039.161859,3044.1810717000044,3044.784452599997,3044.784457999994,3046.301070200003,3047.318326499997,q,8,0.6033808999927714,1,+10,1025,3.5304645492055706,0.45531524887398156,0.7345430506203936,3033813.0,-3.424913247851787,0.43999624684948735,-0.643533215581142,3037347.0,5.8848584389155025,0.11205722002192076,-0.4034117628211469,3044484.0,3039.1534933500016,3035.6194933500014,3046.2904933500013
199,22,20,M,1,5,191.0,1,3,high,3 + 8 - 7 - 1 + 9,12,14,12,13,3048.835095200004,3050.861548900008,3052.3767626000044,3057.3967682999937,3058.512480300007,3058.5124853000016,3060.029416300007,3061.0468606000068,w,12,1.1157120000134455,1,+10,1035,-8.593043694029802,0.8826522390554885,-0.38607115582161544,3047027.0,-0.5681184407691244,0.33364894485269936,0.05159909902480564,3050563.0,,,,,3052.3694933500014,3048.8334933500014,
