,id,age,sex,cued,block,trial,trialinblock,efflev,rewlev,calc,corAns,option1,option2,option3,tstart,ITI1Time,probTime,respTime,selectTime,ITI2Time,fbTime,ITI3Time,key_press,chosenAns,RT,acc,feedback,total_points,cuescr,cuecor,cuezyg,cuetime,probscr,probcor,probzyg,probtime,fbscr,fbcor,fbzyg,fbtime,probtime_c,cuetime_c,fbtime_c
0,24,26,f,0,Practice,,0,1,0,4 + 1 + 9 + 1 + 1,16,14,15,16,53.96292789999279,,53.9629310000164,58.990111099992646,64.98295470001176,64.98296120000305,66.50002350000432,67.52093160001095,e,16.0,5.992843600019114,1,Correct,0,,,,,10.75705672532023,-0.8213416899169168,0.12979037590390474,53226.0,-0.1304434078981931,0.3797336787049419,0.30049712777948967,65757.0,53.980638580003635,,66.51163858000365
1,24,26,f,0,Practice,,1,1,0,3 + 1 + 1 + 8 - 1,12,10,12,11,69.03759980000905,,69.03760320000583,74.05862110000453,76.26302889999351,76.2630366999947,77.77984659999493,78.7976548000006,w,12.0,2.204407799988985,1,Correct,0,,,,,-5.718457828445111,-0.032738131314065555,0.9236926859766657,68295.0,13.414091436331145,0.5963216837988057,4.328953398044041,77034.0,69.04963858000364,,77.78863858000365
2,24,26,f,0,Practice,,2,2,0,8 + 1 + 6 + 1 - 4,12,12,11,10,80.31544440001016,,80.31545120000374,85.33538490001229,86.82300410000607,86.8230104999966,88.33998300001258,89.35829589999048,q,12.0,1.4876191999937871,1,Correct,0,,,,,10.927995284986412,-0.41039761250249995,-0.7395225352013748,79571.0,-40.142446791943264,-0.6466233332559979,-0.053018196465719925,87594.0,80.32563858000364,,88.34863858000364
3,24,26,f,0,Practice,,3,2,0,9 + 4 - 6 + 1 - 1,7,5,6,7,90.8755327000108,,90.8755361000076,95.89575880000484,97.22297870001056,97.22298550000414,98.73972810001578,99.7568670999899,e,7.0,1.32721990000573,1,Correct,0,,,,,-14.29177495873866,-0.2293679442680343,-0.15595819289240964,90132.0,26.269877458046636,-0.2112358719148828,-0.1435169002730019,97993.0,90.88663858000365,,98.74763858000364
4,24,26,f,0,Practice,,4,3,0,9 + 3 - 5 + 6 + 7,20,20,21,22,101.27364620001754,,101.27365000001735,106.29263169999469,113.51107279999997,113.51107929999124,115.02798089999123,116.04825700001676,w,21.0,7.218441100005293,0,Incorrect,0,,,,,-18.366418993027878,0.1836460328121028,-0.05585380960659414,100529.0,35.97662964880428,-0.7481330538798057,0.5546456203824648,114284.0,101.28363858000364,,115.03863858000365
5,24,26,f,0,Practice,,5,3,0,2 + 1 + 9 - 7 + 6,11,9,11,10,117.56531589999211,,117.56531920001726,122.58488159999251,128.7510667000024,128.75107309999294,130.26902269999846,131.28698060000897,w,11.0,6.166185100009898,1,Correct,0,,,,,-32.32178629456909,0.07425842672007299,-0.21554074145076996,116821.0,-21.835108634360388,-0.1923423771559971,-0.12208327128548735,129523.0,117.57563858000364,,130.27763858000364
6,24,26,f,0,Practice,,6,4,0,4 + 8 + 5 - 3 + 7,21,23,21,22,132.80423840001458,,132.8042422000144,137.8247274000023,141.48708029999398,141.48708660001284,143.004179200012,144.02207949999138,w,21.0,3.6623528999916735,1,Correct,0,,,,,16.560823141155947,0.15096477337006853,0.07519396460650096,132060.0,21.794367183667916,-0.38419849370110715,0.009014441680943897,142258.0,132.81463858000365,,143.01263858000365
7,24,26,f,0,Practice,,7,4,0,5 + 8 - 4 + 6 + 9,24,22,23,24,145.5390224000148,,145.53902610001387,150.55911090000882,152.91095530000166,152.91096229999675,154.42791510000825,155.44623739999952,e,24.0,2.3518443999928422,1,Correct,0,,,,,15.803207237838265,0.5783942256923176,0.15716176779887459,144794.0,20.12767474558109,-0.2900829670289795,-0.026511180299315207,153682.0,145.54863858000365,,154.43663858000363
8,24,26,f,1,0,0.0,0,4,high,3 + 9 - 5 + 6 + 8,21,23,22,21,244.70073740000956,246.7282504000177,248.24354490000405,253.26183030000536,255.1887424000015,255.1887473000097,256.70543140001246,257.72256660001585,e,21.0,1.926912099996116,1,+10,10,21.54637307351237,0.5219584874606751,-0.31194604556834715,243963.0,11.443281530371129,-0.5692630236135043,0.7565471222674875,247497.0,-13.7214992415556,-0.880756447610973,0.1156232299820874,255958.0,248.25163858000366,244.71763858000364,256.7126385800036
9,24,26,f,1,0,1.0,1,4,low,5 + 7 - 4 - 6 + 9,11,13,12,11,259.2393332000065,261.26626810000744,262.7815300000075,267.8000188000151,269.044745399995,269.04475070000626,270.5609991000092,271.577809600014,e,11.0,1.2447265999799129,1,+1,11,25.061516925638223,-0.06623446890613494,0.1596216639597272,258501.0,5.021243435838331,-0.00693789313130555,0.34699606788886506,262035.0,-7.6355395611747205,0.05833292577140359,0.19764749907832302,269813.0,262.78963858000367,259.2556385800036,270.56763858000363
10,24,26,f,1,0,2.0,2,3,high,7 - 1 + 8 - 6 + 4,12,12,13,11,273.09455919999164,275.11978139998973,276.6350367999985,281.6536649999907,285.388721299998,285.3887265000085,286.90517300000647,287.92165810000733,q,12.0,3.735056300007273,1,+10,21,-27.884103480890087,-0.2685506909207467,0.08723174501036368,272354.0,19.25706617554165,-0.11344223247403562,0.6329743573205744,275888.0,3.18401652360682,0.04754063409623921,1.6494954931234052,286157.0,276.6426385800036,273.1086385800036,286.9116385800036
11,24,26,f,1,0,3.0,3,3,low,6 + 7 + 8 + 1 - 9,13,13,15,14,289.4387202000071,291.4619946000166,292.97807390001253,297.99836580001283,301.02079480001703,301.0208000999992,302.5373448000173,303.55429770000046,q,13.0,3.0224290000041947,1,+1,22,-9.372201335153287,1.025334424848662,-0.6895309776672742,288697.0,6.692833327630968,-0.754611356181675,0.25569355968641183,292233.0,13.900151992772898,0.274750861386587,0.05524936846537676,301789.0,292.98763858000365,289.45163858000365,302.54363858000363
12,24,26,f,1,0,4.0,4,1,high,2 + 1 + 9 + 1 + 1,14,14,13,12,305.07126530000824,307.0928100000019,308.6080326999945,313.62608190000174,315.1487713000097,315.1487766999926,316.66575909999665,317.6830287000048,q,14.0,1.5226894000079485,1,+10,32,-7.5996065206045635,-0.329533413911947,0.25880941701296667,304327.0,10.0627068072189,-0.7888260847691306,0.024369084020918308,307861.0,-2.2884234497034015,2.4032654499126984,8.904240989904924,315917.0,308.61563858000363,305.08163858000364,316.6716385800036
13,24,26,f,1,0,5.0,5,2,low,8 + 1 + 9 + 1 - 5,14,15,13,14,319.199818699999,321.22410220000893,322.7394772999978,327.75765790001606,329.0207381999935,329.02074330000323,330.5372831000132,331.5540866999945,e,14.0,1.263080299977446,1,+1,33,-10.99497290775243,-0.23576663416107024,-0.01698631972739717,318458.0,4.437105832358572,-0.22161532220302949,-0.1247854799739323,321992.0,-9.652572246171072,0.0538207052269879,-0.3219314843139056,329788.0,322.74663858000366,319.21263858000367,330.54263858000365
14,24,26,f,1,0,6.0,6,4,high,6 + 9 + 7 - 3 - 5,14,12,13,14,333.0707420000108,335.09590350001235,336.6111833000032,341.6297184000141,342.97276090001105,342.9727672000008,344.48949070001254,345.5072011000011,e,14.0,1.3430424999969546,1,+10,43,25.10637798131356,0.08244449618904515,-0.02673217553278917,332330.0,8.287056001289399,0.4114873394897698,0.07887065085144496,335864.0,-0.2794655598254572,0.44119096883656717,0.019636552553782938,343741.0,336.6186385800036,333.0846385800036,344.49563858000363
15,24,26,f,1,0,7.0,7,2,high,3 - 1 + 9 - 5 + 1,7,7,5,6,347.02408780000405,349.05131509999046,350.5667467000021,355.5845898000116,356.75680699999793,356.7568122000084,358.27328500000294,359.2907300000079,q,7.0,1.172217199986335,1,+10,53,-19.468000936409567,-0.5356990112658133,0.0003747854701301456,346285.0,6.830190620963889,0.24642609856728193,0.19422612931979133,349819.0,-5.321886428036965,-0.20295013854149957,0.08281518627635798,357525.0,350.57363858000366,347.03963858000367,358.2796385800036
16,24,26,f,1,0,8.0,8,1,low,6 + 1 + 1 + 9 - 1,16,14,15,16,360.8078924000147,362.8339608999959,364.3492004,369.37378200000967,370.84472480000113,370.84472990001086,372.3615023000166,373.3785147000162,e,16.0,1.4709427999914624,1,+1,54,-0.5988970294790583,-0.16337352890000112,-0.07825906927461856,360068.0,-20.205670251936198,-0.18544493034771659,0.014192878771949857,363608.0,-49.61342448253231,0.0567601276624643,0.053305548637265776,371612.0,364.36263858000365,360.8226385800036,372.36663858000367
17,24,26,f,1,0,9.0,9,3,high,8 + 5 + 1 - 7 + 9,16,16,14,17,374.8955304000119,376.9228776000091,378.4380369000137,383.45646940000006,384.78082809998887,384.7808329999971,386.2972853000101,387.3147631000029,q,16.0,1.3243586999888066,1,+10,64,-16.9413898885631,0.45785781170938833,0.5879077623846307,374157.0,-18.70184980540932,0.16566645132613989,0.24546089693901862,377690.0,12.604940277590474,0.4935937474315466,0.9501784789498147,385549.0,378.44463858000364,374.9116385800036,386.3036385800036
18,24,26,f,1,0,10.0,10,3,low,5 + 1 + 7 - 8 + 6,11,9,13,11,388.8315404000168,390.8554031999957,392.3706461999973,397.38920370000415,398.5488386999932,398.5488438000029,400.06487520001247,401.0815580000053,e,11.0,1.1596349999890665,1,+1,65,-1.321874731465467,0.24509503478721673,-2.016076616531425,388089.0,-9.088480567181946,-0.26775231815774614,-0.23721038198914401,391623.0,38.57526720465685,0.1731640344923182,0.17745510661674047,399316.0,392.37763858000363,388.84363858000364,400.0706385800036
19,24,26,f,1,0,11.0,11,4,high,5 + 8 - 6 + 7 + 4,18,18,17,19,402.5984414000122,404.6234922000149,406.1386812000128,411.1576291999954,412.5248835000093,412.5248886999907,414.041226100002,415.0578561000002,q,18.0,1.367254300013883,1,+10,75,-6.444816683464952,0.5100017125471994,-0.07164002439028216,401858.0,2.688285264166918,-0.7367897792607887,0.12446553913511771,405391.0,39.01676110357937,-0.5051050301558426,0.10831983590958583,413292.0,406.14563858000366,402.61263858000365,414.0466385800036
20,24,26,f,1,0,12.0,12,1,high,7 - 1 + 8 + 1 - 1,14,12,13,14,416.5748166000121,418.600809399999,420.1160181000014,425.13456470001256,426.3728743999964,426.3728792000038,427.88950789999217,428.9071126999916,e,14.0,1.2383096999838017,1,+10,85,3.509613668096514,-0.3952831672932797,-0.054245427968028004,415834.0,-25.87161855519184,-0.20846236859344724,-0.042824328497098385,419368.0,5.106374915864876,0.3856488216153644,-0.011805483089123214,427141.0,420.12263858000364,416.58863858000365,427.89563858000366
21,24,26,f,1,0,13.0,13,1,high,7 + 1 + 4 + 1 - 1,12,12,13,11,430.42367009999,432.449861400004,433.9651783000154,438.9840039999981,440.08482479999657,440.0848300000071,441.601427000016,442.6185682000069,q,12.0,1.1008207999984734,1,+10,95,12.03030587676825,-0.824886893511688,0.13105621497703934,429683.0,5.127105853903285,0.0940857825137611,0.023253385684927075,433217.0,31.249845859430344,0.39800383641958614,-0.15977442773386064,440852.0,433.9716385800036,430.43763858000364,441.6066385800036
22,24,26,f,1,0,14.0,14,1,low,7 + 1 + 6 + 1 + 1,16,18,16,17,444.1354155000008,446.1625774000131,447.6777918000007,452.695790400001,453.78909209999256,453.78909860001295,455.3051967000065,456.32152679999126,w,16.0,1.0933016999915708,1,+1,96,32.20159249755337,0.5797281972884214,-0.11781908576390743,443395.0,-35.77798027915691,0.3164105634520489,0.15552805385675872,446929.0,-0.9093107218370953,0.07827523432045691,0.44233035123744546,454556.0,447.6836385800036,444.1496385800036,455.3106385800036
23,24,26,f,1,0,15.0,15,2,high,4 + 8 + 1 + 1 - 5,9,11,8,9,457.83881000001566,459.8645488999901,461.37993709999137,466.3992322999984,467.5008813000168,467.5008863999974,469.01730400000815,470.0345281999908,e,9.0,1.1016490000183694,1,+10,106,22.313924112618864,-0.08686522342559666,-0.022393284478271713,457098.0,7.713261125775611,-0.36733319498390404,0.00014213668096818566,460633.0,30.705492185993684,0.1681754512980862,-0.025589577302529865,468268.0,461.3876385800036,457.85263858000366,469.0226385800036
24,24,26,f,1,0,16.0,16,1,high,8 + 1 + 5 + 1 + 1,16,16,17,15,471.55158699999447,473.5757522000058,475.0909568000061,480.1099454000069,481.2527929999924,481.2527974999976,482.769034099998,483.7862499000039,q,16.0,1.1428475999855436,1,+10,116,-8.751931645025046,0.011741894727720137,0.11594340607605469,470809.0,6.163499938954239,0.42923923642575446,-0.08301778261261528,474343.0,-5.872631337741957,-0.18064466909907217,-0.007276872919171673,482020.0,475.09763858000366,471.56363858000367,482.7746385800036
25,24,26,f,1,0,17.0,17,1,high,8 + 1 + 4 + 1 + 1,15,14,15,16,485.3031189000176,487.3253693000006,488.8405473000021,493.85880489999545,494.8049153999891,494.8049202999973,496.3214835000108,497.3390809000121,w,15.0,0.9461104999936653,1,+10,126,-19.901825898481693,-0.5964766269446846,-0.1433673014356982,484558.0,12.109595396785853,0.08397390201778698,-0.09652462344455826,488092.0,17.96849811764411,0.020115288181110635,0.05606718249092002,495572.0,488.8466385800036,485.31263858000364,496.32663858000365
26,24,26,f,1,0,18.0,18,4,high,3 + 9 - 5 + 8 - 7,8,8,7,9,498.8555902999942,500.8774263999949,502.3924988000072,507.411188099999,508.3968395999982,508.3968442000041,509.91326649999246,510.930523499992,q,8.0,0.9856514999992214,1,+10,136,45.19433128348475,-0.08402660715963872,-0.05442199738956455,498111.0,11.234967551753108,-0.09418384409908942,-0.008291689272090785,501644.0,6.341469930826989,0.10328807271608209,0.3465961933582431,509164.0,502.39863858000365,498.86563858000363,509.91863858000363
27,24,26,f,1,0,19.0,19,2,high,9 + 1 + 6 + 7 + 1,24,25,24,23,512.4472934000078,514.474228600011,515.989124899992,521.0072121999983,522.26890190001,522.2689070999913,523.7872541999968,524.8049601000093,w,24.0,1.2616897000116296,1,+10,146,-12.861279687104682,-0.20818580444680324,0.47824050618962133,511707.0,25.33732958714493,-0.2548509210514265,0.11377497660962299,515240.0,31.258826553718805,-0.6004805608915005,-2.6916739845505644,523038.0,515.9946385800037,512.4616385800036,523.7926385800037
28,24,26,f,1,0,20.0,20,1,high,6 + 1 + 8 + 1 + 1,17,17,15,16,526.3216783000098,528.3495001000119,529.8647441999929,534.8829249000119,535.9489740999998,535.9489793000103,537.4655854000011,538.4832786000043,q,17.0,1.0660491999879014,1,+10,156,-15.360667362418113,0.01214363748839542,-0.15741136189927962,525582.0,13.262177953932579,-0.0010388599813815347,0.08178896556014159,529116.0,12.744022237765673,-0.15871850936488396,0.10183629133922212,536716.0,529.8706385800036,526.3366385800036,537.4706385800037
29,24,26,f,1,0,21.0,21,1,high,4 + 9 + 1 - 1 - 1,12,12,11,13,540.0000826000178,542.0216891000164,543.5369280000159,548.5548341000103,549.7649633999972,549.764968500007,551.2824290000135,552.2995391000004,q,12.0,1.210129299986875,1,+10,166,-4.858578599551002,-0.7524016020343218,-0.04826735277705052,539255.0,1.7685853441964436,-0.23121070436945956,-0.12276504343086092,542788.0,-18.857818055468055,0.018296916559878085,0.13597715499287655,550533.0,543.5426385800037,540.0096385800036,551.2876385800037
30,24,26,f,1,0,22.0,22,4,high,6 + 9 - 7 + 8 - 5,11,11,12,13,553.8168804000015,555.8385206999956,557.3543818999897,562.3744764000003,563.4529365999915,563.452941800002,564.9690517999989,565.9864688999951,q,11.0,1.078460199991241,1,+10,176,49.351924552201474,0.2418615152523147,0.06235724320790359,553071.0,30.699809520595473,-0.465420063419959,-0.03841853614470514,556608.0,-3.7306520232853115,0.25298532350723546,0.06678564421428512,564219.0,557.3626385800036,553.8256385800037,564.9736385800037
31,24,26,f,1,0,23.0,23,4,high,3 + 9 - 4 + 7 + 6,21,20,21,19,567.5029012000014,569.5294212000153,571.0448311000073,576.0631273000035,577.0768913000065,577.0768960000132,578.5929888999963,579.6104951000016,w,21.0,1.0137640000029933,1,+10,186,-23.133636610258907,0.010463259015232929,0.11111544421426722,566762.0,5.1033306166851835,0.2383929547077952,-0.04374366394935825,570296.0,21.57465244659792,0.5982448266060043,0.13767945955536365,577843.0,571.0506385800037,567.5166385800036,578.5976385800036
32,24,26,f,1,0,24.0,24,4,low,4 + 7 - 8 + 9 - 4,8,7,9,8,581.127306600014,583.1540961000137,584.6692512000154,589.6878362999996,590.6209073000064,590.6209121000138,592.1373778000125,593.1537156999984,e,8.0,0.9330710000067484,1,+1,187,-4.391209997570286,-0.2534463453865361,-0.11605315566721419,580387.0,17.0990658872181,-0.5633144860909547,0.04549019715657754,583921.0,10.35958689630709,-0.2650385017043746,-0.06013220126009866,591387.0,584.6756385800037,581.1416385800036,592.1416385800036
33,24,26,f,1,0,25.0,25,3,high,8 + 6 - 7 + 1 - 4,4,3,4,5,594.6703430000052,596.6969431999896,598.2121549000149,603.2305882000073,607.8770102999988,607.8770164000161,609.3936583999894,610.4106769000064,q,3.0,4.646422099991469,0,+0,187,-7.027442268088901,0.2933772572258633,-0.10387685031195559,593930.0,15.93885273748053,0.4801985293710054,-0.006378950665986816,597463.0,36.99483784096723,-0.31350548036441594,0.23771957937593857,705843.0,598.2176385800036,594.6846385800036,706.5976385800036
34,24,26,f,1,0,26.0,26,4,high,7 + 8 - 4 + 6 + 5,22,21,23,22,611.9273725000094,613.9490065000136,615.4642053999996,620.4823589000152,621.764960600005,621.764965600014,623.2814464000112,624.2987256000051,e,22.0,1.2826016999897547,1,+10,197,-21.550425170122693,0.4104716478730128,0.1375877564434662,611181.0,0.24627411707369262,-0.11370751157765513,-0.024218096890720187,614715.0,13.936972704446577,0.10541698041253911,0.018547436031433273,622531.0,615.4696385800037,611.9356385800037,623.2856385800036
35,24,26,f,1,0,27.0,27,2,low,4 + 1 + 9 + 1 - 6,9,8,9,7,625.8160538999946,627.8397744999966,629.3550365999981,634.3740091999935,635.7330609000055,635.7330659000145,637.249643099989,638.2664683999901,w,9.0,1.35905170001206,1,+1,198,-5.660505011377781,-0.3721389491088942,0.08708412310469327,625072.0,35.53868220316906,0.28323318986640134,0.20269981926677283,628605.0,7.167958863472604,-0.37084510695587714,0.06291389969854833,636499.0,629.3596385800037,625.8266385800036,637.2536385800037
36,24,26,f,1,0,28.0,28,1,low,7 - 1 + 9 + 1 - 1,15,14,15,13,639.7831977000169,641.8086335000116,643.3239095000026,648.342263700004,649.2689786000119,649.268983499991,650.7855038999987,651.8025005999953,w,15.0,0.9267149000079372,1,+1,199,0.2424350649115845,0.2280222684355353,0.0006648318070283654,639041.0,41.21246589845623,-0.5720289031961237,0.03942889308552555,642575.0,31.773614240204346,0.32092313559412977,0.060461395473477175,650035.0,643.3296385800037,639.7956385800037,650.7896385800036
37,24,26,f,1,0,29.0,29,1,high,5 + 6 + 1 + 1 + 1,14,16,15,14,653.3191664000042,655.3460525000119,656.8612310000171,661.8788714999973,663.1330972000142,663.1331019999925,664.6497134999954,665.6670917000156,e,14.0,1.254225700016832,1,+10,209,25.33715187887726,0.3634962704348581,-0.10046379830543861,652578.0,-1.9610412610495391,-0.9429655297891975,0.037867770792701094,656111.0,-9.572323782611164,0.17168216068071906,0.09907573042696538,663899.0,656.8656385800036,653.3326385800036,664.6536385800036
38,24,26,f,1,0,30.0,30,1,low,3 + 1 + 8 + 1 + 1,14,14,12,13,667.1837614999968,669.2099187000131,670.725093200017,675.7443696999981,677.3410730999894,677.3410777999961,678.8576439000026,679.8745351000107,q,14.0,1.5967033999913838,1,+1,210,-14.037114696751816,0.30630952100830866,-0.07615700194403163,666442.0,20.792390522241547,-0.6359571775337534,-0.06166948462142696,669977.0,-9.677116478430639,0.1908879500873737,0.13113118347643615,678107.0,670.7316385800036,667.1966385800037,678.8616385800036
39,24,26,f,1,0,31.0,31,4,high,7 + 6 - 9 + 8 - 3,9,7,9,8,681.3912962999893,683.4186969000148,684.933926800004,689.9526188000164,691.4450275000127,691.4450321999902,692.9611779999977,693.9784228999924,w,9.0,1.4924086999963038,1,+10,220,-6.739984423220019,0.1285223931761834,-0.21330776292983278,680651.0,-15.26885330304181,-0.7508771783746027,0.004685825381280928,684185.0,5.778654255185674,-0.22795180587717434,0.00011191326191983819,692211.0,684.9396385800036,681.4056385800036,692.9656385800037
40,24,26,f,1,0,32.0,32,3,high,7 - 1 + 8 - 6 + 4,12,13,12,11,695.4956060000113,697.5171327000135,699.0321022999997,704.0506439000019,705.0770590000029,705.0770640000119,706.593743400008,707.610891999997,w,12.0,1.0264151000010315,1,+10,230,-21.003430899100366,0.6827388358508837,0.05366769173925601,694749.0,32.18952960579878,0.03353388047905792,0.05074691688525146,698283.0,8.61949917568896,0.11375352509529124,0.059271117877823576,884483.0,699.0376385800037,695.5036385800037,885.2376385800036
41,24,26,f,1,0,33.0,33,2,low,5 - 8 + 7 + 1 + 1,6,6,8,7,709.1276927000144,711.1542997999932,712.6696752000134,717.6883787999977,721.397028700012,721.3970336999919,722.9137572000036,723.9306564000144,q,6.0,3.70864990001428,1,+1,231,-33.341718487643234,0.30629582077112794,0.0609567230333552,708386.0,-0.5954310582899875,0.47993856296562853,-0.019080613391199597,711920.0,2.4795994643196573,-0.2638724394843921,0.0629587981887203,722162.0,712.6746385800036,709.1406385800036,722.9166385800037
42,24,26,f,1,0,34.0,34,1,high,3 + 1 + 1 + 8 - 1,12,14,13,12,725.4477033000148,727.4705665000074,728.9854934000177,734.0036612999975,734.9491269999999,734.9491319000081,736.4656030999904,737.4828507000057,e,12.0,0.9454657000023872,1,+10,241,12.151022710349702,-0.12070159158398086,0.03567351887689352,724702.0,13.12842964913261,-0.2854678575498859,-0.04117415709007455,728235.0,-13.887865080279894,0.6516473246319818,0.018076178264128995,735715.0,728.9896385800037,725.4566385800036,736.4696385800037
43,24,26,f,1,0,35.0,35,1,low,8 + 1 + 1 + 1 - 4,7,7,5,8,738.9996143000026,741.0261556000041,742.5413321999949,747.5594925000041,750.0531054000021,750.0531106000126,751.5698281000077,752.5867807999894,e,8.0,2.49361289999797,0,+0,241,5.6678142714984,-0.34530815443078744,-0.07337561213569166,738258.0,5.639150542207108,0.20429829326814097,0.07551318113728556,741791.0,14.658857532397352,0.04944459121817424,0.12523823914203858,867690.0,742.5456385800037,739.0126385800037,868.4446385800037
44,24,26,f,1,0,36.0,36,4,low,6 + 5 - 7 + 8 - 9,3,4,5,3,754.104176599998,756.1300727000053,757.6452552000119,762.6652981000079,767.6810514999961,767.6810540000151,769.1976894999971,770.2197852999961,,,,0,Too Slow!,241,-28.155450338528183,0.13559875727133708,0.368105734115344,753362.0,-18.616658254561628,-0.41308434107050784,-0.12104907625362005,756897.0,-36.19905758270613,0.1772602792084479,-0.04238952819065478,768451.0,757.6516385800037,754.1166385800036,769.2056385800037
45,24,26,f,1,0,37.0,37,4,high,6 + 7 + 9 - 3 + 5,24,22,23,24,771.7365334999922,773.7596952000167,775.2749186000146,780.2932661999948,782.6611371999898,782.6611422999995,784.1781862000062,785.1963118000131,e,24.0,2.367870999994921,1,+10,251,-6.356707136553688,-0.9738806563538418,-0.24069358800070262,770991.0,33.75056313914388,-1.2115940477411895,-2.8789445069390602,774525.0,-3.451685133983625,0.35017558513878644,-0.07171469327767999,2560837.0,775.2796385800036,771.7456385800036,2561.5916385800037
46,24,26,f,1,1,38.0,0,2,low,4 + 8 + 1 + 1 - 6,8,7,8,9,828.1456151000166,830.1730723000073,831.6880714000145,836.7065745000145,838.0051954000082,838.0052002000157,839.5218514000007,840.5388678000018,w,8.0,1.2986208999936937,1,+1,252,-9.358476748417946,-0.04498704739637471,-0.11345640746035635,827404.0,17.05954338434666,0.09648405561546225,0.006873090847266727,830938.0,,,,,831.6926385800036,828.1586385800036,
47,24,26,f,1,1,39.0,1,2,high,8 + 1 + 4 - 7 + 1,7,7,5,6,842.0555684000137,844.0821835999959,845.5971619999909,850.615899700002,853.2052328000136,853.2052378999942,854.7227038000128,855.7401194999984,q,7.0,2.589333100011572,1,+10,262,-0.9095620951110064,0.11515348980447371,0.0868086123160614,841314.0,-16.162123543923137,-0.06002817653175274,-0.22852606826085808,844847.0,,,,,845.6016385800036,842.0686385800036,
48,24,26,f,1,1,40.0,2,1,low,5 + 6 + 1 + 1 + 1,14,16,13,14,857.2573906999896,859.2846514999983,860.7996214000159,865.8172282000014,866.9252400000114,866.9252448999905,868.4418385000026,869.458829900017,e,14.0,1.10801180000999,1,+1,263,4.384780423424141,-0.4287288125299087,0.10072019781627817,856516.0,17.317267069632653,-0.07900576154921168,-0.010286225140618832,860048.0,,,,,860.8026385800036,857.2706385800036,
49,24,26,f,1,1,41.0,3,3,high,9 - 1 + 5 - 6 + 8,15,14,17,15,870.9759211000055,873.0034457000147,874.5186832000036,879.5365347999905,883.7172218000051,883.7172269000148,885.2341379999998,886.2515133999987,e,15.0,4.180687000014586,1,+10,273,-5.520290258117408,-0.5113944931421575,-0.0611007182652219,870235.0,-22.416072333002454,0.10138718472133501,0.02562122807538647,873768.0,,,,,874.5226385800037,870.9896385800037,
50,24,26,f,1,1,42.0,4,2,low,8 + 1 + 1 + 9 - 4,15,15,14,16,887.7683570999943,889.7953773000045,891.3106666000094,896.3298252999957,897.437164700008,897.4371694000147,898.9537946000055,899.9707088000141,q,15.0,1.107339400012279,1,+1,274,-18.69917062308706,-0.40674115763103513,0.02353430343775087,887027.0,-3.1813243563330094,0.24345740620927536,-0.11891892506536172,890560.0,,,,,891.3146385800036,887.7816385800037,
51,24,26,f,1,1,43.0,5,3,low,4 + 8 - 3 + 5 - 1,13,12,13,14,901.4874423000148,903.5131830000028,905.0284852999904,910.046682300017,910.9332825000164,910.9332872999948,912.4496758000168,913.4667372000112,w,13.0,0.8866001999995206,1,+1,275,88.31394660492114,0.2997148698008081,-0.11390784207084104,900744.0,-31.811266540952147,-0.09594928139173531,-0.023098030816816495,904278.0,,,,,905.0326385800037,901.4986385800037,
52,24,26,f,1,1,44.0,6,4,low,5 + 9 - 4 + 7 + 6,23,23,25,24,914.9833713000116,917.0103697000012,918.5256268999948,923.5443651000096,924.7091787999962,924.7091837000044,926.2260667000082,927.2429507999914,q,23.0,1.1648136999865528,1,+1,276,19.88513211136794,1.1302323653742579,0.33746279384167743,914241.0,24.48593099874978,0.3839947555109702,-0.05971617008972441,917775.0,,,,,918.5296385800036,914.9956385800036,
53,24,26,f,1,1,45.0,7,3,high,6 - 1 + 7 - 8 + 9,13,11,13,12,928.759667700011,930.7839952000068,932.29916960001,937.3191452000174,938.2212669000146,938.221272099996,939.7377563999908,940.7551316000172,w,13.0,0.902121699997224,1,+10,286,65.82167823200581,0.27155183907336466,0.07468774569920189,928015.0,-68.91204962951187,0.11720228094905139,-0.019996056169680143,931550.0,,,,,932.3046385800036,928.7696385800036,
54,24,26,f,1,1,46.0,8,2,low,5 + 7 - 8 + 1 + 1,6,7,6,8,942.271769300016,944.2997788999928,945.8147483000066,950.8333825000154,951.7493462999992,951.7493771000009,953.266060599999,954.2833051999914,w,6.0,0.9159637999837288,1,+1,287,-50.55668289134765,-0.11257427433011546,-0.06482086283305222,941530.0,-22.96783961314892,-0.13818804653832117,0.00512561289716329,945064.0,,,,,945.8186385800036,942.2846385800036,
55,24,26,f,1,1,47.0,9,1,high,3 + 1 + 8 - 1 + 1,12,12,10,13,955.8001454999904,957.824892100005,959.3398929999968,964.3595255000108,965.2693394999952,965.2693447000056,966.7858943000028,967.8039006000035,q,12.0,0.9098139999841806,1,+10,297,-57.001941558677956,1.0182058234556997,0.16339841369944152,955055.0,-30.40457283998582,0.17497135478114068,0.03617513857607357,958590.0,,,,,959.3446385800037,955.8096385800036,
56,24,26,f,1,1,48.0,10,1,low,4 + 8 + 1 - 1 - 1,11,13,11,9,969.3206786999943,971.3468450999936,972.8620726999944,977.8801902999984,978.8933400000096,978.8933448000172,980.4098732999992,981.4268314999936,w,11.0,1.0131497000111267,1,+1,298,-5.471896710694672,-0.395260021218669,0.23729656050116343,968577.0,-41.651783566633796,-0.027909775889423116,0.04766266622734139,972111.0,,,,,972.8656385800036,969.3316385800036,
57,24,26,f,1,1,49.0,11,1,low,9 + 1 + 1 + 7 - 1,17,17,19,16,982.9435909000168,984.9675944999908,986.4828670000134,991.5011433000036,992.60540510001,992.6054106999944,994.121729800012,995.1387506000174,q,17.0,1.1042618000064977,1,+1,299,-18.06749777790502,-0.010352937752015734,0.06948642060324528,982198.0,1.0330588104791651,-0.8848431506456915,-0.0007901783517372252,985732.0,,,,,986.4866385800036,982.9526385800036,
58,24,26,f,1,1,50.0,12,4,low,8 + 3 - 4 + 5 + 9,21,21,23,22,996.655422700016,998.6805668000017,1000.1958651000168,1005.214500300004,1006.2213674999948,1006.2213723000024,1007.7379265000054,1008.7549050000088,q,21.0,1.0068671999906655,1,+1,300,3.063843103313184,0.016127379221280158,-0.19939029766575223,995911.0,24.8370036161254,-0.2438227276832512,0.04401846410304966,999445.0,,,,,1000.1996385800037,996.6656385800036,
59,24,26,f,1,1,51.0,13,1,low,5 + 1 + 1 + 6 + 1,14,16,13,14,1010.2716380000056,1012.2984256999916,1013.8134004000168,1018.8307152999914,1019.9333669999904,1019.9333719999996,1021.4505697000131,1022.46794100001,e,14.0,1.1026516999991145,1,+1,301,16.88912325859932,0.21023924332688582,0.06560323420291514,1009529.0,2.802082387894629,-0.02812155533410099,0.12718161932252792,1013061.0,,,,,1013.8156385800037,1010.2836385800036,
60,24,26,f,1,1,52.0,14,2,high,9 + 4 - 6 + 1 - 1,7,8,7,9,1023.98579050001,1026.010841100011,1027.526051599998,1032.5442640999972,1033.381267699995,1033.3812725000023,1034.8978053000174,1035.915068400005,w,7.0,0.8370035999978427,1,+10,311,12.067286969297701,-0.25033584910513884,-0.03222224217763214,1023241.0,-14.525686266457125,0.4311487729298653,0.015161568789011426,1026774.0,,,,,1027.5286385800034,1023.9956385800036,
61,24,26,f,1,1,53.0,15,4,low,6 + 9 + 7 - 3 - 5,14,13,14,15,1037.4318159999966,1039.456607900007,1040.9724054000108,1045.990922900004,1048.1893891000072,1048.189394200017,1049.7059639999934,1050.722938299994,w,14.0,2.198466200003168,1,+1,312,-7.197493795946511,0.13291975051307459,0.09935952839129714,1036687.0,-66.42482114836736,-0.9712501956514616,0.016380231789223876,1040221.0,,,,,1040.9756385800035,1037.4416385800034,
62,24,26,f,1,1,54.0,16,3,high,4 + 7 - 3 + 5 - 1,12,12,13,11,1052.239425000007,1054.2648808000083,1055.7801456000016,1060.7988423999925,1061.661366300017,1061.6613717,1063.177569899999,1064.1949374999967,q,12.0,0.8625239000248257,1,+10,322,-3.789273198867221,-1.2549801020539824,-0.07368159979788702,1051495.0,12.87377221914085,0.08184738323074825,-0.03675075294302399,1055029.0,,,,,1055.7836385800035,1052.2496385800034,
63,24,26,f,1,1,55.0,17,3,high,4 + 5 - 3 + 7 - 1,12,12,11,13,1065.7117531000113,1067.7358740000054,1069.2510494000162,1074.2701017000072,1075.0854118000134,1075.085416899994,1076.6018292999945,1077.6190818000175,q,12.0,0.8153101000061724,1,+10,332,-21.106828000318153,-0.31357250568701334,-0.062281093272972265,1064966.0,-37.09024141878065,0.25691562812066726,-0.022395493227798102,1068500.0,,,,,1069.2546385800035,1065.7206385800034,
64,24,26,f,1,1,56.0,18,2,low,6 + 1 + 1 + 8 - 9,7,9,7,5,1079.1453021999914,1081.1724805000122,1082.6875415999966,1087.705544299999,1088.6453657000093,1088.6453705000167,1090.161507300014,1091.1783899000147,w,7.0,0.9398214000102598,1,+1,333,-59.86496804684258,-0.23563151180153508,0.02066911916310854,1078403.0,-18.551110114289003,-0.12752609606917797,0.08038020082939723,1081936.0,,,,,1082.6906385800035,1079.1576385800035,
65,24,26,f,1,1,57.0,19,3,low,3 + 8 - 7 + 1 + 9,14,13,14,12,1092.6951239999908,1094.7224926000054,1096.237659300008,1101.256702100014,1102.117337600008,1102.1173423000146,1103.633979300008,1104.6508959000057,w,14.0,0.8606354999938048,1,+1,334,-6.071206454788065,0.40187569661357747,0.04504579136765763,1091952.0,0.22798491489004746,0.15817105633176798,-0.05591306915200911,1095486.0,,,,,1096.2406385800036,1092.7066385800035,
66,24,26,f,1,1,58.0,20,4,low,7 + 6 + 8 - 4 + 5,22,21,23,22,1106.1676456000132,1108.1950545000143,1109.710309599992,1114.7294391999894,1115.8534135000082,1115.8534185999888,1117.3699914000172,1118.3870204999985,e,22.0,1.1239743000187443,1,+1,335,-0.10309614734562178,-0.31864018026807805,-0.1060167219717052,1105425.0,15.68729397660594,0.05526974067736523,0.08829955591636796,1108959.0,,,,,1109.7136385800036,1106.1796385800035,
67,24,26,f,1,1,59.0,21,4,low,5 + 8 - 4 - 6 + 9,12,14,12,13,1119.9037198000003,1121.9284751999949,1123.443765300006,1128.462147400016,1129.3654338000051,1129.3654386000126,1130.8822949000169,1131.8990527999997,w,12.0,0.903286399989156,1,+1,336,6.3899719587799675,0.16770561695720065,0.11915729732888058,1119158.0,-13.365634762037697,0.23373210882614393,0.046590076351920695,1122692.0,,,,,1123.4466385800035,1119.9126385800034,
68,24,26,f,1,1,60.0,22,2,high,2 + 9 - 4 + 1 + 1,9,8,9,11,1133.4160616000008,1135.441758400004,1136.9571516000142,1141.975755499996,1142.9814233999932,1142.981428200001,1144.497769300011,1145.5148531000011,w,9.0,1.0056678999972064,1,+10,346,5.656839146051048,0.3639490469338025,-0.025693012378060986,1132672.0,-46.987996787498844,-0.09875682794390972,-0.027075206295050114,1136205.0,,,,,1136.9596385800035,1133.4266385800036,
69,24,26,f,1,1,61.0,23,2,low,5 + 8 + 1 - 1 + 9,22,23,22,21,1147.0321059999987,1149.058876199997,1150.5740745000076,1155.5922732999898,1156.765392500005,1156.7653977000157,1158.281787200016,1159.2986636999997,w,22.0,1.1731192000152078,1,+1,347,15.366746349443904,0.3845960491145881,0.06661154389240798,1146288.0,41.839693754821134,-0.2261375561163197,-0.06363078578858694,1149822.0,,,,,1150.5766385800034,1147.0426385800035,
70,24,26,f,1,1,62.0,24,4,low,5 + 7 - 4 + 6 + 9,23,24,25,23,1160.8154264999905,1162.841124300001,1164.3566266999987,1169.3766830000095,1170.4294733999996,1170.4294784000083,1171.9463026000012,1172.9633085000096,e,23.0,1.0527903999900443,1,+1,348,4.566438293883323,-0.22833884897440004,-0.049129532575229895,1160070.0,6.073194580310826,0.5553050346979864,-0.12289131024014255,1163606.0,,,,,1164.3606385800035,1160.8246385800035,
71,24,26,f,1,1,63.0,25,3,low,5 + 6 - 4 - 1 + 7,13,15,14,13,1174.480284899997,1176.5077522000065,1178.0229468999896,1183.0423703000124,1183.9974563000142,1183.9974617999978,1185.5138601000072,1186.530807300005,e,13.0,0.9550860000017564,1,+1,349,4.338195722715554,-0.33057009747856947,0.08967614158146864,1173737.0,-1.9695117967106532,0.5216062096181666,0.026738767609191028,1177271.0,,,,,1178.0256385800035,1174.4916385800036,
72,24,26,f,1,1,64.0,26,2,low,5 + 9 - 8 + 1 + 1,8,8,9,7,1188.047431300016,1190.0724842000054,1191.5876698000066,1196.607104499999,1197.573448900017,1197.5734538999968,1199.089942999999,1200.107154600002,q,8.0,0.966344400017988,1,+1,350,-26.491747130792874,-0.3291233434156897,-0.0960445016676803,1187302.0,36.13810132009549,0.0958553705542391,-0.012235037867821985,1190836.0,,,,,1191.5906385800035,1188.0566385800034,
73,24,26,f,1,1,65.0,27,3,high,8 + 3 + 1 - 7 + 9,14,15,14,12,1201.6238433000108,1203.6504362999983,1205.1658423999909,1210.1849176000103,1211.853536700015,1211.8535416999948,1213.3700947999896,1214.387101900007,w,14.0,1.6686191000044346,1,+10,360,26.800377278497706,0.3322930566158355,0.05248057107968407,1200880.0,-0.8258177016932433,-0.14275699759609672,0.08264368923549181,1204414.0,,,,,1205.1686385800035,1201.6346385800036,
74,24,26,f,1,1,66.0,28,4,high,7 + 8 - 4 + 6 - 5,12,12,13,11,1215.9043178000138,1217.9286329000024,1219.4438380000065,1224.4624820000026,1225.5494689999905,1225.549474200001,1227.0662337999966,1228.083527300012,q,12.0,1.0869869999878574,1,+10,370,11.22526436660716,-0.12411462373181825,-0.16108706966180075,1215158.0,-2.0660897443467334,0.7310759234207382,-0.08869387612753887,1218692.0,,,,,1219.4466385800035,1215.9126385800034,
75,24,26,f,1,1,67.0,29,4,high,4 + 7 + 8 - 3 + 9,25,24,26,25,1229.60025019999,1231.6270174999954,1233.142137000017,1238.1604858000064,1241.629533600004,1241.6295382000098,1243.146239499998,1244.163466500002,e,25.0,3.4690477999974973,1,+10,380,8.493451703197636,0.25284329564768315,-0.07263939169333411,1228855.0,-6.166974085888636,0.2120518421092803,0.07282011301199343,1232390.0,,,,,1233.1446385800036,1229.6096385800035,
76,24,26,f,1,1,68.0,30,4,high,2 + 9 - 6 + 8 - 4,9,9,11,7,1245.680680599995,1247.705459299992,1249.2207515999908,1254.240851700015,1255.5175842999888,1255.5175892999978,1257.034058899997,1258.0514241000055,q,9.0,1.2767325999739114,1,+10,390,5.059496177668121,1.1300865216406248,0.07993348521608445,1244935.0,-3.6065217716597946,0.4885133528522698,0.7471213464689614,1248470.0,,,,,1249.2246385800036,1245.6896385800035,
77,24,26,f,1,1,69.0,31,2,low,2 + 9 + 1 + 1 - 5,8,8,7,6,1259.5685689999957,1261.5955694000004,1263.1105113000085,1268.1288760000025,1269.1014671000012,1269.1014716000063,1270.6179211999988,1271.634992200008,q,8.0,0.9725910999986808,1,+1,391,-3.203453573906817,0.14630720486233573,0.26952778548506884,1258825.0,-22.569437908280662,-0.03919480359893113,0.11198979452560787,1262358.0,,,,,1263.1126385800035,1259.5796385800036,
78,24,26,f,1,1,70.0,32,2,high,2 + 1 + 9 - 4 + 1,9,11,9,8,1273.151669200015,1275.1782179000147,1276.6935820000072,1281.713219600002,1282.469511000003,1282.469516000012,1283.9861002000107,1285.003366799996,w,9.0,0.7562914000009187,1,+10,401,9.527538668414447,-0.020317065629217534,0.11686248165670077,1272407.0,8.927445801330354,0.01911644899403342,0.10762396812196862,1275942.0,,,,,1276.6966385800035,1273.1616385800035,
79,24,26,f,1,1,71.0,33,1,low,8 - 1 + 1 + 6 + 1,15,15,14,16,1286.5200617999944,1288.547042299993,1290.0619365000166,1295.080017900007,1296.1415532999963,1296.1415579000022,1297.6582152000046,1298.674992300017,q,15.0,1.061535399989225,1,+1,402,-0.9941822313145394,0.398076083400261,-0.3824530106349544,1285776.0,4.404454809882548,0.07165643940710753,0.0126824885562824,1289309.0,,,,,1290.0636385800035,1286.5306385800036,
80,24,26,f,1,1,72.0,34,2,low,4 + 9 - 7 + 1 - 1,6,8,5,6,1300.1916925999976,1302.2187419999973,1303.733708499989,1308.7544430000123,1311.789625000005,1311.7896301000146,1313.3071419000044,1314.3240342999925,e,6.0,3.0351819999923464,1,+1,403,29.911683862039162,-0.2602006589296595,0.18096987856528446,1299447.0,-7.258142511412942,0.0089099688322265,-0.04838716984219538,1302983.0,,,,,1303.7376385800035,1300.2016385800034,
81,24,26,f,1,1,73.0,35,3,high,8 - 1 + 6 - 7 + 5,11,13,11,12,1315.841030200012,1317.86865389999,1319.3841711000132,1324.4025729999994,1326.045641500008,1326.0456466000178,1327.5631489999942,1328.580497899995,w,11.0,1.6430685000086669,1,+10,413,10.331133381573265,0.14685107618866233,-0.047367284241377705,1315097.0,43.05710425320311,0.591386864907272,0.3874276080525414,1318632.0,,,,,1319.3866385800036,1315.8516385800035,
82,24,26,f,1,1,74.0,36,4,low,4 + 8 + 9 - 3 + 7,25,25,26,24,1330.0974185999949,1332.1234772999887,1333.6387633999984,1338.6573908000137,1340.1816909000045,1340.181695800013,1341.6985380999977,1342.7151981999923,q,25.0,1.5243000999907963,1,+1,414,5.920320501314377,0.13447477892755222,0.2389140841219355,1329352.0,-22.58978918844091,-0.9986285488777153,-0.2985200206350189,1332886.0,,,,,1333.6406385800035,1330.1066385800036,
83,24,26,f,1,1,75.0,37,4,high,4 + 9 - 7 + 8 + 5,19,19,21,20,1344.2319075000123,1346.259285200009,1347.7743869000117,1352.7931196000136,1354.1577276999888,1354.1577326999975,1355.674949600012,1356.692201400001,q,19.0,1.3646080999751575,1,+10,424,-18.34432535874074,0.21863593830957484,-0.12936608479962963,1343488.0,12.173710426774432,0.3028931284644574,0.07957054529487584,1347022.0,,,,,1347.7766385800035,1344.2426385800036,
84,24,26,f,1,2,76.0,0,4,low,4 + 7 - 8 + 9 - 3,9,11,9,8,1411.0340874000103,1413.059296499996,1414.5744446000026,1419.5942852000007,1421.0776482000074,1421.0776530000148,1422.5941872000112,1423.6108721999915,w,9.0,1.4833630000066478,1,+1,425,-21.561501161095396,-0.03092437348082777,-0.09565190373207955,1410287.0,-12.810519607049017,-0.4462867260843115,-0.022513581817674932,1413823.0,,,,,1414.5776385800036,1411.0416385800036,
85,24,26,f,1,2,77.0,1,3,high,5 - 1 - 4 + 6 + 7,13,13,15,14,1425.1278075000157,1427.152918300009,1428.6681466000157,1433.6880606999912,1434.685657199996,1434.6856623000058,1436.2024882000114,1437.2197661999962,q,13.0,0.9975965000048744,1,+10,435,19.315175319934596,-0.3926124623300318,5.847572647882403,1424381.0,-20.494223538175646,-0.025902058922953053,-0.2162324297034206,1427916.0,,,,,1428.6706385800035,1425.1356385800036,
86,24,26,f,1,2,78.0,2,1,low,3 + 1 + 9 + 1 - 1,13,13,14,12,1438.737175599992,1440.7629702000122,1442.2778704999946,1447.2961337000015,1448.1097208000135,1448.109725499991,1449.6261962999995,1450.6430203999917,q,13.0,0.8135871000122279,1,+1,436,9.630043582280212,0.11120614994197764,-0.010655706356947903,1437991.0,-19.551488857025543,-0.1851522372580101,0.12629435790615373,1441524.0,,,,,1442.2786385800034,1438.7456385800035,
87,24,26,f,1,2,79.0,3,3,low,4 + 1 + 8 + 9 - 5,17,19,18,17,1452.1598153999948,1454.1845404999913,1455.69981369999,1460.719133400009,1461.709698199993,1461.7097035000045,1463.2271329000068,1464.243699100014,e,17.0,0.9905647999839856,1,+1,437,3.7182682854296765,0.1782641096068276,0.07825792974273638,1451412.0,21.179005210448757,-0.08564343041301736,-0.07739259494055983,1454947.0,,,,,1455.7016385800034,1452.1666385800036,
88,24,26,f,1,2,80.0,4,1,low,6 + 1 + 1 + 7 - 1,14,12,13,14,1465.7611737000116,1467.7873118999996,1469.302488699992,1474.321195299999,1475.2137479000085,1475.2137529000174,1476.7303862000117,1477.7472514999972,e,14.0,0.8925526000093669,1,+1,438,2.3246351657667437,0.20321745549868497,-0.058872947484166716,1465015.0,0.8815626212467613,0.12796999133123776,-0.03327758072216569,1468548.0,,,,,1469.3026385800035,1465.7696385800036,
89,24,26,f,1,2,81.0,5,4,low,8 + 4 + 7 - 5 - 6,8,6,8,9,1479.2641107999953,1481.290180800017,1482.8054481,1487.825134999992,1488.5897285999963,1488.5897339000076,1490.1063529000094,1491.1233354000142,w,8.0,0.7645936000044458,1,+1,439,13.55595609161012,0.14572520401047573,-0.03836502696213384,1478518.0,-28.179071734858454,0.2119641918800701,0.018254818158728092,1482053.0,,,,,1482.8076385800036,1479.2726385800036,
90,24,26,f,1,2,82.0,6,1,high,5 + 9 - 1 + 1 + 1,15,13,17,15,1492.6401281,1494.6657846000162,1496.1810286999971,1501.1994385000144,1502.2538055999903,1502.2538108000008,1503.7705423000152,1504.7873704000085,e,15.0,1.0543670999759345,1,+10,449,16.476284999473165,-0.04319269067732456,0.07325324306753678,1491893.0,-39.98303157802485,-0.16125390163466857,-0.08835640821962865,1495427.0,,,,,1496.1816385800034,1492.6476385800036,
91,24,26,f,1,2,83.0,7,4,low,5 + 7 - 4 + 8 + 6,22,22,24,23,1506.304421000008,1508.3290261999937,1509.8450091000122,1514.8653349000087,1515.949784299999,1515.9497896000105,1517.465796900011,1518.4823400000168,q,22.0,1.0844493999902625,1,+1,450,26.94559384620611,0.2637113093380803,0.3174626366439597,1505557.0,-20.791811666555326,0.019218238139512955,0.06351142001527132,1509093.0,,,,,1509.8476385800036,1506.3116385800035,
92,24,26,f,1,2,84.0,8,1,high,7 - 1 + 1 + 9 - 1,15,15,14,13,1519.9991573000152,1522.027418200014,1523.5426589999988,1528.5610563000082,1529.6138643000158,1529.6138694999972,1531.1304145000177,1532.1473210999975,q,15.0,1.0528080000076443,1,+10,460,-23.92679477254872,-0.04678167839492797,0.026384271081392185,1519255.0,-14.014888044256281,-0.08438783068202849,0.0683399462241574,1522788.0,,,,,1523.5426385800035,1520.0096385800036,
93,24,26,f,1,2,85.0,9,4,low,2 + 9 - 3 + 5 + 8,21,21,23,22,1533.6640594000055,1535.6914484000008,1537.206716799992,1542.2251976999978,1543.2697831999976,1543.2697887000104,1544.7864043000154,1545.80303119999,q,21.0,1.044585499999812,1,+1,461,-2.1636114844933427,-1.2804658637843858e-05,0.10938563688780234,1532919.0,29.29101700956256,0.12770976011494106,-0.03724605740422904,1536452.0,,,,,1537.2066385800035,1533.6736385800036,
94,24,26,f,1,2,86.0,10,2,high,7 + 1 + 9 - 1 - 8,8,8,7,6,1547.3201312000165,1549.3451467000125,1550.8605110000062,1555.878788200003,1556.7657493000152,1556.7657541999945,1558.2822459000165,1559.2986081000126,q,8.0,0.8869611000118311,1,+10,471,5.134565157149739,0.13585350282087916,0.06389131366110012,1546572.0,13.652689863764817,-0.1542893200937976,-0.15092695663613287,1550106.0,,,,,1550.8606385800035,1547.3266385800034,
95,24,26,f,1,2,87.0,11,1,low,6 + 9 + 1 + 1 - 1,16,14,16,15,1560.8154939000087,1562.8417860000045,1564.3566579000037,1569.374590499996,1570.3017649000103,1570.3017697000178,1571.8183880000142,1572.8349951000127,w,16.0,0.9271744000143372,1,+1,472,-10.722469820292169,0.059746137778313724,-0.08987257381803859,1560069.0,4.37210202029652,0.17288519166156302,0.010102813582556713,1563602.0,,,,,1564.3566385800036,1560.8236385800035,
96,24,26,f,1,2,88.0,12,2,high,5 - 1 + 1 + 8 + 9,22,21,22,23,1574.3518302000011,1576.3779413000157,1577.893189399998,1582.9111796999932,1583.6378408000164,1583.637845899997,1585.1545673999935,1586.1719942000054,w,22.0,0.7266611000231933,1,+10,482,19.16707674758642,0.3715504471488278,0.18222389003156514,1573605.0,-64.83752694840354,0.1255674484175704,-0.04458658562248918,1577138.0,,,,,1577.8926385800034,1574.3596385800035,
97,24,26,f,1,2,89.0,13,1,low,2 + 9 + 1 + 1 + 1,14,12,13,14,1587.6888584000117,1589.7153769000142,1591.230454600009,1596.2482684999995,1597.3017480999988,1597.301753000007,1598.8183079000155,1599.8346874999988,e,14.0,1.053479599999264,1,+1,483,8.843087401976481,-0.22990191018116235,0.08262909878685631,1586941.0,18.204256301682253,0.2079547465722955,-0.011110348244849355,1590475.0,,,,,1591.2296385800034,1587.6956385800036,
98,24,26,f,1,2,90.0,14,4,low,3 + 8 - 4 + 9 + 7,23,23,22,24,1601.351429600007,1603.379639299994,1604.8948014999914,1609.9131228000042,1611.1337423000075,1611.1337473000167,1612.6502335999976,1613.6671112999902,q,23.0,1.2206195000035225,1,+1,484,0.6439800127235502,0.10650957047892406,0.02227993645451365,1600607.0,-9.99704969253894,-0.11835519167885877,0.02127795240959851,1604140.0,,,,,1604.8946385800036,1601.3616385800035,
99,24,26,f,1,2,91.0,15,1,high,9 + 8 + 1 + 1 - 1,18,18,17,19,1615.1840748999966,1617.2092247999972,1618.7244034000032,1623.7436121999926,1624.6698771000083,1624.6698821000173,1626.1865386000136,1627.2039616999973,q,18.0,0.9262649000156672,1,+10,494,37.17599962603606,0.18610174726291895,0.03118112513757043,1614436.0,-34.183231267802476,-0.0128600647740309,-0.10457042212803258,1617970.0,,,,,1618.7246385800036,1615.1906385800035,
100,24,26,f,1,2,92.0,16,1,low,9 + 7 + 1 + 1 + 1,19,20,18,19,1628.720577500004,1630.7466027000046,1632.2617995000037,1637.2805651999952,1638.3497729999945,1638.3497783000057,1639.8662272999936,1640.8830135999888,e,19.0,1.0692077999992762,1,+1,495,-8.000909878391523,0.2861718713151631,0.11337337114576074,1627973.0,-65.13744630745984,0.49408832021466287,-0.042375430727217944,1631506.0,,,,,1632.2606385800036,1628.7276385800035,
101,24,26,f,1,2,93.0,17,4,high,4 + 7 + 9 - 5 + 7,22,23,22,24,1642.399621599994,1644.4255868000037,1645.9407579000108,1650.959117099992,1651.8218655000092,1651.8218705999898,1653.3386549999996,1654.3557227000128,w,22.0,0.8627484000171535,1,+10,505,9.1179685429455,0.0321653787574232,-0.13446813639887534,1641651.0,-14.289885201910057,-0.228089215581051,0.01545659425968915,1645186.0,,,,,1645.9406385800035,1642.4056385800036,
102,24,26,f,1,2,94.0,18,3,low,9 + 3 - 4 + 6 + 7,21,21,22,23,1655.8725515000117,1657.8960560999983,1659.411002400011,1664.4296365999908,1665.5979765999946,1665.5979816000035,1667.1146565999952,1668.1320086999913,e,23.0,1.168340000003809,0,+0,505,3.051933125992756,0.45203196257164135,-0.04929010409266876,1655123.0,35.036367546215544,0.3443968604028056,-0.013775651986484672,1658656.0,,,,,1659.4106385800035,1655.8776385800036,
103,24,26,f,1,2,95.0,19,2,low,3 + 8 + 1 - 5 + 1,8,9,8,6,1669.6487018000043,1671.6747284000155,1673.1896695999894,1678.2078009000106,1679.069962700014,1679.0699678999954,1680.587305699999,1681.6049270000076,w,8.0,0.8621618000033777,1,+1,506,-12.506556452386036,0.12645374735425108,-0.10299562117851724,1668901.0,-18.714991754680888,1.3571885756731432,0.17086692645206192,1672434.0,,,,,1673.1886385800035,1669.6556385800036,
104,24,26,f,1,2,96.0,20,1,high,7 + 1 + 4 + 1 - 1,12,13,14,12,1683.122020300012,1685.1490138999943,1686.6643186,1691.6835976000002,1692.597892299993,1692.5978972000012,1694.1144183000142,1695.1317927000057,e,12.0,0.9142946999927516,1,+10,516,-3.7555554636592845,-0.03319176688670433,0.11924469865213982,1682375.0,19.591053941284855,-0.2505344395549365,0.1293986050907321,1685909.0,,,,,1686.6636385800036,1683.1296385800035,
105,24,26,f,1,2,97.0,21,2,high,9 + 6 + 1 + 7 + 1,24,24,23,25,1696.648588400014,1698.674547600007,1700.189421899995,1705.2071234000032,1706.2379293999984,1706.237934500008,1707.7541872000147,1708.7715801000013,q,24.0,1.0308059999952093,1,+10,526,-28.11917403024029,0.02429606163005671,0.00782831022707442,1695901.0,11.825739640602535,0.27392129062977943,-0.040127210940844815,1699434.0,,,,,1700.1886385800035,1696.6556385800036,
106,24,26,f,1,2,98.0,22,4,high,7 + 6 - 4 + 9 - 5,13,14,12,13,1710.2883514999994,1712.314553300006,1713.829557399993,1718.8485201000003,1719.7818675000162,1719.7818726999976,1721.2979901999934,1722.3154722999898,e,13.0,0.9333474000159184,1,+10,536,9.785527236444747,0.050953479531290924,0.05838124389888777,1709541.0,-3.3802566177915816,0.05855955458951456,-0.022440458806227692,1713074.0,,,,,1713.8286385800036,1710.2956385800035,
107,24,26,f,1,2,99.0,23,1,low,5 + 1 + 1 + 9 + 1,17,17,16,19,1723.8322692000074,1725.8579460000035,1727.3730712000106,1732.391075399995,1733.3099497999938,1733.309954700002,1734.8266575000016,1735.8435716000097,q,17.0,0.918874399998458,1,+1,537,40.97203959928833,0.3882453846747551,0.015795643183524,1723084.0,-14.613107855733377,-0.1938668627294473,-0.026989924153703715,1726617.0,,,,,1727.3716385800035,1723.8386385800036,
108,24,26,f,1,2,100.0,24,4,high,9 + 4 - 6 + 8 + 7,22,21,24,22,1737.3605196000135,1739.386370399996,1740.9016580999887,1745.920205900009,1746.8538932999943,1746.8538986000058,1748.3702664000157,1749.3872515000112,e,22.0,0.9336873999855017,1,+10,547,-5.736456410232942,0.1860055876633031,-0.0028586426493864003,1736612.0,25.458516862165556,0.17563726674473967,-0.007992623814338629,1740146.0,,,,,1740.9006385800035,1737.3666385800036,
109,24,26,f,1,2,101.0,25,2,high,7 + 5 + 1 + 9 + 1,23,23,21,22,1750.9037488000176,1752.929623700009,1754.4448944999897,1759.4625726999948,1760.6938989000046,1760.693903700012,1762.2102819000138,1763.2275394000171,q,23.0,1.231326200009789,1,+10,557,-33.40517619044942,-0.29626124187654534,-0.020810101492933608,1750156.0,55.80760645091281,-0.509596926986037,-0.004671788327829107,1753689.0,,,,,1754.4436385800036,1750.9106385800035,
110,24,26,f,1,2,102.0,26,1,high,2 + 1 + 1 + 9 - 1,12,12,11,13,1764.7440324999916,1766.770010600012,1768.2849634000158,1773.3042774999922,1774.341926699999,1774.3419314000057,1775.858713900001,1776.8757161000103,q,12.0,1.0376492000068538,1,+10,567,-1.564972843837146,0.32617346084067433,0.06745393681829204,1763996.0,-3.348340238307501,0.1369458087054647,-0.06686454227921224,1767529.0,,,,,1768.2836385800035,1764.7506385800036,
111,24,26,f,1,2,103.0,27,2,low,4 + 9 + 1 - 7 - 1,6,6,5,8,1778.3926315999995,1780.4188893999965,1781.934095900011,1786.9524794000026,1787.9260121000116,1787.9260175999952,1789.4425457000034,1790.4596684999997,q,6.0,0.9735327000089457,1,+1,568,2.5183500630050677,-0.11048379052023671,-0.029031724039382034,1777645.0,-46.07905875336992,-0.00829238105648411,0.0009273317305886764,1781178.0,,,,,1781.9326385800036,1778.3996385800035,
112,24,26,f,1,2,104.0,28,1,high,6 + 9 + 1 + 1 - 1,16,16,15,14,1791.976511899993,1794.003674500011,1795.5185823999927,1800.5365494000143,1801.461996099999,1801.4620013000092,1802.9786176999917,1803.995752999996,q,16.0,0.9254466999846044,1,+10,578,44.60226544459595,-0.010566530708608468,0.08210285664503614,1791229.0,43.25991308261479,0.02344197274777393,0.05248426797755856,1794762.0,,,,,1795.5166385800035,1791.9836385800036,
113,24,26,f,1,2,105.0,29,3,low,3 - 7 + 5 + 1 + 9,11,13,11,12,1805.5124201000144,1807.5359319999989,1809.0515218999933,1814.069939500012,1814.8539563000088,1814.8539613999887,1816.370323900017,1817.3871988000171,w,11.0,0.784016799996607,1,+1,579,5.0644960914968,-0.005382826295901033,0.08552185649088151,1804762.0,64.3870767311167,0.09193825871485517,0.0019029257733489402,1808296.0,,,,,1809.0506385800036,1805.5166385800035,
114,24,26,f,1,2,106.0,30,4,low,9 + 3 - 5 + 8 + 6,21,19,21,23,1818.903955000016,1820.9298373000056,1822.4452989000129,1827.4634833000016,1830.1819494999943,1830.181954700005,1831.6987185000037,1832.715712900012,w,21.0,2.7184661999926902,1,+1,580,25.99752632629933,0.09757788803612621,0.28411042254684005,1818155.0,14.411578772955473,-0.28720485394196205,-0.07858594236089722,1821689.0,,,,,1822.4436385800036,1818.9096385800035,
115,24,26,f,1,2,107.0,31,3,low,3 + 1 + 8 - 5 + 6,13,15,14,13,1834.232724900008,1836.260382600012,1837.7757806000009,1842.7943448000003,1843.8619867000089,1843.8619917999893,1845.378307200008,1846.3953473000147,e,13.0,1.0676419000083115,1,+1,581,0.21341250620424468,0.1211637902710061,-0.11738169168032342,1833486.0,33.20772130333442,0.297553852076927,0.03729006562116233,1837020.0,,,,,1837.7746385800035,1834.2406385800036,
116,24,26,f,1,2,108.0,32,2,high,8 + 1 + 9 + 1 - 4,15,14,16,15,1847.9120273000156,1849.937633199996,1851.452948799997,1856.470779299998,1857.446014899993,1857.4460198000013,1858.9624779000003,1859.9798496000003,e,15.0,0.975235599995358,1,+10,591,36.91179110433248,-0.4027715795436837,-0.5659824797827651,1847163.0,-0.3683740972885232,0.20020916443766312,0.064781549869251,1850696.0,,,,,1851.4506385800034,1847.9176385800035,
117,24,26,f,1,2,109.0,33,3,low,6 - 1 + 7 - 8 + 9,13,11,13,12,1861.4963047000056,1863.5220745000115,1865.0373082000008,1870.055814499996,1870.918112899992,1870.9181175999984,1872.4348612999893,1873.4514845999947,w,13.0,0.8622983999957796,1,+1,592,-23.150038918949086,-0.07590689979582876,-0.19560474320713261,1860747.0,33.76854924224531,0.06332878723396185,-0.1382325022401827,1864281.0,,,,,1865.0356385800035,1861.5016385800036,
118,24,26,f,1,2,110.0,34,2,high,6 + 1 + 1 + 7 - 9,6,4,6,8,1874.9681634000156,1876.9935906000028,1878.5089283999987,1883.528955000016,1884.3819701000173,1884.381974899996,1885.89837000001,1886.9155612000031,w,6.0,0.8530151000013575,1,+10,602,-44.251362423261526,0.07588094854789773,0.19062235806189087,1874219.0,11.581121742681422,0.02329568730203535,0.04065616898246094,1877753.0,,,,,1878.5076385800035,1874.9736385800036,
119,24,26,f,1,2,111.0,35,1,low,3 + 1 + 1 + 9 - 1,13,12,13,14,1888.4328763000085,1890.4599607000127,1891.975305800006,1896.993122999993,1897.8541213000133,1897.8541261999928,1899.371351900016,1900.388157600013,w,13.0,0.860998300020583,1,+1,603,-62.23374284527603,0.3252215285980644,0.1625355235277368,1887685.0,7.03870858204465,-0.05013552158174939,0.1740055149361801,1891218.0,,,,,1891.9726385800036,1888.4396385800035,
120,24,26,f,1,2,112.0,36,2,high,6 + 1 + 8 + 5 - 1,19,18,19,17,1901.9051514000168,1903.930964900006,1905.4462541000105,1910.4643797999888,1911.4300285000063,1911.4300333000135,1912.9462605000008,1913.963485699991,w,19.0,0.965648700017482,1,+10,613,9.136135427506975,0.07521923838209421,0.03856270786035498,1901156.0,-21.13318620655923,0.08848683887429809,0.19891060695485296,1904689.0,,,,,1905.4436385800036,1901.9106385800035,
121,24,26,f,1,2,113.0,37,3,low,7 - 1 + 9 - 5 + 4,14,15,13,14,1915.480265399994,1917.5062764000031,1919.0214267999984,1924.0397834000175,1925.2300256000017,1925.2300303000084,1926.7463837999967,1927.7631925000169,e,14.0,1.1902421999839137,1,+1,614,-27.07271198874173,0.20124036767202735,0.05014342878732614,1914731.0,5.925669033201759,-0.11433805571699507,-0.06360389730449412,1918265.0,,,,,1919.0196385800036,1915.4856385800035,
122,24,26,f,1,3,114.0,0,3,high,8 + 4 + 1 - 7 + 9,15,13,15,16,1962.178123799997,1964.202901100012,1965.718045699992,1970.736643500015,1971.6700754000049,1971.6700806000156,1973.1867250000068,1974.2034260999933,w,15.0,0.9334318999899552,1,+10,624,11.59172156857423,-0.8494024141564278,-0.08289240451014823,1961428.0,-0.16577420646640562,0.38170433871985,0.09111530557741898,1964961.0,,,,,1965.7156385800035,1962.1826385800036,
123,24,26,f,1,3,115.0,1,2,low,5 + 1 + 7 - 6 + 1,8,8,7,6,1975.7205243000064,1977.747680300003,1979.262733700016,1984.280598000012,1985.3821981000076,1985.382203200017,1986.8987779000015,1987.9156888000143,q,8.0,1.1016000999952666,1,+1,625,-17.42942055377456,0.35387424157041414,0.04988427184664279,1974972.0,27.51789200231374,0.3574908598560169,0.09996696426958951,1978506.0,,,,,1979.2606385800036,1975.7266385800035,
124,24,26,f,1,3,116.0,2,2,low,7 + 5 + 1 - 1 - 8,4,3,4,2,1989.4321921000085,1991.4561343000096,1992.9713116000055,1997.9896196000043,1998.854128200008,1998.854132700013,2000.370851200016,2001.3878348,w,4.0,0.8645086000033189,1,+1,626,15.788301312643428,0.25823981969679366,-0.077977037692605,1988681.0,29.29471516783703,0.10952872060886643,-0.002160077810161365,1992214.0,,,,,1992.9686385800035,1989.4356385800036,
125,24,26,f,1,3,117.0,3,4,high,4 + 7 + 8 - 3 + 9,25,26,25,24,2002.9049490999896,2004.9317419000145,2006.4466602999887,2011.4653899999976,2013.5661878999963,2013.5661935000096,2015.0823984000017,2016.099533400004,w,25.0,2.1007978999987245,1,+10,636,8.134385198908118,0.055294860419278,0.015746139759303945,2002156.0,-7.0836145929928716,-0.1419562570825521,0.10382478051391342,2005690.0,,,,,2006.4446385800036,2002.9106385800035,
126,24,26,f,1,3,118.0,4,1,high,3 + 1 + 8 + 1 + 1,14,13,16,14,2017.6163048000017,2019.640148800012,2021.1552651000093,2026.1739115999956,2027.190208999993,2027.1902139000013,2028.7065732000049,2029.7238450000004,e,14.0,1.0162973999977112,1,+10,646,37.49261628385135,0.13792044383104285,0.12614626957773334,2016865.0,16.248614247361104,0.023024677442740504,0.0006825671447194814,2020398.0,,,,,2021.1526385800034,2017.6196385800035,
127,24,26,f,1,3,119.0,5,4,low,5 + 7 - 4 - 6 + 9,11,13,12,11,2031.240612199996,2033.2669601000089,2034.7821502000152,2039.800510900008,2040.758170200017,2040.7581752999977,2042.274618800002,2043.2917679999955,e,11.0,0.9576593000092544,1,+1,647,-5.958989730368538,0.48194803072684067,0.03709437627091616,2030491.0,46.95941333376033,0.5199432466557883,0.11907566910850309,2034025.0,,,,,2034.7796385800036,2031.2456385800035,
128,24,26,f,1,3,120.0,6,3,high,3 + 1 + 8 - 5 + 9,16,16,15,17,2044.8085171999992,2046.8362265999892,2048.3517120000038,2053.369879200007,2054.6701299000124,2054.6701347999915,2056.186564200005,2057.203879700013,q,16.0,1.300250700005563,1,+10,657,-5.991503835700141,-0.1701915494342794,-0.0016536737361021459,2044060.0,18.953915093275995,0.2689544810269795,-0.011331269591822402,2047594.0,,,,,2048.348638580004,2044.8146385800035,
129,24,26,f,1,3,121.0,7,4,low,8 + 7 - 4 + 5 + 9,25,24,26,25,2058.7204990000173,2060.747825300001,2062.2625543999893,2067.2813414999982,2069.2782406999904,2069.278245900001,2070.7946984000155,2071.811437299999,e,25.0,1.9968991999921852,1,+1,658,-18.225326561274898,0.13403156768727387,0.13901462678102794,2057972.0,14.422274647030996,0.1290908352653335,0.07196068608048156,2061505.0,,,,,2062.259638580004,2058.726638580004,
130,24,26,f,1,3,122.0,8,3,low,2 + 9 - 3 + 4 + 1,13,11,13,14,2073.3280763000075,2075.35572349999,2076.870884600008,2081.8892695000104,2082.7182453999994,2082.718251000013,2084.235016999999,2085.2520319000178,w,13.0,0.8289758999890182,1,+1,659,9.004307983531765,-0.08827060052365532,0.02066106223574038,2072580.0,13.124315790241532,-0.04218680983832712,-0.006449928265764404,2076113.0,,,,,2076.8676385800036,2073.3346385800037,
131,24,26,f,1,3,123.0,9,1,low,3 + 1 + 9 + 1 + 1,15,17,15,14,2086.769172200002,2088.7953605999937,2090.3104029000096,2095.3284088000078,2096.222255400004,2096.222260600014,2097.7386675000016,2098.755304099992,w,15.0,0.8938465999963228,1,+1,660,-3.204652704202214,0.12873807282522254,-0.011952246748508921,2086019.0,-26.609026006049284,0.000946431319448493,-0.020118930099127352,2089552.0,,,,,2090.306638580004,2086.7736385800035,
132,24,26,f,1,3,124.0,10,3,high,3 + 8 - 7 - 1 + 9,12,12,14,13,2100.2718983000086,2102.297641400015,2103.8134449000063,2108.8318904000043,2109.838247800013,2109.8382529999944,2111.354764699994,2112.371978100011,q,12.0,1.00635740000871,1,+10,670,-7.044543194071089,0.7316742365741811,0.21465868401760324,2099521.0,-61.80750397442824,0.3217323441746931,-0.12685106762520615,2103056.0,,,,,2103.810638580004,2100.275638580004,
133,24,26,f,1,3,125.0,11,3,high,2 + 9 + 1 - 5 + 7,14,12,14,15,2113.8886034000025,2115.9120784999977,2117.427286799997,2122.445613799995,2123.2142551,2123.2142606000125,2124.730614400003,2125.747774999996,w,14.0,0.7686413000046741,1,+10,680,0.5285786843961251,0.5917497136948091,1.5177390221603941,2113136.0,17.81231226976276,0.0011222915403585887,-0.1089255917335532,2116669.0,,,,,2117.4236385800036,2113.8906385800037,
134,24,26,f,1,3,126.0,12,1,low,2 + 1 + 9 + 1 - 1,12,11,12,13,2127.2646835999917,2129.2916693000006,2130.8063514000096,2135.825163500005,2136.670213900012,2136.670219199994,2138.186652200005,2139.2034985999926,w,12.0,0.8450504000065848,1,+1,681,-26.882075027856693,0.05094687196318981,0.056556567842964256,2126515.0,29.532582110455007,0.056590524014107135,0.052144302021892575,2130049.0,,,,,2130.8036385800037,2127.2696385800036,
135,24,26,f,1,3,127.0,13,1,high,7 + 1 + 4 + 1 - 1,12,13,12,11,2140.7202108000056,2142.746986999992,2144.2623131000146,2149.2820277000137,2150.038183900004,2150.0381886000105,2151.5547947000014,2152.572353900003,w,12.0,0.7561561999900732,1,+10,691,-56.77129093975019,0.11215329414682484,0.06554516149892975,2139971.0,4.459025012989077,0.32287708801604165,0.1724515625341685,2143506.0,,,,,2144.2606385800036,2140.7256385800038,
136,24,26,f,1,3,128.0,14,1,high,8 + 1 + 1 - 1 - 4,5,3,6,5,2154.0889719999977,2156.113042700017,2157.6279475000047,2162.646192799992,2163.59023609999,2163.5902407999965,2165.106669300003,2166.123911400005,e,5.0,0.9440432999981568,1,+10,701,17.856330483638686,0.06273298573627661,0.06744174756959675,2153337.0,-17.093233582784755,0.20008671157324143,-0.044852378617575406,2156870.0,,,,,2157.6246385800036,2154.0916385800037,
137,24,26,f,1,3,129.0,15,2,high,3 + 8 - 5 + 1 + 1,8,6,8,9,2167.6406228000124,2169.667715299991,2171.1828990000067,2176.2010500000038,2177.2222086999973,2177.222213900008,2178.739165900013,2179.7562376999995,w,8.0,1.0211586999939757,1,+10,711,2.8522500410640017,0.034608988390484985,0.047698518035738546,2166891.0,5.992924534377609,0.07327024694925788,-0.10208894119899936,2170424.0,,,,,2171.1786385800037,2167.645638580004,
138,24,26,f,1,3,130.0,16,3,high,5 + 7 + 1 - 4 + 6,15,15,13,17,2181.272981499991,2183.299377599993,2184.814628699998,2189.8323541000136,2191.05436390001,2191.0543692999927,2192.5708427999925,2193.588036800007,q,15.0,1.222009799996158,1,+10,721,31.173015439147026,0.0644562428077049,0.027939292395198434,2180523.0,20.907909996326467,-0.14729545140955302,-0.05592666844478433,2184056.0,,,,,2184.810638580004,2181.277638580004,
139,24,26,f,1,3,131.0,17,3,low,4 + 7 + 1 + 9 - 5,16,17,18,16,2195.105077300017,2197.1293178999917,2198.644496199995,2203.663034600002,2204.702430000005,2204.7024352000158,2206.2189384000085,2207.235761799995,e,16.0,1.0393954000028316,1,+1,722,-6.591905413820761,0.09011862070430299,-0.006090663747825964,2194353.0,53.714995378939975,-0.26226909080325456,-0.05495767977118016,2197886.0,,,,,2198.6406385800037,2195.107638580004,
140,24,26,f,1,3,132.0,18,1,low,8 + 1 + 1 + 1 - 3,8,6,9,8,2208.7524306999985,2210.7801195000065,2212.2952367000107,2217.313458199991,2218.566358100012,2218.566363399994,2220.08290139999,2221.0999844000034,e,8.0,1.2528999000205658,1,+1,723,-10.106695075417438,0.32753588141787837,0.030758411214962367,2208004.0,-0.4033697465641559,0.08713313977770065,-0.24241856271464268,2211536.0,,,,,2212.290638580004,2208.7586385800037,
141,24,26,f,1,3,133.0,19,2,low,6 + 8 + 1 + 1 - 7,9,11,8,9,2222.617257300008,2224.644018799998,2226.1591632000054,2231.177026099991,2232.1504219000053,2232.150427000015,2233.6669185000064,2234.683829699992,e,9.0,0.9733958000142592,1,+1,724,-14.756655640546999,-0.07045846784666843,-0.05672924720575945,2221867.0,-55.599730912813655,0.1815405519961213,0.007138488274916588,2225401.0,,,,,2226.1556385800036,2222.621638580004,
142,24,26,f,1,3,134.0,20,3,low,3 + 8 + 1 + 5 - 9,8,9,8,7,2236.200673000014,2238.228502400016,2239.7437819000043,2244.7615829000133,2246.3663977000106,2246.366402899992,2247.8826767000137,2248.899939499999,w,8.0,1.604814799997257,1,+1,725,-11.597492519402763,-0.14042871265202228,0.04381573861569121,2235452.0,4.648386452253347,-0.16113076399180226,0.0436305285170937,2238985.0,,,,,2239.739638580004,2236.206638580004,
143,24,26,f,1,3,135.0,21,3,high,9 - 5 - 1 - 6 + 8,5,4,7,5,2250.4168008000124,2252.441074400005,2253.956252300006,2258.97458129999,2259.8384047000145,2259.838409899996,2261.3548546000093,2262.372104500013,e,5.0,0.8638234000245575,1,+10,735,88.90993177441824,0.2631293497047569,-0.06267808345105208,2249664.0,-18.417412271780847,0.33408563271968994,0.10790262209632906,2253197.0,,,,,2253.951638580004,2250.418638580004,
144,24,26,f,1,3,136.0,22,3,high,7 + 1 + 9 + 5 - 6,16,14,16,15,2263.888788100012,2265.9148985999927,2267.4301195000007,2272.4485199000046,2273.366460399993,2273.366465300001,2274.8836825999897,2275.901206600014,w,16.0,0.9179404999886174,1,+10,745,3.4679308073084485,0.11802631549911213,0.04916688512495759,2263138.0,-39.36021311671384,0.20611902613824462,0.021200646071026785,2266671.0,,,,,2267.4256385800036,2263.8926385800037,
145,24,26,f,1,3,137.0,23,4,high,9 + 7 - 5 + 8 + 6,25,25,24,27,2277.417507800012,2279.4427711000026,2280.958003000007,2285.9762298999995,2287.2385304000054,2287.2385353000136,2288.7547466999968,2289.7721071999986,q,25.0,1.2623005000059493,1,+10,755,12.804357041758959,-0.18080883795263913,0.021891207572095173,2276665.0,-8.580422249944075,-0.23798765584336845,-0.024470856551154663,2280199.0,,,,,2280.953638580004,2277.4196385800037,
146,24,26,f,1,3,138.0,24,2,high,7 + 6 + 1 - 1 - 8,5,4,3,5,2291.288879,2293.315792600013,2294.831004000007,2299.8494273000106,2300.89445739999,2300.8944625000004,2302.4104888,2303.4275800000178,e,5.0,1.0450300999800677,1,+10,765,32.107025101853765,-0.001142082424985258,-0.013497919732311292,2290538.0,73.65188939384984,0.36478853446727033,0.029824206533300757,2294072.0,,,,,2294.826638580004,2291.2926385800038,
147,24,26,f,1,3,139.0,25,2,low,3 + 9 - 1 - 5 + 1,7,7,5,6,2304.9439515999984,2306.970528200007,2308.4858528999903,2313.5052134,2314.726412499993,2314.7264176000026,2316.242955599999,2317.259806599992,q,7.0,1.2211990999931004,1,+1,766,-14.638021358088423,-0.12384929792948096,0.09771369140312292,2304193.0,-23.97098186353951,-0.09990610415295675,0.10265290992352227,2307728.0,,,,,2308.482638580004,2304.947638580004,
148,24,26,f,1,3,140.0,26,3,low,2 - 4 + 9 + 7 + 1,15,13,15,16,2318.776545600005,2320.8036082999897,2322.318789700017,2327.3371816000144,2328.3264143000124,2328.326419499994,2329.8429971000005,2330.859846900013,w,15.0,0.989232699997956,1,+1,767,-13.169997278200007,0.10886935750332682,0.10800728275614624,2318026.0,-1.3892179843536034,0.30213591215035107,-0.10917232889316786,2321560.0,,,,,2322.3146385800037,2318.7806385800036,
149,24,26,f,1,3,141.0,27,2,high,4 + 9 - 7 + 1 - 1,6,8,6,5,2332.376508299989,2334.4022927999904,2335.9182434999966,2340.938758000004,2342.230454700009,2342.2304596000176,2343.7470073000004,2344.7642567000003,w,6.0,1.2916967000055593,1,+10,777,-8.943348311847455,0.05767731141897059,0.043684908839427994,2331625.0,10.006547667271546,-0.011757792279746493,0.07459826641650569,2335161.0,,,,,2335.915638580004,2332.3796385800038,
150,24,26,f,1,3,142.0,28,4,low,8 + 5 - 4 + 7 + 9,25,26,24,25,2346.281765199994,2348.3056489000155,2349.8211374999955,2354.839378900011,2357.254420400015,2357.2544258999988,2358.7711609000107,2359.787947500008,e,25.0,2.4150415000040084,1,+1,778,33.58278539089244,0.12823052364916165,0.4861287512546708,2345528.0,-15.704474433599223,0.34319632661922705,-0.06488765224150095,2349062.0,,,,,2349.8166385800037,2346.2826385800035,
151,24,26,f,1,3,143.0,29,4,low,8 + 4 - 5 + 7 - 6,8,7,6,8,2361.304643700016,2363.331049500004,2364.8466226000164,2369.865048800013,2370.374399499997,2370.374404300004,2371.8907329000067,2372.9075500000035,e,8.0,0.50935069998377,1,+1,779,9.72502468023747,-0.12952989040024576,-0.5066679979635373,2360553.0,20.85026956953695,0.264292281203101,0.06804491230060639,2364087.0,,,,,2364.8416385800037,2361.3076385800036,
152,24,26,f,1,3,144.0,30,4,low,8 + 4 + 7 - 5 - 6,8,9,7,8,2374.425150099996,2376.4517284000176,2377.9668758999906,2382.985715399991,2384.718568600016,2384.718573499995,2386.235090400005,2387.251971899997,e,8.0,1.7328532000246923,1,+1,780,-13.646418196881154,-0.004574298163812607,0.0304052460148172,2373674.0,-1.1920320569326792,0.08329234811592778,-0.09498726820852532,2377208.0,,,,,2377.962638580004,2374.4286385800037,
153,24,26,f,1,3,145.0,31,3,low,6 + 8 + 7 + 1 - 9,13,14,15,13,2388.768504100008,2390.795787800016,2392.3112925000023,2397.3296282000083,2398.5185551999894,2398.518560299999,2400.0351892999897,2401.051852100005,e,13.0,1.1889269999810494,1,+1,781,-27.431954819515866,-0.1564666205212113,0.03959258541915167,2388018.0,-9.887445964205568,0.16739426879873331,0.018497036656415,2391552.0,,,,,2392.306638580004,2388.772638580004,
154,24,26,f,1,3,146.0,32,2,low,3 + 9 + 1 - 5 + 1,9,9,7,8,2402.568972100009,2404.596766600007,2406.1114359000057,2411.1306118000066,2412.254699700017,2412.2547045999963,2413.770629400009,2414.7873808000004,q,9.0,1.124087900010636,1,+1,782,-6.141540849788812,0.10952005818719446,0.012681176162084418,2401819.0,16.22844270696978,-0.15301669893387926,0.04125854993229372,2405352.0,,,,,2406.1066385800036,2402.5736385800037,
155,24,26,f,1,3,147.0,33,3,low,5 + 6 + 7 - 1 - 9,8,8,9,7,2416.3040713999944,2418.3311318999918,2419.8464530000056,2424.864904499991,2425.990433400002,2425.9904383000103,2427.5072524000134,2428.523818299989,q,8.0,1.125528900010977,1,+1,783,9.813108182303393,0.4798052985032357,-0.036389196323835415,2415553.0,-2.5197078096751184,-0.13951252715919304,-0.004154848949788237,2419087.0,,,,,2419.8416385800037,2416.3076385800036,
156,24,26,f,1,3,148.0,34,2,low,9 + 4 + 5 + 1 - 1,18,18,19,17,2430.0406203000166,2432.0655574999982,2433.58157509999,2438.6002874000114,2439.678432300017,2439.678437099996,2441.194959799992,2442.2123230000143,q,18.0,1.0781449000060093,1,+1,784,22.433537837159037,0.09107147489029144,-0.022522795792813133,2429287.0,-1.2636431688887377,-0.05994310615013898,-0.06537768693460744,2432822.0,,,,,2433.576638580004,2430.0416385800036,
157,24,26,f,1,3,149.0,35,4,high,2 + 9 - 4 + 8 + 7,22,22,23,21,2443.7290191999928,2445.754900500004,2447.270095200016,2452.2887055000174,2453.302521000005,2453.3025258000125,2454.81906780001,2455.836265099992,q,22.0,1.013815499987686,1,+10,794,22.479702835828256,-0.019531845933371095,0.02776723537026382,2442977.0,12.240363546771594,-0.342900923237496,0.08331912654298113,2446510.0,,,,,2447.264638580004,2443.7316385800036,
158,24,26,f,1,3,150.0,36,4,low,9 + 8 - 5 - 7 + 6,11,11,10,13,2457.3528680000163,2459.380026300001,2460.895260499994,2465.915370600007,2466.8464816999917,2466.8464865999995,2468.363056900009,2469.380023500009,q,11.0,0.931111099984264,1,+1,795,-12.383017870312495,-0.2471786871483035,-0.033276459799852276,2456601.0,-21.38481744910604,-0.172181083160853,-0.08839710420612423,2460137.0,,,,,2460.891638580004,2457.355638580004,
159,24,26,f,1,3,151.0,37,1,low,4 + 1 + 1 + 7 - 1,12,12,14,13,2470.896462100005,2472.924556300015,2474.4397395999986,2479.4581989000144,2480.4466051000054,2480.446610300016,2481.964147599996,2482.981387000007,q,12.0,0.9884061999910044,1,+1,796,12.054664191222408,-0.02797927905327935,0.14292324164614545,2470146.0,-7.742345063632559,0.07848202484442401,-0.0836752254714257,2473679.0,,,,,2474.433638580004,2470.900638580004,
160,24,26,f,1,4,152.0,0,2,low,6 + 1 + 7 - 8 - 1,5,7,4,5,2517.922873000003,2519.948986500007,2521.4639961000066,2526.4846071999928,2528.798651399993,2528.7986574000097,2530.3151342000056,2531.332185100008,w,4.0,2.314044200000353,0,+0,796,33.91184430760724,0.03992965458037778,0.0374939134394785,2517170.0,-28.647236961023484,0.13205483592520695,-0.02717356263567683,2520705.0,,,,,2521.4596385800037,2517.924638580004,
161,24,26,f,1,4,153.0,1,1,low,2 + 1 + 9 + 1 - 1,12,13,11,12,2532.848832499993,2534.8762052000093,2536.391366900003,2541.4098926000006,2542.454670200008,2542.4546753000177,2543.9708623999904,2544.988839800004,e,12.0,1.0447776000073643,1,+1,797,-11.964468133777581,0.1871885310544532,-0.05517430162579706,2532097.0,-7.614623087717594,-0.9345890404294388,0.07896837170119952,2535631.0,,,,,2536.3856385800036,2532.851638580004,
162,24,26,f,1,4,154.0,2,4,high,3 + 8 - 7 + 9 - 5,8,7,9,8,2546.505508400005,2548.5309852999926,2550.046268700011,2555.0645610000065,2560.0813427999965,2560.0813454000163,2561.5978137000056,2562.61595810001,,,,0,Too Slow!,797,-8.778757340066939,-0.05808090578626546,-0.39622665560255776,2545752.0,24.3846665507529,-0.0650174787818707,-0.2358941653180282,2549286.0,,,,,2550.040638580004,2546.5066385800037,
163,24,26,f,1,4,155.0,3,4,high,8 + 4 + 7 - 5 - 6,8,8,9,6,2564.132742100017,2566.1562526999915,2567.671792400012,2572.689913200011,2573.5026105,2573.502615300007,2575.0191105999984,2576.036296800012,q,8.0,0.8126972999889404,1,+10,807,9.036691149686497,-0.023231394612035938,-0.8843460889438615,2563377.0,-8.074625543092482,0.18877779633838943,0.02100729446478744,2566911.0,,,,,2567.665638580004,2564.1316385800037,
164,24,26,f,1,4,156.0,4,3,high,8 - 7 + 9 + 1 + 4,15,16,15,14,2577.5529768000124,2579.576062900014,2581.091386799992,2586.1101064000104,2587.150589900004,2587.150594900013,2588.666782300017,2589.683883199992,w,15.0,1.04048349999357,1,+10,817,-43.610078163810556,0.06332331808675873,0.11132856607173558,2576797.0,2.6945168952686345,0.01572693553690918,-0.05231417966859642,2580330.0,,,,,2581.0846385800037,2577.551638580004,
165,24,26,f,1,4,157.0,5,3,high,4 + 1 + 8 + 9 - 5,17,19,17,18,2591.200688000012,2593.2238537000085,2594.739875900006,2599.7580456,2600.702654199995,2600.7026590000023,2602.218871099991,2603.236125299998,w,17.0,0.9446085999952628,1,+10,827,-16.228455459586257,0.377566767546075,-0.08794045527940453,2590444.0,4.457312753840673,0.019143362192037827,-0.04941222906124931,2593978.0,,,,,2594.732638580004,2591.1986385800037,
166,24,26,f,1,4,158.0,6,3,low,3 + 1 + 6 - 8 + 9,11,12,13,11,2604.753088500001,2606.7763589000097,2608.291327999992,2613.309424600011,2614.6867837000173,2614.6867885999964,2616.2028240000072,2617.2197163999954,q,12.0,1.377359100006288,0,+0,827,3.1155768898567002,-0.20867197656081116,-0.08422883474650433,2603997.0,-11.175728227305935,0.20629224593020767,-0.09436935042314198,2607530.0,,,,,2608.284638580004,2604.7516385800036,
167,24,26,f,1,4,159.0,7,2,low,6 + 1 + 1 + 7 - 9,6,6,8,4,2618.7363923999947,2620.759855100012,2622.275010000012,2627.2932560000045,2629.3746467000165,2629.3746522,2630.891326000012,2631.9082472000155,q,6.0,2.08139070001198,1,+1,828,0.5628192916651926,-0.4239654133925357,0.028446242376582775,2617980.0,-39.920419573538545,0.3767585465240799,-0.06410332696005039,2621514.0,,,,,2622.268638580004,2618.734638580004,
168,24,26,f,1,4,160.0,8,3,high,7 - 6 + 8 + 1 + 7,17,16,17,15,2633.425061599992,2635.452910299995,2636.9681562999904,2641.9861990000063,2643.254700399993,2643.254705200001,2644.7710719000024,2645.7881725000043,w,17.0,1.2685013999871444,1,+10,838,-7.890410371744073,0.28231328073963047,0.03941619585391254,2632673.0,19.438254138117642,0.08126563226715522,-0.12153431560233563,2636207.0,,,,,2636.9616385800036,2633.4276385800035,
169,24,26,f,1,4,161.0,9,1,high,4 + 7 + 1 - 1 - 1,10,10,9,11,2647.305197400012,2649.329471400008,2650.844427200005,2655.862289500016,2656.9187186000054,2656.9187236000143,2658.435656200017,2659.452972800005,q,10.0,1.056429099990055,1,+10,848,22.499745490988055,-0.5167106279697249,-0.0887528876634247,2646550.0,-0.11980447260799565,0.4608509270403043,-0.04218890842412604,2650083.0,,,,,2650.837638580004,2647.304638580004,
170,24,26,f,1,4,162.0,10,2,high,7 + 6 + 1 + 8 + 1,23,22,21,23,2660.9700952999992,2662.9957638999917,2664.5108256000094,2669.5291910000087,2670.6787306999904,2670.6787358,2672.195246599993,2673.212494800013,e,23.0,1.1495396999816876,1,+10,858,4.3555272074825515,-0.35033742899993126,-0.05172118957146865,2660216.0,5.516924308797805,-0.14237407803081448,-0.039359689646442764,2663749.0,,,,,2664.5036385800036,2660.9706385800037,
171,24,26,f,1,4,163.0,11,1,low,5 + 8 - 1 + 1 + 1,14,14,12,16,2674.7290637000115,2676.75699590001,2678.272303400008,2683.290433199989,2684.2706218000094,2684.270626600017,2685.7870177000004,2686.8038185999903,q,14.0,0.9801886000204832,1,+1,859,37.1231628818773,-0.415107733294902,0.03933809126133303,2673977.0,35.71253893466881,0.07195722981880737,0.1493743786691546,2677510.0,,,,,2678.264638580004,2674.7316385800036,
172,24,26,f,1,4,164.0,12,3,low,7 + 5 + 9 + 1 - 6,16,16,15,14,2688.3202179000077,2690.347260700015,2691.862517100002,2696.8828582999995,2698.1027333000093,2698.102738299989,2699.6192742999992,2700.6361463000067,q,16.0,1.2198750000097789,1,+1,860,5.075944973300321,-0.5868187468026198,0.005566996809908797,2687567.0,22.674663716708025,-0.1602210221487823,-0.08558730706490802,2691103.0,,,,,2691.857638580004,2688.3216385800038,
173,24,26,f,1,4,165.0,13,3,low,7 - 5 + 9 + 1 - 4,8,8,7,9,2702.152979400009,2704.176463999989,2705.6916532000178,2710.710310399998,2711.678755700006,2711.678760400013,2713.1953189999917,2714.212228199991,q,8.0,0.9684453000081704,1,+1,861,21.24879392289667,0.5511686616638394,0.06941564756101903,2701396.0,-1.3802447229345205,-0.05088852722732007,-0.0018031832291978134,2704930.0,,,,,2705.6846385800036,2702.150638580004,
174,24,26,f,1,4,166.0,14,4,low,2 + 5 - 3 + 9 + 8,21,22,19,21,2715.7293250999937,2717.75628110001,2719.2709381000022,2724.2893205000146,2726.982778900012,2726.982784199994,2728.499160700012,2729.5158752000134,e,21.0,2.6934583999973256,1,+1,862,16.18556684491412,-0.13115048182625744,0.12072443956986878,2714976.0,-3.8958856916858213,-0.09844619951135813,0.049141871336177534,2718509.0,,,,,2719.2636385800038,2715.730638580004,
175,24,26,f,1,4,167.0,15,1,high,2 + 9 + 1 + 1 + 1,14,13,14,12,2731.0325939000177,2733.059647899994,2734.5749594999943,2739.593001900008,2740.5027081000158,2740.502713099995,2742.0196001000004,2743.0372702000022,w,14.0,0.9097062000073493,1,+10,872,-21.175568612715765,0.5212541249720801,0.3001394825590018,2730279.0,18.339491036820135,-0.5994590858044528,-0.07301698643755139,2733813.0,,,,,2734.567638580004,2731.0336385800038,
176,24,26,f,1,4,168.0,16,1,high,9 + 8 + 1 + 1 - 1,18,20,18,17,2744.554099900008,2746.5767690000066,2748.0917747000058,2753.1097834999964,2754.174846400012,2754.1748514999927,2755.6912774000084,2756.708671500004,w,18.0,1.0650629000156189,1,+10,882,-10.143911971464917,-0.6797997748945441,-0.024971717415487982,2743796.0,38.81580414675156,0.10689573220578641,-0.029059312279568594,2747329.0,,,,,2748.083638580004,2744.5506385800036,
177,24,26,f,1,4,169.0,17,3,low,6 + 1 + 8 + 7 - 9,13,15,14,13,2758.226379,2760.2485423999897,2761.763720899995,2766.7822042999906,2767.822800099995,2767.822804700001,2769.339327499998,2770.3556775999896,e,13.0,1.040595800004667,1,+1,883,18.355145571301776,0.21967509439891408,0.16195428941321288,2757468.0,-24.740770732779044,0.5024763019350198,0.07597669545609431,2761002.0,,,,,2761.7566385800037,2758.2226385800036,
178,24,26,f,1,4,170.0,18,2,low,9 + 5 - 6 + 1 - 1,8,8,9,7,2771.872409300005,2773.8993577999936,2775.4145488000067,2780.4325749000127,2781.3748318,2781.374836700008,2782.891451800009,2783.9084494000126,q,8.0,0.9422568999871146,1,+1,884,5.775164712875156,-0.20292716788468423,-0.09377982595113354,2771119.0,53.49729773467014,0.031941473232058204,-0.18458888529693662,2774652.0,,,,,2775.406638580004,2771.873638580004,
179,24,26,f,1,4,171.0,19,3,high,2 + 1 + 9 - 7 + 6,11,11,12,13,2785.425209900015,2787.450460699998,2788.9658787999942,2793.986588700005,2794.886859499995,2794.886864900007,2796.4034216,2797.4207199999946,q,11.0,0.9002707999898121,1,+10,894,33.985212223008375,-0.04858790146124958,-0.13132682716802258,2784670.0,11.254931726293043,-0.3322133639129903,0.026281019649996296,2788205.0,,,,,2788.9596385800037,2785.424638580004,
180,24,26,f,1,4,172.0,20,3,high,6 - 1 + 7 - 8 + 9,13,11,13,12,2798.9377340000065,2800.96225099999,2802.4772139000124,2807.495947399992,2808.6708445000118,2808.6708493999904,2810.1873406000086,2811.2045612999937,w,13.0,1.1748971000197344,1,+10,904,23.83560287964772,-0.23690963610185545,0.010900018317473004,2798181.0,23.179424948723142,-0.11138431790314662,0.037488243534138155,2801715.0,,,,,2802.469638580004,2798.935638580004,
181,24,26,f,1,4,173.0,21,1,high,6 + 9 + 1 + 1 - 1,16,15,14,16,2812.721324999992,2814.7461855,2816.2613411000057,2821.2798103000096,2822.374886800011,2822.3748920999933,2823.891261700017,2824.9087090000103,e,16.0,1.0950765000015965,1,+10,914,0.7814521259690075,0.07066471119701623,0.07758278258065032,2811965.0,19.229810395400218,0.02726037286200267,-0.02231264399994415,2815499.0,,,,,2816.2536385800036,2812.719638580004,
182,24,26,f,1,4,174.0,22,2,high,7 + 8 + 1 + 9 + 1,26,25,26,24,2826.425512000016,2828.452363199991,2829.967603500001,2834.985841499991,2835.910815900017,2835.910820399993,2837.427121899993,2838.444459599996,w,26.0,0.924974400026258,1,+10,924,25.266144901870604,0.3488574649073759,0.050930342723899846,2825672.0,49.55883377240036,-0.2144657257935716,-0.037991611207159215,2829205.0,,,,,2829.9596385800037,2826.426638580004,
183,24,26,f,1,4,175.0,23,3,high,4 + 8 - 9 + 1 + 7,11,11,13,9,2839.961130999989,2841.9872516000178,2843.502483499993,2848.522607199993,2849.518817000004,2849.5188220000127,2851.0352822999994,2852.052376700012,q,11.0,0.996209800010547,1,+10,934,-0.7762171917710781,0.0768252618355234,-0.11965659789196437,2839207.0,10.948197209645087,-0.1078219664791944,0.12268371377731047,2842741.0,,,,,2843.4956385800037,2839.9616385800036,
184,24,26,f,1,4,176.0,24,2,low,2 + 1 + 9 - 4 + 1,9,9,11,8,2853.568967300001,2855.595957999991,2857.110903599998,2862.129178400006,2863.0468473999936,2863.0468529000063,2864.563522200013,2865.580428699992,q,9.0,0.9176689999876544,1,+1,935,12.416093343732626,-0.29257995533720527,0.015244813520852274,2852815.0,29.57909347070752,0.6481911411139789,-0.028142121755956984,2856348.0,,,,,2857.1026385800037,2853.569638580004,
185,24,26,f,1,4,177.0,25,2,high,3 + 1 + 8 - 5 - 1,6,5,7,6,2867.097344300011,2869.122444400011,2870.6384496999963,2875.6563274000077,2876.558832800016,2876.5588388000037,2878.0751717000094,2879.092623400007,e,6.0,0.902505400008522,1,+10,945,17.80718401074331,-0.15625718188050364,-0.008066890490187939,2866341.0,1.567335543186882,-0.08586275978418145,0.08052199841600127,2869875.0,,,,,2870.6296385800038,2867.0956385800037,
186,24,26,f,1,4,178.0,26,3,low,2 + 1 + 9 - 4 + 6,14,14,16,15,2880.609316599992,2882.637010000006,2884.1523214000044,2889.1707200999954,2890.0869512000063,2890.0869561000145,2891.603465399996,2892.6202656000096,q,14.0,0.9162311000109185,1,+1,946,-26.9599075719131,-0.0575221720475132,-0.030271521516624267,2879856.0,-56.250283882569065,0.28754672123938807,0.04014753059206555,2883389.0,,,,,2884.143638580004,2880.610638580004,
187,24,26,f,1,4,179.0,27,1,high,6 + 1 + 8 + 1 - 1,15,14,13,15,2894.137028600002,2896.160347600002,2897.6764096000115,2902.69422189999,2903.686864499992,2903.6868701000058,2905.203418499994,2906.220746600011,e,15.0,0.992642600002,1,+10,956,37.161719401089435,0.05065093688151512,-0.05251276049223286,2893379.0,28.294171601213865,0.15213210940442812,0.06437653062887061,2896913.0,,,,,2897.6676385800038,2894.1336385800037,
188,24,26,f,1,4,180.0,28,4,high,7 + 6 - 9 + 8 - 3,9,7,8,9,2907.7375228000164,2909.759276900004,2911.274445999996,2916.2931058999966,2920.638968300016,2920.6389731999952,2922.155641899997,2923.1727101000142,e,9.0,4.345862400019541,1,+10,966,22.62028770084514,0.13233162457777325,0.06849684785915477,2906978.0,68.34734068396104,-0.10646072791441918,0.028491393548469635,2910511.0,,,,,2911.2656385800037,2907.732638580004,
189,24,26,f,1,4,181.0,29,2,high,4 + 7 + 1 + 1 - 8,5,5,7,4,2924.6894119000062,2926.7152509000152,2928.2302515000047,2933.248278300016,2934.190953100013,2934.190958499996,2935.7075882999925,2936.7248644999927,q,5.0,0.942674799996894,1,+10,976,0.6686018961550939,0.40888865938278984,0.15716704794642244,2923934.0,12.620234459693862,-0.05562526273819257,-0.004151916142002721,2927467.0,,,,,2928.221638580004,2924.688638580004,
190,24,26,f,1,4,182.0,30,2,low,6 + 1 + 7 + 5 - 1,18,17,18,16,2938.241612799989,2940.267454399989,2941.782923199993,2946.8030149000115,2947.6389121999964,2947.6389168000023,2949.1554628000013,2950.1721827000147,w,18.0,0.8358972999849357,1,+1,977,-30.462614678489583,-0.4314472999515204,0.007040838027848384,2937486.0,63.209978708170354,-0.3077609988324945,0.049445983894845336,2941021.0,,,,,2941.775638580004,2938.2406385800036,
191,24,26,f,1,4,183.0,31,3,low,5 + 6 - 4 - 1 + 8,14,15,14,16,2951.6890570000105,2953.716716099996,2955.2318340000056,2960.249797299999,2961.134919300006,2961.134924699989,2962.651202000008,2963.668054400012,w,14.0,0.8851220000069588,1,+1,978,7.816717945153178,0.07620791705492769,0.05056622983920778,2950935.0,-15.775069080730821,-0.4600823934117382,-0.1711420621768025,2954468.0,,,,,2955.2226385800036,2951.6896385800037,
192,24,26,f,1,4,184.0,32,4,high,3 + 8 - 4 + 9 + 6,22,23,22,21,2965.1847149000096,2967.2078937999904,2968.7227312999894,2973.740808500006,2975.119030200003,2975.1190350000106,2976.635456399992,2977.6524363000062,w,22.0,1.3782216999970842,1,+10,988,-28.34288529804767,0.3053456665691403,0.11906915406727014,2964426.0,6.368156814554666,-0.12612136668854612,0.1071219219454631,2967959.0,,,,,2968.7136385800036,2965.1806385800037,
193,24,26,f,1,4,185.0,33,3,low,2 + 1 + 9 - 5 + 6,13,13,11,14,2979.1691206000105,2981.19307400001,2982.7081162999966,2987.7267687999997,2988.934865999996,2988.934871000005,2990.4513841000157,2991.4679353999963,q,13.0,1.2080971999967005,1,+1,989,10.190251667953506,0.14190603364225307,0.04729158902970387,2978411.0,-20.215141326593283,0.40828570545486587,-0.01427274404953538,2981945.0,,,,,2982.699638580004,2979.165638580004,
194,24,26,f,1,4,186.0,34,2,high,6 + 1 + 8 + 7 - 1,21,21,23,19,2992.984669199999,2995.011649699998,2996.5267816999985,3001.5460160000075,3002.5669255999965,3002.5669305000047,3004.0834091000143,3005.100373699999,q,21.0,1.020909599988954,1,+10,999,6.235829223397577,0.4471264450470489,-0.0743503545589097,2992229.0,-31.778455722831232,0.030386043896553527,-0.2600192112193678,2995763.0,,,,,2996.5176385800037,2992.9836385800036,
195,24,26,f,1,4,187.0,35,4,high,3 + 8 - 5 + 9 - 7,8,6,7,8,3006.617097600014,3008.6457275,3010.160770000017,3015.179392699996,3016.414962300012,3016.4149673999927,3017.931945599994,3018.9491499,e,8.0,1.235569600015879,1,+10,1009,-26.429496459360887,-0.1873470342407506,0.01489949018765313,3005863.0,7.105091661866355,0.46654092928212076,-0.03565918577051885,3009397.0,,,,,3010.1516385800037,3006.6176385800036,
196,24,26,f,1,4,188.0,36,2,high,8 + 1 + 7 + 1 - 4,13,13,12,14,3020.466056500009,3022.4937650999927,3024.008861500013,3029.027579799993,3029.934985300002,3029.9349902000104,3031.451421000005,3032.468574600003,q,13.0,0.9074055000091904,1,+10,1019,5.014747874936813,0.13075495911555413,-0.008211144681215421,3019711.0,14.81416997413396,0.19888799912127286,0.022990007035878612,3023245.0,,,,,3023.9996385800036,3020.4656385800035,
197,24,26,f,1,4,189.0,37,1,low,7 + 1 + 5 + 1 - 1,13,14,12,13,3033.9852845999994,3036.0135022999893,3037.528751900012,3042.547088499996,3043.6389777000004,3043.6389835000155,3045.1555965000007,3046.17227119999,e,13.0,1.0918892000045162,1,+1,1020,1.3998083447921186,0.5586555383167235,-0.10569890040848406,3033231.0,-20.621751101774784,0.4402867200418834,0.023267002572416207,3036765.0,,,,,3037.5196385800036,3033.985638580004,
198,24,26,f,1,5,190.0,0,2,high,9 + 6 + 1 + 7 + 1,24,25,24,23,3083.347038100008,3085.374274800008,3086.8894059000013,3091.908272700006,3092.751003000012,3092.751008399995,3094.267628600006,3095.2848661000025,w,24.0,0.8427303000062238,1,+10,1030,29.62627513345966,-0.43012359141848666,-0.15412419378561348,3082591.0,-19.693136353705718,0.21887147845109833,0.0165884332227062,3086125.0,,,,,3086.8796385800038,3083.3456385800037,
199,24,26,f,1,5,191.0,1,4,low,5 + 6 - 4 + 7 + 9,23,24,25,23,3096.8016139999963,3098.826478300005,3100.3423234999937,3105.360571600002,3106.311130100017,3106.311135099997,3107.827759500011,3108.844980199996,e,23.0,0.9505585000151768,1,+1,1031,3.564544848999364,-0.030731497373074568,0.0925881708308609,3096044.0,33.79571167803048,0.210863885966607,0.16837474544832776,3099578.0,,,,,3100.3326385800037,3096.7986385800036,
