,id,age,sex,cued,block,trial,trialinblock,efflev,rewlev,calc,corAns,option1,option2,option3,tstart,ITI1Time,probTime,respTime,selectTime,ITI2Time,fbTime,ITI3Time,key_press,chosenAns,RT,acc,feedback,total_points,cuescr,cuecor,cuezyg,cuetime,probscr,probcor,probzyg,probtime,fbscr,fbcor,fbzyg,fbtime,probtime_c,cuetime_c,fbtime_c
0,26,26,M,0,Practice,,0,1,0,4 + 1 + 9 + 1 + 1,16,14,15,16,83.99625300001935,,83.996255200007,89.02410730000702,91.44053170000552,91.44053700001676,92.95751460001338,93.9787164000154,w,15.0,2.4164243999985047,0,Incorrect,0,,,,,-16.08031409958822,-7.361326232912984,-5.712319683388218,83285.0,19.835415990003852,0.064250471082544,-0.024854458852605177,92239.0,84.0139629985118,,92.96796299851181
1,26,26,M,0,Practice,,1,1,0,3 + 1 + 1 + 8 - 1,12,11,12,10,95.49554160001571,,95.49554520001402,100.51646179999808,102.12071700001252,102.12072360000457,103.63744350001798,104.6572148000123,w,12.0,1.6042552000144497,1,Correct,0,,,,,11.7488725436639,-0.022719846508246988,-0.5265051691676894,94777.0,-43.03218988106331,0.8292161953119015,-0.2359509520918901,102918.0,95.5059629985118,,103.64696299851181
2,26,26,M,0,Practice,,2,2,0,8 + 1 + 6 + 1 - 4,12,11,10,12,106.17509870001231,,106.17510580000815,111.19496290001553,112.23277680002502,112.23278270001174,113.75000580001506,114.7687463000184,w,10.0,1.037813900009496,0,Incorrect,0,,,,,4.771309776502534,0.8609767069454461,0.2510532262145966,105455.0,-44.18234766774259,0.7504981548573495,-0.026062833252078477,113029.0,106.1839629985118,,113.7579629985118
3,26,26,M,0,Practice,,3,2,0,9 + 4 - 6 + 1 - 1,7,6,7,5,116.28637539999907,,116.28637890002574,121.30663770000685,123.40876800002296,123.40877420001198,124.92560270000833,125.9427827000036,q,6.0,2.1021303000161424,0,Incorrect,0,,,,,-31.627059495812848,0.29454407223562207,-4.058069161442232,115567.0,21.22672471959408,-0.05827902157703857,0.42146170104280767,124203.0,116.2959629985118,,124.9319629985118
4,26,26,M,0,Practice,,4,3,0,9 + 3 - 5 + 6 + 7,20,22,20,21,127.45931310000014,,127.45931669999844,132.4782869000046,133.93654310001875,133.93654930000775,135.4523224000004,136.46948729999713,q,22.0,1.458256200014148,0,Incorrect,0,,,,,-0.7043722974986117,0.5497259206577034,-0.2896598005454827,126739.0,1.0329701408902014,0.8324288946364016,0.5919631439821278,134730.0,127.46796299851181,,135.4589629985118
5,26,26,M,0,Practice,,5,3,0,2 + 1 + 9 - 7 + 6,11,10,9,11,137.98614590000943,,137.98614950000774,143.00618710002163,144.85674020001898,144.85674670001026,146.37367710002582,147.39132010002504,e,11.0,1.8505530999973416,1,Correct,0,,,,,6.6738955173923245,-0.044819240618647616,-0.30610179532273785,137266.0,-41.434449569318375,0.8824318119621477,-0.10711822494863021,145652.0,137.9949629985118,,146.3809629985118
6,26,26,M,0,Practice,,6,4,0,4 + 8 + 5 - 3 + 7,21,21,22,23,148.9084357000247,,148.90843920002226,153.92904840002302,155.52866410001295,155.5286705000035,157.0454158000066,158.06363020002027,e,23.0,1.599615699989954,0,Incorrect,0,,,,,-2.8708648112810913,1.3402892833178095,-0.16146459682654468,148189.0,-1.4439779887092996,0.3661272211274502,0.48216801052995173,156324.0,148.9179629985118,,157.05296299851182
7,26,26,M,0,Practice,,7,4,0,5 + 8 - 4 + 6 + 9,24,23,24,22,159.58025660002022,,159.58025990001624,164.59998310002263,165.68076499999734,165.68077120001544,167.1977515000035,168.21591780000017,w,24.0,1.0807818999746814,1,Correct,0,,,,,-29.913184278684938,1.0054033820465982,0.20581521955306803,158860.0,-3.6390143349698256,-1.0389118285676355,-4.081884843624988,166476.0,159.58896299851182,,167.2049629985118
8,26,26,M,1,0,0.0,0,2,low,6 + 1 + 1 + 7 - 9,6,6,4,8,286.5183761000226,288.54542239999864,290.06081760002417,295.0795201000001,297.0224134000018,297.0224186000123,298.5397300000186,299.5569972000085,e,8.0,1.9428933000017423,0,+0,0,-3.9639964433953487,0.34913528070556055,0.24346312003595605,285805.0,26.862527250155907,2.6312172380924195,-0.2873293097845271,289339.0,-15.47285718515933,0.037610104038506176,-0.3205015634760846,466703.0,290.0679629985118,286.5339629985118,467.4319629985118
9,26,26,M,1,0,1.0,1,4,low,8 + 4 + 7 - 5 - 6,8,6,8,9,301.0740258000151,303.09952720001456,304.6147734000115,309.633302000002,310.56642270000884,310.56642840002314,312.0827585000079,313.09968330001,w,8.0,0.9331207000068388,1,+1,1,0.4377492236493019,0.0971421212156347,-0.2863047531860228,300358.0,-34.30407815902232,0.5920746085706341,0.17328044944221643,303893.0,-6.8616922002479726,4.489063725467927,-2.7962900734859186,311359.0,304.6219629985118,301.0869629985118,312.0879629985118
10,26,26,M,1,0,2.0,2,3,low,2 - 4 + 9 + 7 + 1,15,15,13,16,314.6172237000137,316.64203570000245,318.15711270002066,323.17628980000154,324.3424931000045,324.34249840001576,325.858962600003,326.875615099998,q,15.0,1.1662033000029624,1,+1,2,10.593159717479342,0.8880835421777187,1.3336539137835093,313901.0,-5.785245330406369,-0.1390955867971595,-0.7426224278596267,317436.0,-8.747436289494193,-0.0060729999373041466,1.8275840947183681,325135.0,318.1649629985118,314.6299629985118,325.8639629985118
11,26,26,M,1,0,3.0,3,4,high,2 + 9 - 4 + 8 + 7,22,22,23,21,328.3924967000203,330.4181150000077,331.9336364000046,336.9521123000013,337.9185123000061,337.91851760001737,339.43614930001786,340.45348920000833,q,22.0,0.9664000000047964,1,+10,12,-14.284118117724795,-10.874248872364262,-8.170631359733193,327678.0,2.962459002589757,0.8345829471815494,0.4726850297531793,331211.0,-15.438329189003868,-0.33129094094689737,1.770541494086351,338713.0,331.9399629985118,328.4069629985118,339.4419629985118
12,26,26,M,1,0,4.0,4,1,low,8 + 1 + 1 + 1 - 3,8,8,6,9,341.9699753000168,343.9952529000002,345.5110895000107,350.5304920000199,351.3664540000027,351.3664588000101,352.8830575000029,353.900200300006,q,8.0,0.8359619999828283,1,+1,13,12.814294854324542,0.473758612257428,-0.8126458618543353,341254.0,-2.773484469670631,0.7480518187945959,-1.0765943431053104,344789.0,17.26194051226058,-0.17483255975548317,0.2188621532345758,352159.0,345.5179629985118,341.9829629985118,352.8879629985118
13,26,26,M,1,0,5.0,5,1,high,9 + 8 + 1 + 1 - 1,18,19,18,17,355.41701810000814,357.4437532000011,358.9588706000068,363.9770538000157,364.9425889000122,364.94259420002345,366.459199600009,367.4763684000063,w,18.0,0.9655350999964868,1,+10,23,-7.524300490232498,-0.045307984806012946,0.4444976205762199,354703.0,15.23197702259893,-0.33680479655291506,0.23739401106214242,358236.0,25.593165212623337,-0.22580346159628562,0.05646590596439793,365735.0,358.9649629985118,355.4319629985118,366.4639629985118
14,26,26,M,1,0,6.0,6,4,high,6 + 7 + 9 - 3 + 5,24,22,24,23,368.9931388000259,371.0176288000075,372.53298830002313,377.553044100001,378.6785356000182,378.6785411000019,380.1948552000104,381.2121212000202,q,22.0,1.1254915000172332,0,+0,23,100.18091817139037,0.528410066566205,0.0546729403925994,368276.0,2.4690360773706974,0.5802219408893334,-0.4695823712937379,371812.0,8.621315136138827,0.12210825538011472,0.9979418111466996,411297.0,372.5409629985118,369.0049629985118,412.02596299851183
15,26,26,M,1,0,7.0,7,2,high,9 + 6 + 1 + 7 + 1,24,23,25,24,382.72902749999776,384.75249810001696,386.267689100001,391.2854530000186,396.3033905000193,396.3033929000085,397.8200790999981,398.84188760002144,,,,0,Too Slow!,23,23.855747721136243,1.4099141116728822,-0.5264690417181006,382012.0,-2.6930240422074907,0.6254931975572067,0.4200969217430086,385545.0,49.8818052890968,-2.2367245952549646,0.661816357009978,397101.0,386.2739629985118,382.7409629985118,397.8299629985118
16,26,26,M,1,0,8.0,8,4,high,5 + 6 - 4 + 7 + 9,23,25,23,24,400.3584228999971,402.3860205000092,403.90117500000633,408.9198495000019,410.5025177000207,410.5025230000029,412.0196687999997,413.037859700009,w,23.0,1.5826682000188157,1,+10,33,-11.174312175792409,1.6098263938569897,0.3144673549683996,399645.0,-9.016775618152163,1.5178559200672668,1.605924079502262,403179.0,5.7787051779133805,0.12344005000762825,1.4418702719826504,1294214.0,403.9079629985118,400.3739629985118,1294.9429629985118
17,26,26,M,1,0,9.0,9,3,low,3 - 7 + 5 + 1 + 9,11,12,13,11,414.5551666000101,416.5778872000228,418.0932639000239,423.1116803000041,425.6946233000199,425.6946290000051,427.2118301000155,428.2292395000113,e,11.0,2.5829430000158027,1,+1,34,-4.229158908287882,-3.0654712139570623,-3.513940251037763,413837.0,-35.63131668562826,0.46617224311912153,-0.25368993731571887,417370.0,,,,,418.0989629985118,414.5659629985118,
18,26,26,M,1,0,10.0,10,1,high,2 + 1 + 1 + 9 - 1,12,11,12,13,429.7458673000219,431.76820960000623,433.28338980002445,438.30161270001554,439.1265089000226,439.1265144000063,440.6429730000091,441.660301099997,w,12.0,0.8248962000070605,1,+10,44,4.669607999236998,-1.3183412559293228,-1.7568810062857114,429027.0,9.797611064969033,0.5169584131954066,0.9744970005367635,432560.0,,,,,433.2889629985118,429.7559629985118,
19,26,26,M,1,0,11.0,11,3,high,2 + 1 + 9 - 5 + 6,13,11,14,13,443.1774251000024,445.2002656000259,446.7156331000151,451.7356177000038,452.5666396000015,452.5666449000128,454.0832480000099,455.10067390001495,e,13.0,0.8310218999977224,1,+10,54,-11.527200405457693,0.44561529991658944,-2.497996357650911,442459.0,-59.4193843030173,0.7121541585403577,-0.004902446304185126,445994.0,,,,,446.72296299851183,443.1879629985118,
20,26,26,M,1,0,12.0,12,2,high,8 + 1 + 7 + 1 - 4,13,13,12,14,456.61761760001536,458.6445671000111,460.1600672000204,465.1786836000101,465.9105383999995,465.9105438000115,467.4272264000029,468.44458020001184,q,13.0,0.7318547999893781,1,+10,64,-57.357117238237976,1.3761590227163545,0.704486071822426,455903.0,24.31756182584802,1.3090413774881124,-1.977994770431664,459437.0,,,,,460.1659629985118,456.6319629985118,
21,26,26,M,1,0,13.0,13,2,low,5 + 7 - 8 + 1 + 1,6,7,8,6,469.9612848000252,471.9884474000137,473.5036889000039,478.5223990000086,480.27061750000576,480.27062270001625,481.7872327000077,482.8041702000192,e,6.0,1.748218499997165,1,+1,65,17.026449396466617,4.261939695609003,1.8249879946587235,469247.0,2.8993013425938017,0.6775331937117959,-5.599273472644477,472781.0,,,,,473.5099629985118,469.9759629985118,
22,26,26,M,1,0,14.0,14,4,high,3 + 8 - 5 + 9 - 7,8,8,7,6,484.3209722000174,486.3480584000063,487.8632514000056,492.882059800002,495.9105936000124,495.91059880002285,497.4268909000093,498.44412130001,e,6.0,3.028533800010337,0,+0,65,15.201280354140657,0.5173779471476943,-0.6328591171064097,483606.0,10.347310690911648,2.2015836304429803,-0.1139521186606629,487140.0,,,,,487.8689629985118,484.3349629985118,
23,26,26,M,1,0,15.0,15,2,low,2 + 1 + 9 - 4 + 1,9,8,9,11,499.9611176000035,501.9883492000226,503.5037012000103,508.5221884000057,509.9906682000146,509.9906740000006,511.5072471000021,512.5242052000249,w,9.0,1.468479800008936,1,+1,66,-12.502946739517146,0.31335022960727965,-2.216343220310847,499247.0,18.95238336425965,0.6986429003968935,1.7486499562323865,502780.0,,,,,503.5089629985118,499.9759629985118,
24,26,26,M,1,0,16.0,16,3,high,7 - 1 + 9 - 5 + 4,14,14,13,15,514.04107810001,516.0679228000226,517.5829102999996,522.6018063000229,524.2067379000073,524.2067437000223,525.7233871000062,526.740726900025,w,13.0,1.6049315999844112,0,+0,66,-117.60911360128544,0.18675710242751364,0.11655933947770158,513326.0,-37.371638872580114,0.2589950059835564,-5.149771281889865,516860.0,,,,,517.5889629985119,514.0549629985119,
25,26,26,M,1,0,17.0,17,1,low,7 + 1 + 4 + 1 - 1,12,13,14,12,528.2573891000065,530.2851267000078,531.8003713000217,536.8186990000249,537.5826693999988,537.5826748000109,539.0993163000094,540.1162132000027,e,12.0,0.763970399973914,1,+1,67,41.047636332047304,-0.3514100563823712,-0.1038850479467528,527543.0,-7.683200063266206,0.633010785220772,0.22870261938229097,531077.0,,,,,531.8059629985119,528.2719629985119,
26,26,26,M,1,0,18.0,18,1,high,3 + 1 + 1 + 9 - 1,13,14,13,12,541.6330783000158,543.6603486000095,545.1755866000021,550.1943921000056,550.8786200000031,550.8786253000144,552.3959393000114,553.4130959000031,e,12.0,0.6842278999974951,0,+0,67,20.306829198767865,-0.007952754844477106,0.3107801569771116,540918.0,-15.06172359111783,0.14928482979396396,0.22187537392020396,544452.0,,,,,545.1809629985119,541.6469629985119,
27,26,26,M,1,0,19.0,19,3,low,7 + 5 + 9 + 1 - 6,16,14,16,15,554.9295034000243,556.9533575000241,558.4687104000186,563.4881902000052,564.3107180000225,564.3107233000046,565.8269873000099,566.8439434000175,w,16.0,0.8225278000172693,1,+1,68,35.132522907035,0.6245315255521091,0.08563665839936352,554211.0,-0.08377966872844045,0.7502279588875376,-0.014631655053083392,557745.0,,,,,558.4739629985119,554.9399629985119,
28,26,26,M,1,0,20.0,20,4,low,3 + 8 - 7 + 9 - 5,8,9,7,8,568.3607037000183,570.3877274999977,571.9027585000149,576.9213219000085,577.4226233000227,577.4226290000079,578.9392909000162,579.9565638000204,q,9.0,0.5013014000141993,0,+0,68,-20.960013323575964,1.0728635156327084,-0.6724110403325323,567645.0,-6.616958985234325,0.24143056857551937,-0.5883690738274465,571179.0,,,,,571.9079629985118,568.3739629985118,
29,26,26,M,1,0,21.0,21,3,low,2 + 1 + 9 - 4 + 6,14,15,14,16,581.4733854000224,583.4985521000053,585.0138909000088,590.0338874000008,590.8466753000102,590.846680800023,592.3634432000108,593.3802976000006,w,14.0,0.8127879000094254,1,+1,69,9.321498881077707,1.0374643068805813,0.03422336742525811,580757.0,-53.01625127505589,-0.07353931092171795,-0.01392272040622089,584292.0,,,,,585.0209629985119,581.4859629985118,
30,26,26,M,1,0,22.0,22,2,high,6 + 1 + 8 + 5 - 1,19,17,19,18,594.897179200023,596.9237857999979,598.4391234000213,603.4572150000022,604.1667503000062,604.166755800019,605.683159600012,606.7007565000094,w,19.0,0.7095353000040632,1,+10,79,-21.887032668491326,-0.18447536444537382,-0.8152069576486736,594182.0,19.98987836626092,0.829983147689759,0.6450002361934115,597715.0,,,,,598.4439629985119,594.9109629985119,
31,26,26,M,1,0,23.0,23,2,high,9 + 4 - 6 + 1 - 1,7,9,7,8,608.2174298000173,610.2430262000125,611.7582733000163,616.7763445000164,617.990729800018,617.9907352000009,619.5074528999976,620.5249227000168,w,7.0,1.2143853000015952,1,+10,89,45.41081137307366,1.1189583516946326,-1.0843850614909787,607500.0,-13.415456362736588,1.0139690303839446,-0.8641486024347653,611034.0,,,,,611.7629629985119,608.2289629985119,
32,26,26,M,1,0,24.0,24,4,high,4 + 9 - 7 + 8 + 5,19,21,19,20,622.0411084000079,624.0683028000058,625.5833949000225,630.601911100006,632.3586871000007,632.3586930000165,633.8752691000118,634.8926396000024,w,19.0,1.7567759999947157,1,+10,99,9.069985362318855,0.9452039406081778,-0.2760769939340797,621326.0,2.5107984753166566,0.29064994196756677,0.06190869737458726,624859.0,,,,,625.5879629985119,622.0549629985119,
33,26,26,M,1,0,25.0,25,1,low,2 + 1 + 9 + 1 - 1,12,11,12,13,636.4093403000152,638.4346989000042,639.9499176000245,644.9684581000183,645.4707554000197,645.4707611000049,646.9871418999974,648.0038416000025,w,12.0,0.5022973000013735,1,+1,100,-32.885850494211056,0.33320855005931227,0.092327778683023,635693.0,6.779235720020863,0.4129017154478394,-0.3405477399432355,639226.0,,,,,639.9549629985119,636.4219629985118,
34,26,26,M,1,0,26.0,26,4,high,8 + 7 - 4 + 5 + 9,25,24,26,25,649.5208296000201,651.5479276000115,653.0632161000103,658.0812300000107,660.2547814999998,660.2547873000149,661.7710859000217,662.7884242,w,26.0,2.173551499989117,0,+0,100,11.21198863446413,0.6682494311433804,1.0750367712731963,648805.0,3.5838192901566837,0.8993068784984408,-0.6151435565528232,652339.0,,,,,653.0679629985119,649.5339629985118,
35,26,26,M,1,0,27.0,27,3,low,4 + 7 - 3 + 5 - 1,12,12,11,13,664.3055102000071,666.3305862999987,667.8466262000147,672.8653764000046,673.5270186999987,673.52702400001,675.0429559000186,676.0596381000069,q,12.0,0.6616422999941278,1,+1,101,-7.697925723592229,0.8586767269622895,2.9317403381726206,663587.0,-4.055530214477019,1.4103132145801203,-0.9899562168484515,667123.0,,,,,667.8519629985119,664.3159629985118,
36,26,26,M,1,0,28.0,28,3,low,5 + 6 + 7 - 1 - 9,8,7,9,8,677.5765900000115,679.6009905000101,681.1161769000173,686.1345577000175,689.0548266000114,689.0548323000257,690.5714213000028,691.5892768000194,e,8.0,2.920268899993971,1,+1,102,24.854527152487396,0.7816344653457858,-0.8766581182586304,676858.0,-4.760419063477155,0.5520754508354577,0.13963906215663968,680392.0,,,,,681.1209629985119,677.5869629985118,
37,26,26,M,1,0,29.0,29,3,high,4 + 1 + 8 + 9 - 5,17,17,19,18,693.1065448000154,695.1335732000007,696.6485249000252,701.666806400026,703.7587667000189,703.7587722000026,705.2753140999994,706.2926163000229,q,17.0,2.091960299992934,1,+10,112,-5.2671393142086025,0.7254232751323517,0.4022166991667899,692390.0,4.036136279682161,0.6577783166804658,-0.12824340026581194,695924.0,,,,,696.6529629985118,693.1189629985118,
38,26,26,M,1,0,30.0,30,1,low,8 + 1 + 1 - 1 - 4,5,6,3,5,707.8094185000227,709.8362854000006,711.3514266000129,716.3695142000215,717.0867498000152,717.0867550999974,718.6031687000068,719.6205851999985,e,5.0,0.7172355999937281,1,+1,113,9.74675171380002,-0.2771424308973378,-0.4295172054524117,707093.0,39.77638273842378,0.20160407760257115,0.9674670864315886,710627.0,,,,,711.3559629985118,707.8219629985118,
39,26,26,M,1,0,31.0,31,3,low,7 - 1 + 8 - 6 + 4,12,12,11,13,721.137081599998,723.1630894000118,724.6782907000161,729.6983929999988,730.3427462000109,730.3427515000221,731.8595937000064,732.8766557000054,q,12.0,0.6443532000121195,1,+1,114,-29.242196821948074,19.170633173950662,2.3542362764490363,720420.0,17.400078241479747,1.0622269555169446,1.7772488186411017,723955.0,,,,,724.6839629985119,721.1489629985118,
40,26,26,M,1,0,32.0,32,2,low,7 + 1 + 9 - 1 - 8,8,6,8,7,734.3931999000197,736.4208428999991,737.9359167000221,742.9544747000036,743.462830000004,743.4628352000145,744.9794003000134,745.996286700014,w,8.0,0.5083553000004031,1,+1,115,17.98177445922013,0.8569777344728267,0.09857724268779577,733678.0,6.135567590748908,0.766920592811362,-1.4176770104958383,737211.0,,,,,737.9399629985119,734.4069629985119,
41,26,26,M,1,0,33.0,33,3,low,5 + 6 - 4 - 1 + 8,14,16,14,15,747.5131232000131,749.5375239000132,751.0527126000088,756.0722213000117,756.7347445000196,756.7347493999987,758.2512266999984,759.2680334000033,w,14.0,0.662523200007854,1,+1,116,-13.239538847613126,0.3957971149944033,-0.8372716554636792,746795.0,8.78458542423106,0.6280887218948652,-0.6441994365313031,750329.0,,,,,751.0579629985118,747.5239629985118,
42,26,26,M,1,0,34.0,34,3,high,4 + 7 + 1 + 9 - 5,16,17,18,16,760.7846026000043,762.8084051000187,764.323627500009,769.3419362000132,770.3188013000181,770.3188063999987,771.835753899999,772.8531277000147,e,16.0,0.9768651000049432,1,+10,126,40.798910848137695,0.7491739346256532,-0.21436323545311975,760065.0,11.978546121210051,0.6417527946159076,0.37377044090115774,763599.0,,,,,764.3279629985119,760.7939629985119,
43,26,26,M,1,0,35.0,35,2,high,8 + 1 + 9 + 1 - 5,14,15,14,13,774.3700485000154,776.3965950999991,777.9119950000022,782.930422800011,783.6149219000072,783.6149272000184,785.1317568000231,786.1492695000197,w,14.0,0.6844990999961738,1,+10,136,25.560562001207533,0.844297792078414,0.7880519043265686,773653.0,13.569253013155551,1.0172021910019717,-12.002433370277569,777187.0,,,,,777.9159629985119,774.3819629985119,
44,26,26,M,1,0,36.0,36,3,high,5 + 6 - 4 - 1 + 7,13,14,15,13,787.6661057000165,789.6937115000037,791.208775200008,796.2271783000033,797.2307692000177,797.2307748000021,798.7472761000099,799.7646449000167,e,13.0,1.0035909000143874,1,+10,146,-16.81794147536588,0.5438924159245495,2.4824705749006384,786951.0,-6.889444246774863,0.6476474111992809,-3.3725344364177303,790484.0,,,,,791.2129629985119,787.6799629985119,
45,26,26,M,1,0,37.0,37,2,high,3 - 1 + 9 - 5 + 1,7,6,7,5,801.2814895000192,803.3080808000232,804.823381299997,809.8418724000221,811.054850000015,811.054855800001,812.5712848000112,813.5886001000181,w,7.0,1.2129775999928825,1,+10,156,-19.003078966936062,0.5876841344453787,-0.4062660455401961,800565.0,-3.8670714494104956,0.5283625017121345,-0.4172903722381536,804098.0,,,,,804.8269629985118,801.2939629985119,
46,26,26,M,1,1,38.0,0,4,low,7 + 6 - 9 + 8 - 3,9,9,8,7,854.3712499000248,856.3963616999972,857.9113894000184,862.9314359000127,864.5189428000012,864.5189480000117,866.0360770999978,867.0549491000129,e,7.0,1.5875068999885116,0,+0,156,5.852571643386444,0.718504682798994,-0.2409249038794834,853653.0,-28.748815658793017,0.7030352057228462,0.697537277491231,857188.0,,,,,857.9169629985118,854.3819629985119,
47,26,26,M,1,1,39.0,1,4,high,5 + 8 - 4 - 6 + 9,12,13,12,14,868.571979100001,870.5996198000212,872.1146981000202,877.1339289000025,878.278958800016,878.2789646000019,879.795841300016,880.8134755000065,q,13.0,1.1450299000134692,0,+0,156,-9.698505865299396,0.5308151194365291,-1.3140759787723457,867856.0,-39.1789617669102,0.9516171592252234,-0.15766872004947663,871390.0,,,,,872.1189629985118,868.5849629985119,
48,26,26,M,1,1,40.0,2,1,low,7 + 1 + 4 + 1 - 1,12,12,11,13,882.3305668000248,884.3578227000253,885.8730404000089,890.8913597000064,891.526944000012,891.5269493000233,893.044298599998,894.0614239000133,q,12.0,0.6355843000055756,1,+1,157,3.3751059895802964,0.1576735487989791,-8.788472237953384,881613.0,-1.0616803881556507,0.3121225988219658,-0.06284520350151546,885148.0,,,,,885.8769629985119,882.3419629985119,
49,26,26,M,1,1,41.0,3,2,low,2 + 9 - 4 + 1 + 1,9,8,9,11,895.5783037000219,897.6058742000023,899.1211732000229,904.1396416000208,906.390886500012,906.3908918000234,907.9074411000184,908.9243069000077,w,9.0,2.251244899991434,1,+1,158,-33.95979692282074,0.607388398679896,0.8362438828061958,894862.0,-4.360637730766584,0.87693698379399,-0.03984650811053747,898396.0,,,,,899.1249629985118,895.5909629985118,
50,26,26,M,1,1,42.0,4,4,high,2 + 9 - 3 + 5 + 8,21,23,21,22,910.441162400006,912.4662487000168,913.98142180001,918.9999110000208,919.7028720000236,919.7028773000056,921.2191750000056,922.2366176000214,w,21.0,0.7029610000026878,1,+10,168,-35.75321775098695,0.5141445757173257,0.24929688987740395,909722.0,-36.790714490589686,1.134584272283607,0.2162038981619938,913256.0,,,,,913.9849629985118,910.4509629985118,
51,26,26,M,1,1,43.0,5,1,high,3 + 1 + 8 - 1 + 1,12,13,12,10,923.7535079000228,925.7767738999974,927.291798100021,932.3112302000228,932.9350268999988,932.9350324000116,934.4513287000008,935.4687018000112,w,12.0,0.6237966999760829,1,+10,178,-17.62255363806622,0.2059204984385019,-0.0610578583638981,923033.0,17.50440233160707,-0.2789438789874903,-0.7160996784432321,926567.0,,,,,927.2959629985119,923.7619629985119,
52,26,26,M,1,1,44.0,6,4,high,4 + 8 + 9 - 3 + 7,25,26,24,25,936.985414900002,939.0071973000012,940.5221167000128,945.5405666000152,947.518911000021,947.518916400004,949.035461600026,950.0526915000228,e,25.0,1.9783444000058807,1,+10,188,-77.12104877339296,0.7414211503785384,-0.05900535241034266,936263.0,26.230141568091984,0.650020748423275,-0.010255304474412696,939796.0,,,,,940.5249629985119,936.9919629985119,
53,26,26,M,1,1,45.0,7,1,low,6 + 1 + 8 + 1 + 1,17,16,17,15,951.569283400022,953.5961176000128,955.1113895000016,960.1294381000044,960.6629627000076,960.6629680000189,962.1794929000024,963.1965056000043,w,17.0,0.5335246000031475,1,+1,189,0.4938162960298964,-0.07934194925250404,-0.5244255055148068,950852.0,-4.686193413468155,0.012435425133185518,-0.2905560925338291,954385.0,,,,,955.1139629985119,951.5809629985118,
54,26,26,M,1,1,46.0,8,1,low,5 + 1 + 1 + 9 + 1,17,17,19,16,964.7134879000076,966.7357344000192,968.2510031000128,973.2687663000252,973.983030000003,973.9830357000174,975.4994103000208,976.5163034000144,q,17.0,0.7142636999778915,1,+1,190,1.6571785349852153,0.3132329935298661,1.896746292159973,963992.0,-17.554989771363807,0.14880096943193966,-10.928292201201772,967525.0,,,,,968.2539629985118,964.7209629985118,
55,26,26,M,1,1,47.0,9,1,high,7 - 1 + 9 + 1 - 1,15,14,15,13,978.0329972000036,980.0593230000233,981.5748960000057,986.5936399000057,989.303074299998,989.3030800000124,990.8195734000184,991.8370812000068,e,13.0,2.7094343999924604,0,+0,190,-42.85565751642713,-0.03583101299894986,-0.8128128911505126,977315.0,5.884546034298026,0.18975487387412748,-0.9140522387031629,980849.0,,,,,981.5779629985119,978.0439629985119,
56,26,26,M,1,1,48.0,10,4,high,5 + 7 - 4 - 6 + 9,11,11,13,12,993.3539294000076,995.3775313000078,996.8929261000012,1001.9126020999976,1005.3030222000089,1005.3030276000208,1006.8198377000226,1007.8371111000016,q,11.0,3.390420100011397,1,+10,200,-17.744530799334115,0.3281912928225692,0.20289115829153115,992634.0,4.7566403076071815,0.9514249316164802,-2.155349874643143,996169.0,,,,,996.8979629985118,993.3629629985119,
57,26,26,M,1,1,49.0,11,2,high,7 + 5 + 1 + 9 + 1,23,23,22,21,1009.3537691000092,1011.3807636999992,1012.8959816000132,1017.9148702000092,1018.4950190000236,1018.4950243000058,1020.0117503000074,1021.0289268000053,q,23.0,0.5801488000142854,1,+10,210,18.124195269200893,0.27198746874867696,0.747531909711995,1008636.0,16.07038605462987,0.6050504602790441,-1.4050179586953417,1012171.0,,,,,1012.8999629985119,1009.3649629985118,
58,26,26,M,1,1,50.0,12,1,high,6 + 1 + 8 + 1 - 1,15,13,15,14,1022.5457208000008,1024.5726627000258,1026.0879055999976,1031.1064435000008,1031.7110495000088,1031.711055200023,1033.2276562000045,1034.244955000002,w,15.0,0.6046060000080615,1,+10,220,5.463272775715481,1.5421761107753538,2.3838073627005247,1021828.0,31.30897357800989,-0.1819723259001731,-1.2356996270980565,1025362.0,,,,,1026.090962998512,1022.5569629985118,
59,26,26,M,1,1,51.0,13,2,high,9 + 6 + 1 + 7 + 1,24,25,23,24,1035.761862000014,1037.7890293000091,1039.3039648999984,1044.3218628000177,1046.055019899999,1046.055025300011,1047.571647500008,1048.5888781000103,w,23.0,1.7331570999813266,0,+0,220,-27.282304267705726,0.6610534722036832,0.399790431596287,1035044.0,-5.401073905101947,0.7427344360644597,-5.365576365568032,1038577.0,,,,,1039.3059629985119,1035.772962998512,
60,26,26,M,1,1,52.0,14,4,low,4 + 7 - 8 + 9 - 3,9,11,8,9,1050.1057545000222,1052.1296892000246,1053.644878000021,1058.663326400012,1061.134989400016,1061.1349948999996,1062.6517171000014,1063.6686870999984,e,9.0,2.4716630000039004,1,+1,221,-95.73740069749283,0.6473741015044503,0.4926711912938124,1049385.0,-38.363098498487716,0.7468712882243871,-0.15785994488000465,1052919.0,,,,,1053.647962998512,1050.1139629985119,
61,26,26,M,1,1,53.0,15,2,high,7 + 6 + 1 - 1 - 8,5,3,4,5,1065.1854420000163,1067.2114466000055,1068.7265249000047,1073.745423400018,1075.3350459000212,1075.3350515000056,1076.851494100003,1077.868400700012,q,3.0,1.5896225000033155,0,+0,221,5.748353221765143,0.4172095836204437,1.1656642437146942,1064467.0,87.75370031696755,0.7441140131855604,-0.5525132039636311,1068000.0,,,,,1068.7289629985119,1065.195962998512,
62,26,26,M,1,1,54.0,16,2,low,6 + 1 + 7 - 8 - 1,5,5,4,7,1079.385284500022,1081.4127663000254,1082.9279470000183,1087.9481308000104,1089.9271044000052,1089.927109900018,1091.44365880001,1092.4603022000229,q,5.0,1.978973599994788,1,+1,222,4.483755552726758,0.7907736528725304,-0.4957472453947407,1078668.0,-5.758678320290517,0.35631858414187745,-0.506170053240278,1082203.0,,,,,1082.9319629985118,1079.3969629985118,
63,26,26,M,1,1,55.0,17,2,low,8 + 1 + 1 + 9 - 4,15,16,15,14,1093.9770100000023,1096.0004689000198,1097.5154436000155,1102.533842600009,1103.2551262000052,1103.2551316000172,1104.7714823000133,1105.7889965000213,w,15.0,0.7212835999962408,1,+1,223,6.071027634480869,0.6821677081521917,-0.4418680418474077,1093256.0,4.6870203453859105,0.626681444352367,-0.02927845512702909,1096789.0,,,,,1097.5179629985118,1093.984962998512,
64,26,26,M,1,1,56.0,18,2,low,9 + 4 + 5 + 1 - 1,18,19,18,17,1107.3058310000051,1109.3316486999977,1110.846905400016,1115.8649669000006,1116.4391076000177,1116.439112699998,1117.9557718000142,1118.972966500005,w,18.0,0.5741407000168692,1,+1,224,7.284472038921492,0.27657998908373793,-0.841779057816427,1106587.0,5.10816248077295,1.2591309916395939,0.043393912964550196,1110120.0,,,,,1110.8489629985118,1107.3159629985118,
65,26,26,M,1,1,57.0,19,1,high,4 + 9 + 1 - 1 - 1,12,12,13,11,1120.4895504000017,1122.5166816000128,1124.0322347000183,1129.0503565000254,1131.4472600000154,1131.4472652999975,1132.9637490000168,1133.9812035000068,q,12.0,2.396903499990003,1,+10,234,14.08145316196957,0.0903360971130982,0.6488959170291642,1119771.0,6.235581335772157,0.5135316181288405,-1.1327699758072818,1123305.0,,,,,1124.033962998512,1120.4999629985118,
66,26,26,M,1,1,58.0,20,2,low,6 + 1 + 1 + 8 - 9,7,9,7,5,1135.4978708999988,1137.5240553000183,1139.0393421000044,1144.0595615000057,1148.3511118000024,1148.351116900012,1149.8679202000203,1150.8851067000069,w,7.0,4.291550299996743,1,+1,235,13.55235295004276,0.9923613003109799,-0.6270225572847457,1134779.0,24.16171337508447,1.2492521468513216,0.5290960406139487,1138314.0,,,,,1139.042962998512,1135.5079629985119,
67,26,26,M,1,1,59.0,21,3,low,9 + 3 - 4 + 6 + 7,21,21,23,22,1152.4019372000184,1154.4260937000215,1155.9420573000098,1160.9606750000094,1161.927194000018,1161.927199400001,1163.4437518000195,1164.4608109000255,w,23.0,0.9665190000087024,0,+0,235,-27.71948201912025,0.8292140243836306,-0.6535945386585142,1151681.0,-12.046236684313254,1.210574137348666,-1.036641274413597,1155215.0,,,,,1155.9439629985118,1152.409962998512,
68,26,26,M,1,1,60.0,22,3,low,9 - 5 - 1 - 6 + 8,5,4,7,5,1165.978073300008,1168.0027391000183,1169.5181498000163,1174.5363922000106,1176.9991284999996,1176.9991343000147,1178.5159485000186,1179.5329969000013,q,4.0,2.4627362999890465,0,+0,235,-9.047677270068528,0.7298388123052488,-0.19166621415405594,1165258.0,-18.85922281061507,0.7484111020020952,0.315614002175336,1168791.0,,,,,1169.5199629985118,1165.986962998512,
69,26,26,M,1,1,61.0,23,1,low,6 + 9 + 1 + 1 - 1,16,15,16,14,1181.0494037000171,1183.0763798000116,1184.5913198000053,1189.6103945000214,1190.4231833000083,1190.4231887000203,1191.9395070000028,1192.9564198000007,w,16.0,0.8127887999871746,1,+1,236,15.2440155090341,-0.5814939695687755,0.9561714695460632,1180331.0,13.070903037124122,0.3386636359591497,0.7869282507997477,1183865.0,,,,,1184.5939629985119,1181.0599629985118,
70,26,26,M,1,1,62.0,24,1,low,4 + 7 + 1 - 1 - 1,10,10,9,11,1194.473152999999,1196.4985870000091,1198.0135818000126,1203.0325514000142,1203.631264800002,1203.631270200014,1205.1485564000031,1206.1652362000025,q,10.0,0.5987133999879006,1,+1,237,14.205310291278057,0.45438696975749515,-0.2754643111763162,1193753.0,18.927313350508797,0.026188867249199,0.19284837176726644,1197287.0,,,,,1198.015962998512,1194.4819629985118,
71,26,26,M,1,1,63.0,25,4,high,5 + 7 - 4 + 8 + 6,22,23,22,24,1207.6819799000225,1209.7095493000234,1211.22469860001,1216.2433151000005,1220.687298600009,1220.6873046000255,1222.2036806000106,1223.2206659000076,q,23.0,4.443983500008471,0,+0,237,15.71031770280759,-11.25562543302782,-7.617526739731135,1206964.0,-4.155904832596686,-0.18301100744031817,-2.1634423963491556,1210498.0,,,,,1211.226962998512,1207.6929629985118,
72,26,26,M,1,1,64.0,26,4,low,9 + 4 - 6 + 8 + 7,22,22,24,21,1224.7373229000077,1226.765195600019,1228.280375000002,1233.299059700017,1234.8392541000212,1234.8392605000115,1236.355941900023,1237.37389290001,w,24.0,1.5401944000041112,0,+0,237,14.637418933552405,0.574807264314535,-0.11246998569018851,1224019.0,18.145125196954226,1.6677250817987304,0.2732219604647699,1227553.0,,,,,1228.281962998512,1224.7479629985119,
73,26,26,M,1,1,65.0,27,3,high,6 - 1 + 7 - 8 + 9,13,13,11,12,1238.8903949000232,1240.9174507000134,1242.4329575000156,1247.4517110000015,1247.9273373000033,1247.9273430000176,1249.443503700022,1250.4606465000252,q,13.0,0.4756263000017497,1,+10,247,7.619448971691162,0.7603962896969767,-0.025216490734112362,1238172.0,-46.00666106817146,1.0361751519320461,-0.8523913791340902,1241706.0,,,,,1242.4349629985118,1238.900962998512,
74,26,26,M,1,1,66.0,28,3,low,7 - 6 + 8 + 1 + 7,17,17,16,15,1251.9776320000235,1254.0024387000012,1255.5174303000094,1260.5356707000174,1262.2632905000064,1262.263295700017,1263.779951500008,1264.7969285,q,17.0,1.7276197999890428,1,+1,248,-26.55615559801533,0.841280156534884,1.6544173985533117,1251257.0,8.873710857311831,0.4351803517904296,-0.8288968784005091,1254790.0,,,,,1255.5189629985118,1251.985962998512,
75,26,26,M,1,1,67.0,29,4,low,6 + 9 + 7 - 3 - 5,14,15,13,14,1266.3138913000005,1268.3409259000036,1269.856444100005,1274.8754084000248,1275.7993012000225,1275.7993066000054,1277.315909500001,1278.3330015000247,e,14.0,0.9238927999977022,1,+1,249,-2.686433740479618,0.44364087963795784,0.02870716163808451,1265595.0,33.23731751514778,0.997282886288636,0.411603406948434,1269130.0,,,,,1269.858962998512,1266.323962998512,
76,26,26,M,1,1,68.0,30,4,low,3 + 8 - 4 + 9 + 7,23,22,23,24,1279.8494057000207,1281.8735445000057,1283.3887845000136,1288.4075090000115,1293.425020499999,1293.4250228000164,1294.9418125000084,1295.959706499998,,,,0,Too Slow!,249,0.03859557331168534,0.8912129902310024,-3.301797385444986,1279128.0,10.885506817349926,-0.11277374232614168,0.2602921655066708,1282662.0,,,,,1283.390962998512,1279.8569629985118,
77,26,26,M,1,1,69.0,31,4,low,8 + 3 - 4 + 5 + 9,21,21,22,23,1297.476410800009,1299.502598799998,1301.0175622000245,1306.0368298000249,1306.655236700026,1306.6552417000055,1308.1716917000012,1309.1885385000205,q,21.0,0.6184069000009913,1,+1,250,11.298113546868583,0.42668316953112084,-1.4617298598520927,1296756.0,11.46209537019066,1.065935333972598,-0.3539457086094657,1300291.0,,,,,1301.0199629985118,1297.484962998512,
78,26,26,M,1,1,70.0,32,3,high,6 - 1 + 7 - 8 + 9,13,13,12,11,1310.7053416999988,1312.7307549000252,1314.2459300000046,1319.2644894999976,1319.7192497000217,1319.7192550000036,1321.2357745000045,1322.2533535000111,q,13.0,0.4547602000238839,1,+10,260,-2.426272195203646,0.2040597898392429,0.11812687030102653,1309985.0,18.273314202511205,0.14573741588762035,-0.3753059834233783,1313518.0,,,,,1314.246962998512,1310.7139629985118,
79,26,26,M,1,1,71.0,33,2,high,3 + 1 + 8 - 5 - 1,6,5,6,7,1323.7704049000167,1325.796152200026,1327.3112500999996,1332.3307189000188,1332.8632066000137,1332.863212199998,1334.379520300019,1335.3967567000072,w,6.0,0.5324876999948174,1,+10,270,2.530655064753941,0.2593386856378306,0.09353827244459723,1323050.0,12.937535532143883,0.6548803128500342,-0.0029351929653484987,1326585.0,,,,,1327.313962998512,1323.7789629985118,
80,26,26,M,1,1,72.0,34,1,high,8 + 1 + 4 + 1 + 1,15,15,16,14,1336.913484700024,1338.9411240000045,1340.4559093000134,1345.4739044000162,1346.17525640002,1346.1752613999995,1347.6916966999995,1348.7094137000097,q,15.0,0.7013520000036806,1,+10,280,-2.3871482604576446,-0.032233637104537305,-0.642951213092485,1336195.0,-28.202299744217417,0.02328634288159126,-0.5237316918178578,1339728.0,,,,,1340.456962998512,1336.9239629985118,
81,26,26,M,1,1,73.0,35,2,high,4 + 8 + 1 + 1 - 5,9,11,8,9,1350.226144300017,1352.2527937999985,1353.768051799998,1358.7872154000215,1359.3113011000096,1359.31130630002,1360.8277875000203,1361.844734800019,e,9.0,0.5240856999880634,1,+10,290,33.44951271888126,0.6666330009219346,-0.5118333429623831,1349506.0,-4.53638068986311,0.6745870313807636,1.5491561676338916,1353041.0,,,,,1353.7699629985118,1350.234962998512,
82,26,26,M,1,1,74.0,36,4,low,7 + 6 + 8 - 4 + 5,22,22,21,23,1363.3615023000166,1365.3859904000128,1366.9009015000192,1371.9194063000032,1372.6552823000238,1372.6552875000052,1374.1717738000152,1375.188994600001,w,21.0,0.735876000020653,0,+0,290,13.861898872483046,0.46161622859174845,-0.02959557177509442,1362639.0,10.463717562248156,0.6642151865559627,-0.29270038609058524,1366173.0,,,,,1366.9019629985119,1363.3679629985118,
83,26,26,M,1,1,75.0,37,4,low,8 + 4 + 7 - 5 - 6,8,8,7,9,1376.706007000001,1378.731336500001,1380.246880700026,1385.2654848000093,1385.9513777000248,1385.9513827000046,1387.467853500013,1388.4851756000137,q,8.0,0.6858929000154603,1,+1,291,5.441385591226007,0.36414343494748236,0.11375937867351471,1375985.0,34.1593802755291,0.39747693464346945,-0.07144310986514624,1379519.0,,,,,1380.2479629985119,1376.7139629985118,
84,26,26,M,1,2,76.0,0,2,low,8 + 1 + 4 - 7 + 1,7,5,6,7,1443.9399402000126,1445.9674764000229,1447.482683900016,1452.5027155000134,1453.6473351000168,1453.647340800002,1455.1641742000063,1456.1812328000087,e,7.0,1.1446196000033524,1,+1,292,22.11900202177341,0.29409458218736484,1.2255436094837249,1443221.0,-5.010493960481773,0.4926137090296625,-0.7997220112274448,1446756.0,,,,,1447.484962998512,1443.9499629985119,
85,26,26,M,1,2,77.0,1,3,high,3 + 1 + 8 - 5 + 9,16,16,15,17,1457.6979995000002,1459.7238045000122,1461.2392205000217,1466.25924080002,1467.4394292000216,1467.439435200009,1468.956079000025,1469.9735966000007,q,16.0,1.180188400001498,1,+10,302,2.284330514245834,0.8952100891405692,-0.0869510204707522,1456977.0,-5.32797969064854,0.6772426462359014,0.04207775650068246,1460512.0,,,,,1461.2409629985118,1457.705962998512,
86,26,26,M,1,2,78.0,2,4,high,6 + 9 + 7 - 3 - 5,14,14,12,13,1471.4904382000095,1473.5146621000022,1475.0300644000235,1480.0485717999982,1480.511392800021,1480.5113979000016,1482.0279530000116,1483.0457491000125,q,14.0,0.4628210000228137,1,+10,312,1.3206893865512193,0.8721157680639782,2.0787970316101667,1470768.0,26.836940401910265,0.5593027485693991,-0.8022213874129749,1474302.0,,,,,1475.0309629985118,1471.496962998512,
87,26,26,M,1,2,79.0,3,3,low,7 - 5 + 9 + 1 - 4,8,8,7,9,1484.562578800018,1486.5895256000222,1488.104732900014,1493.1232093000144,1493.5994581000125,1493.5994637999977,1495.1159069999994,1496.1327931999986,q,8.0,0.4762487999978475,1,+1,313,25.847270433810525,0.9751200775879145,-0.546482570020796,1483842.0,-33.071550873028045,0.9692778631219601,-0.09105025763347374,1487376.0,,,,,1488.1049629985118,1484.570962998512,
88,26,26,M,1,2,80.0,4,3,high,4 + 5 - 3 + 7 - 1,12,12,13,11,1497.6495270000014,1499.675404300011,1501.1905408000166,1506.2091830999998,1506.7194091000129,1506.7194141000218,1508.235684000014,1509.252586800023,q,12.0,0.5102260000130627,1,+10,323,-25.626751264636795,0.4931177740954529,0.7381339293254943,1496928.0,-59.07884580516485,0.9622725778687893,0.570483877539421,1500462.0,,,,,1501.1909629985118,1497.656962998512,
89,26,26,M,1,2,81.0,5,1,high,4 + 8 + 1 - 1 - 1,11,13,11,9,1510.769226400007,1512.795175700012,1514.3105244000035,1519.3286105000009,1519.8634293000214,1519.8634349000058,1521.3799745000142,1522.3972491000022,w,11.0,0.5348188000207301,1,+10,333,13.452904327036608,0.23027748080113453,1.5908366245665952,1510048.0,-21.14957512064584,0.18024132678254734,-0.9242021601191883,1513581.0,,,,,1514.3099629985118,1510.7769629985119,
90,26,26,M,1,2,82.0,6,2,high,4 + 1 + 9 + 1 - 6,9,7,8,9,1523.9139993000135,1525.9416301000165,1527.4567551000218,1532.4752050000243,1533.4555399000235,1533.4555454000074,1534.972100700019,1535.989231000014,q,7.0,0.980334899999434,0,+0,333,10.98099901781168,0.597937979341689,-0.18987219937351796,1523194.0,-95.0856450815427,0.8849159574850738,-1.383504778054169,1526728.0,,,,,1527.456962998512,1523.9229629985118,
91,26,26,M,1,2,83.0,7,1,high,2 + 1 + 9 + 1 + 1,14,13,14,12,1537.5057013000187,1539.5319137000188,1541.047193200007,1546.0659697000228,1546.5434222000183,1546.543427800003,1548.0598886000223,1549.0772921000023,w,14.0,0.4774524999957066,1,+10,343,22.00639473887155,0.18411100690914628,-3.2507329079787883,1536785.0,1.781827883183146,0.016613837074228144,-1.4584272345883935,1540319.0,,,,,1541.0479629985118,1537.513962998512,
92,26,26,M,1,2,84.0,8,3,low,7 + 1 + 9 + 5 - 6,16,14,15,16,1550.594141000009,1552.618037200009,1554.132963400014,1559.1994169000243,1561.2634442000126,1561.263449400023,1562.7799782000077,1563.796764300001,e,16.0,2.0640272999880835,1,+1,344,25.43640893911408,0.8886915314060162,-0.3341354932998737,1549871.0,36.39322343757695,0.827593901655995,-0.5338610253122935,1553452.0,,,,,1554.1809629985119,1550.599962998512,
93,26,26,M,1,2,85.0,9,4,high,4 + 7 - 8 + 9 - 4,8,7,8,9,1565.3135380000167,1567.3380894000002,1568.8533342000155,1573.8717102000082,1574.4074468000035,1574.4074523000163,1575.9237569000106,1576.941299900005,w,8.0,0.535736599995289,1,+10,354,16.21227352020782,0.6540223697959706,0.6606049146627457,1564590.0,47.942678969623586,1.1010505162550221,-0.2400818687274766,1568125.0,,,,,1568.8539629985119,1565.3189629985118,
94,26,26,M,1,2,86.0,10,3,low,3 + 8 - 7 + 1 + 9,14,12,13,14,1578.4580604000075,1580.4842184000008,1581.999399500026,1587.0178812000086,1588.423536200018,1588.4235417000018,1589.9398774,1590.956675100024,e,14.0,1.405655000009574,1,+1,355,-28.325145092206817,0.6593050884363265,-1.4908562516518202,1577737.0,-12.569945680428365,0.8990547449987738,-1.736544275849675,1581270.0,,,,,1581.9989629985118,1578.465962998512,
95,26,26,M,1,2,87.0,11,4,low,6 + 5 - 7 + 8 - 9,3,3,4,5,1592.4738645000034,1594.5008864999982,1596.0161587000184,1601.034710900014,1603.7435001000122,1603.743505899998,1605.2602069000131,1606.2780613000214,e,5.0,2.7087891999981366,0,+0,355,10.597847937554892,0.6826944958416505,-0.3328921001340275,1591753.0,6.489285155820437,0.6103250179105482,-1.1652778608067242,1595287.0,,,,,1596.015962998512,1592.4819629985118,
96,26,26,M,1,2,88.0,12,1,low,3 + 1 + 9 + 1 + 1,15,15,17,14,1607.7946735000005,1609.8216909000184,1611.3368620999972,1616.3558911000146,1616.9274784000008,1616.9274835000106,1618.4439144000062,1619.4609377000015,q,15.0,0.5715872999862768,1,+1,356,-9.091588518741247,0.5581158940846049,0.3990109001197437,1607074.0,-1.7024401385583143,0.3029063328328072,-1.00108381435453,1610608.0,,,,,1611.3369629985118,1607.802962998512,
97,26,26,M,1,2,89.0,13,1,low,8 - 1 + 1 + 6 + 1,15,14,16,15,1620.977973800007,1623.0024366000143,1624.5177580000018,1629.5355832000205,1630.2714624000073,1630.2714678000193,1631.787994000013,1632.804378300003,e,15.0,0.7358791999868117,1,+1,357,6.803357047645987,0.14668838098676718,0.9267176178811596,1620255.0,75.46723072501187,0.08081419438306314,-0.8326274462571464,1623788.0,,,,,1624.5169629985119,1620.983962998512,
98,26,26,M,1,2,90.0,14,2,high,9 + 5 - 6 + 1 - 1,8,7,8,9,1634.3207714000018,1636.3476473000192,1637.8627821000118,1642.8811715000193,1643.3515151000174,1643.3515202999988,1644.8678728000086,1645.8850186000054,w,8.0,0.4703435999981593,1,+10,367,9.971689876186849,-0.05340667057305115,-0.9486634835800247,1633600.0,-7.261651958937593,1.5222654764941703,0.04503615825126417,1637133.0,,,,,1637.861962998512,1634.3289629985118,
99,26,26,M,1,2,91.0,15,1,high,5 + 9 - 1 + 1 + 1,15,13,15,17,1647.4019619000028,1649.4293757000123,1650.9444459000078,1655.96261040002,1657.8955198000183,1657.8955248999991,1659.4120417000086,1660.4298062000016,e,17.0,1.9329093999986071,0,+0,367,15.294253307730095,-0.027363681131059803,0.721001612412512,1646681.0,8.618623793311503,-0.09190747471484473,-0.7079173527184377,1650215.0,,,,,1650.9439629985118,1647.409962998512,
100,26,26,M,1,2,92.0,16,1,high,9 + 8 + 1 + 1 - 1,18,17,20,18,1661.9465845000232,1663.9683489000015,1665.4844697000226,1670.5027850000188,1671.991827800026,1671.991833000007,1673.507972500025,1674.525397999998,e,18.0,1.4890428000071552,1,+10,377,4.940536675617719,0.14132614813756073,1.0665002886740371,1661221.0,-24.588280945499,-0.5119275099659921,0.018746904233524653,1664755.0,,,,,1665.483962998512,1661.9499629985119,
101,26,26,M,1,2,93.0,17,1,low,7 + 1 + 6 + 1 + 1,16,16,18,17,1676.042201400007,1678.0679770999996,1679.5833086000057,1684.601174600015,1685.5036927000035,1685.503698000015,1687.0202505000052,1688.037160900014,q,16.0,0.9025180999888108,1,+1,378,9.744248032202565,-0.2207804650217149,0.7181612186752933,1675319.0,0.6779762520142549,0.2329033889949761,-0.5288387039073656,1678853.0,,,,,1679.581962998512,1676.0479629985118,
102,26,26,M,1,2,94.0,18,3,high,8 + 5 + 1 - 7 + 9,16,14,16,17,1689.553997700015,1691.582341900008,1693.0973225000198,1698.1156756000128,1700.1996609000198,1700.1996664000037,1701.7161100000085,1702.7330844000098,e,17.0,2.0839853000070434,0,+0,378,-15.84362778368373,0.4848299776592615,-0.2672880569453975,1688834.0,27.653118916927294,0.9103500212325262,-0.5584936112168872,1692367.0,,,,,1693.0959629985118,1689.562962998512,
103,26,26,M,1,2,95.0,19,4,low,7 + 8 - 4 + 6 - 5,12,13,12,11,1704.2498335000128,1706.2759351000132,1707.7912846000108,1712.8100621000049,1713.6717153000063,1713.6717206000176,1715.1880510000046,1716.2051032000163,q,13.0,0.8616532000014558,0,+0,378,-30.646382395014836,0.6784321804484073,0.6294874165192228,1703528.0,21.56358221684824,-0.0839930433292082,-0.9494382470278993,1707062.0,,,,,1707.7909629985118,1704.2569629985119,
104,26,26,M,1,2,96.0,20,3,high,4 + 8 - 9 + 1 + 7,11,11,13,9,1717.7219206000154,1719.7480790000118,1721.2636279000144,1726.2816901000042,1726.959694800025,1726.9597005000105,1728.4766011000029,1729.4938353000034,q,11.0,0.6780047000211198,1,+10,388,4.208063665350364,1.1939159226663598,-0.30078398216538993,1717000.0,3.251351046797251,0.6384566219231012,0.3887760831784455,1720534.0,,,,,1721.262962998512,1717.7289629985119,
105,26,26,M,1,2,97.0,21,2,high,7 + 8 + 1 + 9 + 1,26,24,26,25,1731.0104675000184,1733.0381649000046,1734.5531906000106,1739.5714239000226,1742.431619400013,1742.4316252999995,1743.948379800015,1744.9655479000066,w,26.0,2.8601954999903683,1,+10,398,4.130171289427782,0.442341605090137,0.3526236535111993,1730289.0,-4.112265339463736,0.4862529081226912,-0.48203770805150814,1733823.0,,,,,1734.551962998512,1731.0179629985118,
106,26,26,M,1,2,98.0,22,3,high,9 - 1 + 5 - 6 + 8,15,14,17,15,1746.48189190001,1748.5098905000195,1750.0250976000098,1755.0429427000054,1756.151652200002,1756.151659000025,1757.6682307000156,1758.6862406000146,e,15.0,1.1087094999966212,1,+10,408,9.004883754434427,0.6079376503657041,0.34221675222237646,1745761.0,-7.7887673367349395,0.7195942654829528,-0.04523843895512947,1749295.0,,,,,1750.023962998512,1746.4899629985118,
107,26,26,M,1,2,99.0,23,2,high,5 + 8 + 1 - 1 + 9,22,21,23,22,1760.2031431000214,1762.2299022000225,1763.745093000005,1768.7631385000132,1769.703575200023,1769.7035806000058,1771.220087499998,1772.2373047000146,e,22.0,0.9404367000097408,1,+10,418,-57.618055993761395,0.5489997591459383,-0.32128038746807785,1759481.0,-10.611177765444602,0.8492388507195017,-0.39676413815932055,1763015.0,,,,,1763.743962998512,1760.2099629985119,
108,26,26,M,1,2,100.0,24,3,high,6 + 7 + 8 + 1 - 9,13,15,14,13,1773.7540262000111,1775.7815179000029,1777.2966454999987,1782.3158273000154,1783.0316344000166,1783.031640000001,1784.5482717000125,1785.5657167000172,e,13.0,0.7158071000012569,1,+10,428,37.440467108313186,0.6609181527757535,1.4341219658345796,1773033.0,-5.7809085458079,0.5470717054958607,-3.482229165591228,1776567.0,,,,,1777.2959629985119,1773.7619629985118,
109,26,26,M,1,2,101.0,25,2,low,5 + 1 + 7 - 6 + 1,8,7,8,6,1787.0823190000085,1789.1106629999997,1790.626770200004,1795.6450327000057,1796.1276797000028,1796.1276849000133,1797.644471000007,1798.6614150000096,w,8.0,0.4826469999970868,1,+1,429,-11.350316344194118,0.4419762101461724,-1.5516411465883273,1786361.0,-27.85818807308294,0.9850789774256654,-1.0996643019491295,1789897.0,,,,,1790.6259629985118,1787.089962998512,
110,26,26,M,1,2,102.0,26,1,high,3 + 1 + 8 + 1 + 1,14,16,14,13,1800.178176800022,1802.205221000011,1803.7204205000016,1808.7380873000077,1809.2876689000116,1809.2876743000236,1810.8040748000203,1811.8213286000248,w,14.0,0.5495816000038758,1,+10,439,5.778732580042849,0.5535961287447613,0.7454396529836043,1799457.0,17.058201673473093,0.3710502181648514,-1.249038399240293,1802990.0,,,,,1803.7189629985119,1800.185962998512,
111,26,26,M,1,2,103.0,27,4,high,7 + 6 - 9 + 8 - 3,9,8,7,9,1813.338123399997,1815.3622933000152,1816.8777474000235,1821.8961324999984,1823.5199529000088,1823.5199590999985,1825.036467400001,1826.053780100017,w,7.0,1.6238204000110272,0,+0,439,0.07958176413927553,-0.07378457745338451,-0.4207654285060647,1812614.0,28.41065838293798,0.6273787753079545,-0.5297225379016082,1816148.0,,,,,1816.8769629985118,1813.342962998512,
112,26,26,M,1,2,104.0,28,2,low,7 + 5 + 1 - 1 - 8,4,3,2,4,1827.5709594000075,1829.5977494000108,1831.112996700016,1836.131429000001,1839.215645700024,1839.215650900005,1840.732194000011,1841.749128800002,e,4.0,3.084216700022808,1,+1,440,7.253287478106476,1.0995692367409888,0.6241326654774717,1826849.0,-7.40278146830196,0.6086516570936453,-0.5591047856389126,1830383.0,,,,,1831.111962998512,1827.5779629985118,
113,26,26,M,1,2,105.0,29,2,high,5 - 8 + 7 + 1 + 1,6,8,6,7,1843.266201200022,1845.2928182000176,1846.8079823000007,1851.8263041000173,1852.2717001000128,1852.2717056000256,1853.7881338000009,1854.8054476000248,w,6.0,0.4453959999955259,1,+10,450,-3.6910677187624543,-0.00385554814943756,-0.18504262222032075,1842544.0,9.305131853607648,0.6110251587704418,-0.8046679322595729,1846078.0,,,,,1846.8069629985118,1843.272962998512,
114,26,26,M,1,2,106.0,30,1,low,6 + 1 + 1 + 9 - 1,16,16,14,15,1856.3222188000216,1858.349379799998,1859.864669700008,1864.8827260000107,1865.6716534000009,1865.671659200016,1867.1882393000124,1868.2059006000052,q,16.0,0.788927399989916,1,+1,451,-37.50644673260284,-0.42530051254707857,0.6870706449986796,1855600.0,6.7271071502165745,-0.3436242645960883,-0.22941957525736267,1859134.0,,,,,1859.8629629985119,1856.3289629985118,
115,26,26,M,1,2,107.0,31,2,low,3 + 8 + 1 - 5 + 1,8,6,9,8,1869.7225079000052,1871.75011350002,1873.2658193000243,1878.2837330000184,1880.079664800025,1880.0796700000064,1881.5965004000168,1882.6138358000023,q,6.0,1.795931800006656,0,+0,451,9.467538996682258,0.4907475296923174,0.6893298883471184,1869001.0,-4.082481534810849,0.18043505190794829,-1.0722069021174923,1872535.0,,,,,1873.263962998512,1869.7299629985118,
116,26,26,M,1,2,108.0,32,1,high,5 + 6 + 1 + 1 + 1,14,13,14,16,1884.1308042000164,1886.1581009000076,1887.6731482000032,1892.691137100017,1893.359713200014,1893.359718599997,1894.875987700012,1895.89350950002,w,14.0,0.6685760999971535,1,+10,461,-27.64450310141386,-0.5134570494230961,0.21598413344640743,1883409.0,-17.169929364904352,0.5586374970546517,0.29851723870095004,1886942.0,,,,,1887.6709629985119,1884.137962998512,
117,26,26,M,1,2,109.0,33,2,low,4 + 8 + 1 + 1 - 6,8,8,7,9,1897.4105550000093,1899.437837800011,1900.9528192,1905.970971200004,1907.2558378000103,1907.25584290002,1908.7729434000207,1909.790184100013,q,8.0,1.284866600006353,1,+1,462,1.629555495429905,0.8088750772486013,-2.0481237615636365,1896689.0,-11.580720295898127,0.5184526491406083,-2.043412395975425,1900222.0,,,,,1900.9509629985118,1897.417962998512,
118,26,26,M,1,2,110.0,34,3,low,2 + 1 + 9 - 7 + 6,11,13,11,12,1911.306602900004,1913.332754300005,1914.8477519000007,1919.8660229000088,1922.5677998000172,1922.5678050999995,1924.084154900018,1925.101395000005,e,12.0,2.7017769000085536,0,+0,462,5.58396103167529,0.12571370358282685,0.4635576275231612,1910583.0,27.61353987727218,0.6514460519771048,0.5186390523876527,1914117.0,,,,,1914.8459629985118,1911.311962998512,
119,26,26,M,1,2,111.0,35,2,high,4 + 7 + 1 + 1 - 8,5,4,5,7,1926.6185834000064,1928.6455919000143,1930.160814800009,1935.1795411000203,1935.655819700012,1935.655825100024,1937.172176599997,1938.1892588000048,w,5.0,0.4762785999919288,1,+10,472,-10.675113514502227,1.0085224626415958,-0.8403714887993416,1925896.0,7.186742544659428,-0.0210558351883412,0.501566247902332,1929430.0,,,,,1930.158962998512,1926.6249629985118,
120,26,26,M,1,2,112.0,36,2,low,2 + 9 + 1 + 1 - 5,8,6,7,8,1939.7060196000093,1941.733549800003,1943.2487808000003,1948.2670410000137,1949.5838147000177,1949.583820500004,1951.0998758000203,1952.1168694000223,w,7.0,1.316773700003978,0,+0,472,1.0842483002049101,0.6000356713870358,0.7894586181054501,1938984.0,12.15613073113759,0.401212401180008,-0.2670916417959246,1942518.0,,,,,1943.246962998512,1939.7129629985118,
121,26,26,M,1,2,113.0,37,4,high,9 + 8 - 5 - 7 + 6,11,13,10,11,1953.6335444000144,1955.6588777000145,1957.1741201000116,1962.1924405000173,1964.8878466000024,1964.8878525000184,1966.404433000018,1967.421825800004,e,11.0,2.695406099985121,1,+10,482,-4.54303980470328,0.5033756889294496,-0.326651600470659,1952909.0,8.731431374557788,0.7265973605088552,-0.3111578048842105,1956443.0,,,,,1957.1719629985118,1953.637962998512,
122,26,26,M,1,3,114.0,0,1,low,9 + 7 + 1 + 1 + 1,19,19,20,18,1992.9718801999989,1994.9974815000023,1996.5126953000145,2001.5321840000104,2002.1998792000231,2002.199884600006,2003.7164909999992,2004.733386200009,q,19.0,0.6676952000125311,1,+1,483,45.988728913227696,-0.5278841260396958,-0.5468648032061401,1992248.0,2.8775613789470817,6.6817342164871185,4.523641035090673,1995782.0,,,,,1996.5109629985118,1992.976962998512,
123,26,26,M,1,3,115.0,1,3,low,8 + 4 + 1 - 7 + 9,15,16,13,15,2006.2501213000212,2008.2758014000135,2009.7909378000184,2014.808914000023,2015.4878909000251,2015.487896400009,2017.004514900007,2018.0215603000247,e,15.0,0.6789769000024535,1,+1,484,5.857648389659442,0.5251242786988817,-0.9173916653751553,2005526.0,-3.701061347436191,0.766846340229344,-0.47526350346075574,2009059.0,,,,,2009.7879629985118,2006.254962998512,
124,26,26,M,1,3,116.0,2,3,low,3 + 1 + 8 - 5 + 6,13,15,14,13,2019.5386462000024,2021.5629524000103,2023.0774292999995,2028.0957180999976,2028.8638958000229,2028.863901500008,2030.3805989000248,2031.397622999997,e,13.0,0.7681777000252623,1,+1,485,15.20580841422938,0.5255543618071399,0.012756005487903899,2018813.0,-32.65681264477651,1.038547931482956,0.5470694649444847,2022346.0,,,,,2023.0749629985119,2019.541962998512,
125,26,26,M,1,3,117.0,3,3,high,8 - 1 + 6 - 7 + 5,11,13,12,11,2032.9147006999992,2034.9397827000064,2036.455087600014,2041.473367300001,2042.071857700008,2042.0718629000185,2043.5884017000208,2044.605731800024,e,11.0,0.5984904000069946,1,+10,495,6.1970686434853,0.09684699147493792,-1.094009135002619,2032190.0,7.153976339689992,0.3547269521627232,-0.10952577067406954,2035724.0,,,,,2036.4529629985118,2032.918962998512,
126,26,26,M,1,3,118.0,4,1,low,8 + 1 + 1 + 1 - 4,7,7,8,5,2046.122456500016,2048.1503747000243,2049.665292300022,2054.6844811000046,2055.3279993000037,2055.3280059000244,2056.844702000002,2057.861548200017,q,7.0,0.6435181999986526,1,+1,496,1.5203150537018475,-0.015594051696556033,-0.35039174071238754,2045400.0,-13.880183135766874,0.5402088697896943,0.022592902507622803,2048933.0,,,,,2049.6619629985116,2046.128962998512,
127,26,26,M,1,3,119.0,5,1,high,7 - 1 + 8 + 1 - 1,14,14,12,13,2059.3784544000227,2061.405254500016,2062.9204452999984,2067.940924100025,2070.4400074000005,2070.4400136000186,2071.95663640002,2072.9740079000185,e,13.0,2.4990832999756094,0,+0,496,-16.991330174575257,0.2833737689086582,-0.4470173028523283,2058655.0,26.82068879019885,0.13616872416429926,-0.5353701452825064,2062191.0,,,,,2062.9199629985114,2059.383962998512,
128,26,26,M,1,3,120.0,6,2,low,9 + 1 + 6 + 7 + 1,24,23,24,25,2074.490701600007,2076.5188910000143,2078.0339564000024,2083.052292700013,2086.6479715000023,2086.6479768000136,2088.164544500003,2089.181756300008,q,23.0,3.5956787999894004,0,+0,496,-2.887865918680575,0.9711077965980459,0.36363657743556743,2073768.0,-0.746623782519233,1.148946919649193,-0.9036881129197014,2077302.0,,,,,2078.0309629985118,2074.4969629985117,
129,26,26,M,1,3,121.0,7,4,low,5 + 7 - 4 + 6 + 9,23,23,24,25,2090.698478700011,2092.7255320000118,2094.2407400000084,2099.259344100021,2102.687896500021,2102.687901700003,2104.2043375000067,2105.2212205000105,q,23.0,3.428552400000626,1,+1,497,-5.522898016414937,0.3894386213757932,-1.1911337907901487,2089975.0,2.137589255674399,0.6317876894442902,-0.670451910300498,2093509.0,,,,,2094.2379629985116,2090.7039629985115,
130,26,26,M,1,3,122.0,8,4,low,5 + 7 - 4 - 6 + 9,11,13,11,12,2106.7377367000154,2108.759401800024,2110.274338100018,2115.2925497000106,2117.800008500024,2117.8000150000157,2119.3166586000007,2120.333920300007,q,13.0,2.50745880001341,0,+0,497,-32.63092616930359,0.5625859169102592,0.2562859082997053,2106009.0,17.898805167863777,0.4088423119145417,0.39269815582458234,2109542.0,,,,,2110.2709629985115,2106.7379629985116,
131,26,26,M,1,3,123.0,9,2,low,6 + 8 + 1 + 1 - 7,9,9,11,8,2121.850723800017,2123.877766600024,2125.393040800001,2130.411423100013,2131.1759822000167,2131.1759877000004,2132.692569100007,2133.709509700013,q,9.0,0.7645591000036802,1,+1,498,15.419991042257461,0.41063604551229904,-0.1087154760072897,2121127.0,4.291811535207035,0.5248843465866,-0.12675324580412584,2124661.0,,,,,2125.3899629985117,2121.8559629985116,
132,26,26,M,1,3,124.0,10,3,high,8 + 6 - 7 + 1 - 4,4,4,5,3,2135.226285200013,2137.2520648000063,2138.767402500001,2143.7877185000107,2147.9519336000085,2147.9519390000205,2149.4685260000115,2150.485841100017,q,4.0,4.1642150999978185,1,+10,508,21.956711342361956,0.12614451555220807,-0.31966891290165833,2134501.0,17.18403157117747,1.1935652062996063,-0.027273283388938196,2138037.0,,,,,2138.7659629985114,2135.229962998512,
133,26,26,M,1,3,125.0,11,3,high,8 + 3 + 1 - 7 + 9,14,15,12,14,2152.0030479000125,2154.0262536000228,2155.541450300021,2160.559934999997,2161.2160085000214,2161.2160139000043,2162.73258880002,2163.74993000002,e,14.0,0.656073500023922,1,+10,518,-5.956980143005094,1.0239481095901,-0.10975876495190917,2151276.0,6.286629473534406,0.46937493608164305,0.02423349805960129,2154809.0,,,,,2155.537962998512,2152.0049629985115,
134,26,26,M,1,3,126.0,12,3,low,5 + 7 + 1 - 4 + 6,15,15,17,13,2165.2667078000086,2167.289920900017,2168.8051404000144,2173.8235813000065,2174.607940100017,2174.6079455,2176.1245169000176,2177.141489300004,q,15.0,0.7843588000105228,1,+1,519,29.34180987407505,0.9836060722222855,0.031154941400909575,2164539.0,2.4168895771082326,0.5356115495758775,-0.21611223022459436,2168073.0,,,,,2168.8019629985115,2165.267962998512,
135,26,26,M,1,3,127.0,13,4,low,5 + 9 - 4 + 7 + 6,23,25,24,23,2178.6583503000147,2180.681855600007,2182.1967721000256,2187.2154647000134,2187.887967900024,2187.887973100005,2189.40440650002,2190.421501300006,e,23.0,0.6725032000103965,1,+1,520,-23.578580781697283,0.6059173107344149,0.5680942338815798,2177931.0,4.118774925327436,0.7353594597290103,0.11762060498060523,2181465.0,,,,,2182.193962998512,2178.6599629985117,
136,26,26,M,1,3,128.0,14,1,low,6 + 9 + 1 + 1 - 1,16,15,16,14,2191.938367499999,2193.9662236000004,2195.4820934000018,2200.499785000022,2201.0879422000144,2201.087947200024,2202.604777700006,2203.621775800013,w,16.0,0.5881571999925654,1,+1,521,11.266532357534597,-0.795650658805046,0.01966980851003841,2191215.0,-37.66282761171358,0.9160677883789838,0.3187495014658759,2194749.0,,,,,2195.4779629985114,2191.943962998512,
137,26,26,M,1,3,129.0,15,1,high,7 + 1 + 4 + 1 - 1,12,11,12,13,2205.138842400018,2207.1667055000144,2208.6821714000253,2213.7024343000085,2214.239982900006,2214.239988400019,2215.7566282000043,2216.773897400009,w,12.0,0.5375485999975353,1,+10,531,7.665511597018021,-0.013193137079625217,0.16527387260219872,2204416.0,10.330502991013146,0.3061559108674965,0.3072330412122328,2207951.0,,,,,2208.6799629985117,2205.144962998512,
138,26,26,M,1,3,130.0,16,4,low,3 + 9 - 5 + 8 - 7,8,7,8,9,2218.2906249000225,2220.315969700023,2221.830961300002,2226.850876600016,2227.6480816000258,2227.648087100009,2229.164778300008,2230.181798800011,w,8.0,0.7972050000098534,1,+1,532,15.158517432043288,0.4869953741257049,0.022441726148067165,2217565.0,-17.667090818033614,1.043376513981543,0.3472669795743353,2221100.0,,,,,2221.8289629985115,2218.2939629985117,
139,26,26,M,1,3,131.0,17,4,high,8 + 4 - 5 + 7 - 6,8,7,8,6,2231.6985872000223,2233.7258207999985,2235.2411360999977,2240.25963830002,2240.8320583000022,2240.8320637000143,2242.348868400004,2243.366185000021,w,8.0,0.5724199999822304,1,+10,542,-4.2738915555225985,0.5154380383543109,0.007769091323175825,2230975.0,7.388106454125122,0.9065034340156952,-0.01541550610925535,2234508.0,,,,,2235.2369629985114,2231.7039629985115,
140,26,26,M,1,3,132.0,18,1,low,7 + 1 + 5 + 1 - 1,13,12,13,14,2244.882863200008,2246.9089266000083,2248.4241520000214,2253.44260390001,2253.9120534000103,2253.912058900023,2255.428337200021,2256.4452605000115,w,13.0,0.4694495000003371,1,+1,543,-6.002189758921499,-0.06020792536371955,-0.06483377948012725,2244157.0,8.807257242511513,0.039663263006655125,0.1461853322995026,2247691.0,,,,,2248.4199629985114,2244.885962998512,
141,26,26,M,1,3,133.0,19,2,low,3 + 8 - 5 + 1 + 1,8,8,6,9,2257.9619954000227,2259.989052500023,2261.5041136000077,2266.5222424000094,2267.456085600017,2267.4560913000023,2268.9727822999994,2269.989973900025,q,8.0,0.9338432000076864,1,+1,544,-6.630254824680851,0.4279108544960013,0.05277941336148784,2257238.0,-23.699933185073867,0.5390443242989131,0.33610845731085837,2260771.0,,,,,2261.499962998512,2257.9669629985115,
142,26,26,M,1,3,134.0,20,3,high,6 + 1 + 8 + 7 - 9,13,13,15,14,2271.506767200015,2273.5342692999984,2275.0495292000123,2280.068032200012,2281.76803430001,2281.7680395000207,2283.284825300012,2284.3018182000087,w,15.0,1.700002099998528,0,+0,544,-2.974280991245866,0.7493819022518204,0.8487915054846451,2270783.0,-10.734946335989555,-0.013351221330891061,0.0762260285211207,2274317.0,,,,,2275.0459629985116,2271.5119629985115,
143,26,26,M,1,3,135.0,21,2,high,6 + 1 + 1 + 7 - 9,6,6,8,4,2285.819446600013,2287.8476086000155,2289.362816000008,2294.380895300012,2296.432101500017,2296.432107600005,2297.948523800005,2298.965832000016,w,8.0,2.0512062000052538,0,+0,544,12.650542989176158,0.3610042769616899,0.08775376593840978,2285096.0,0.8395564566671858,0.9230059186612065,0.24969677992118378,2288630.0,,,,,2289.3589629985117,2285.8249629985116,
144,26,26,M,1,3,136.0,22,1,high,8 + 1 + 5 + 1 + 1,16,16,15,17,2300.4824563,2302.5100476000225,2304.025221400021,2309.0431126000185,2309.7681693000195,2309.768174500001,2311.2846842000145,2312.3023110000067,q,16.0,0.7250567000010051,1,+10,554,11.319942510847328,-0.377318951431894,-0.11481259733047677,2299758.0,-12.100082883440404,-0.559681052646074,0.03996286385966297,2303291.0,,,,,2304.019962998512,2300.4869629985114,
145,26,26,M,1,3,137.0,23,3,high,3 + 8 - 7 - 1 + 9,12,13,12,14,2313.819529100001,2315.8438195000053,2317.3595012000005,2322.378069700004,2322.912135700026,2322.912141500012,2324.4287747000053,2325.4462308000075,w,12.0,0.5340660000219941,1,+10,564,-3.56125795177727,0.8294422964695745,0.12247713909656133,2313092.0,-39.04063431819603,0.770883429404079,-0.21768080812858326,2316626.0,,,,,2317.354962998512,2313.8209629985117,
146,26,26,M,1,3,138.0,24,4,high,6 + 9 - 7 + 8 - 5,11,12,13,11,2326.9632223000226,2328.9901732,2330.505228300026,2335.5237095000048,2338.688048300013,2338.688053800026,2340.2046700000064,2341.222005000018,w,13.0,3.1643388000084087,0,+0,564,31.419357532344772,0.556033723037213,0.033603472631803744,2326238.0,-41.053618492361494,0.7582453610985329,0.008715567742813679,2329772.0,,,,,2330.5009629985116,2326.9669629985115,
147,26,26,M,1,3,139.0,25,2,high,8 + 1 + 9 + 1 - 4,15,15,14,16,2342.7386915000097,2344.764596200024,2346.2797452000086,2351.298951200006,2353.4320535000006,2353.432059100014,2354.948661900009,2355.9660876000125,q,15.0,2.133102299994789,1,+10,574,1.0685700870835575,0.7158513514748788,0.2500223904744394,2342013.0,2.5184890140300453,0.33426996601423076,-0.322021729738482,2345547.0,,,,,2346.2759629985117,2342.7419629985116,
148,26,26,M,1,3,140.0,26,4,low,8 + 5 - 4 + 7 + 9,25,26,24,25,2357.4827563000144,2359.506800700008,2361.0221475000144,2366.04081570002,2366.71215810001,2366.7121634000214,2368.2287081000104,2369.245663900016,e,25.0,0.6713423999899533,1,+1,575,18.896631841171196,1.025962161863906,0.0660480436991513,2356755.0,-11.124606283462803,1.1813057699300096,0.20050771199616646,2360289.0,,,,,2361.017962998512,2357.4839629985117,
149,26,26,M,1,3,141.0,27,4,high,3 + 9 - 5 + 6 + 8,21,22,21,23,2370.7625075000105,2372.789365500008,2374.3049439000024,2379.323203000007,2381.840127600008,2381.840134500002,2383.3565104000154,2384.373434900015,w,21.0,2.516924600000493,1,+10,585,24.022431775911976,0.4964799886796514,0.26977688561835755,2370037.0,3.0761276336174816,0.5237100530004168,-0.3418701910039843,2373571.0,,,,,2374.2999629985115,2370.7659629985114,
150,26,26,M,1,3,142.0,28,4,low,7 + 6 - 4 + 9 - 5,13,13,12,14,2385.8901969,2387.9180036000034,2389.433519800019,2394.452891300025,2395.0162361999974,2395.016241300007,2396.5325832000235,2397.5508709000133,q,13.0,0.5633448999724351,1,+1,586,-2.155851773824086,0.39509455780789704,-0.0842533448311289,2385166.0,-9.301904343548891,1.1697694352842296,-0.20300676251205596,2388701.0,,,,,2389.4299629985117,2385.894962998512,
151,26,26,M,1,3,143.0,29,1,low,2 + 9 + 1 + 1 + 1,14,14,13,12,2399.067886100005,2401.0947059000027,2402.609900400013,2407.627904599998,2408.360084400017,2408.3600893000257,2409.8766321000003,2410.893539600016,q,14.0,0.7321798000193667,1,+1,587,-15.206093627446204,0.15983123286530398,0.36719142694425067,2398342.0,24.400800538332582,-0.11474969576101968,-0.25509277213516013,2401876.0,,,,,2402.604962998512,2399.0709629985117,
152,26,26,M,1,3,144.0,30,4,high,4 + 7 + 9 - 5 + 7,22,24,23,22,2412.4097145000123,2414.436903200025,2415.952515700017,2420.970946400019,2422.12810110001,2422.12810620002,2423.644755800022,2424.662604400015,e,22.0,1.1571546999912243,1,+10,597,-2.3048645007328936,0.09609611036196153,-0.3205107517659669,2411684.0,16.506383717690035,0.8577772093154152,-0.15230571709694418,2415219.0,,,,,2415.9479629985117,2412.412962998512,
153,26,26,M,1,3,145.0,31,1,low,7 - 1 + 1 + 9 - 1,15,14,15,13,2426.1793333000096,2428.206579300022,2429.721959900024,2434.740503100009,2437.0321599000017,2437.0321654000145,2438.5493538000155,2439.5665758000105,w,15.0,2.2916567999927797,1,+1,598,-2.8855520987868126,-0.3746440277248677,0.06511213639731483,2425454.0,7.292778511957934,-0.03183372814480823,0.08201465894751703,2428988.0,,,,,2429.7169629985115,2426.182962998512,
154,26,26,M,1,3,146.0,32,1,low,4 + 1 + 1 + 7 - 1,12,12,13,14,2441.083339500008,2443.1072833000217,2444.622492800001,2449.6410313000088,2450.3362866000098,2450.3362922000238,2451.852401500015,2452.869113499997,q,12.0,0.6952553000010084,1,+1,599,10.02450420659771,0.08375613293392048,-0.0819139389926824,2440355.0,23.56917929330344,-0.012680425595583245,0.012670729260090052,2443889.0,,,,,2444.6179629985118,2441.0839629985117,
155,26,26,M,1,3,147.0,33,4,low,3 + 9 - 4 + 7 + 6,21,19,21,20,2454.385831200023,2456.4121900000027,2457.9272054000176,2462.945666000014,2465.904270400002,2465.9042761000164,2467.420827300026,2468.437691600004,w,21.0,2.958604399987962,1,+1,600,-5.568654160650488,0.21489221507952783,0.17712444916789627,2453660.0,0.44678829560100297,0.976319051216104,-0.20913824414471094,2457193.0,,,,,2457.921962998512,2454.3889629985115,
156,26,26,M,1,3,148.0,34,3,low,2 + 9 - 3 + 4 + 1,13,13,14,11,2469.9545083999983,2471.982541800011,2473.4976730000053,2478.515986500017,2479.2402654000034,2479.2402707000147,2480.756748100015,2481.7741669000243,q,13.0,0.7242788999865297,1,+1,601,1.48312899243283,0.5063605008021854,0.13136002774225464,2469230.0,17.584376607401556,0.8242395945936845,0.3218533787698097,2472763.0,,,,,2473.4919629985116,2469.9589629985117,
157,26,26,M,1,3,149.0,35,4,high,9 + 7 - 5 + 8 + 6,25,27,25,24,2483.2906167000183,2485.314568600006,2486.829756000021,2491.8482199000136,2494.7281642000016,2494.728169300012,2496.2444914000225,2497.2618799000047,w,25.0,2.879944299987983,1,+10,611,-12.884585120356935,0.33550916579480816,0.6542471860906334,2482562.0,-9.359910775386338,1.1090240778785825,-0.5320043122939002,2486096.0,,,,,2486.8249629985116,2483.2909629985115,
158,26,26,M,1,3,150.0,36,3,low,6 + 8 + 7 + 1 - 9,13,14,13,15,2498.778785500006,2500.8046493,2502.3194953000057,2507.337985999998,2507.9762144999986,2507.9762196000083,2509.49273670002,2510.5101827000035,w,13.0,0.6382284999999683,1,+1,612,-4.404949829402696,1.215968574214421,-1.2131008145592581,2498052.0,7.916922054000577,0.813365172990594,-0.6197798243230803,2501585.0,,,,,2502.3139629985117,2498.7809629985118,
159,26,26,M,1,3,151.0,37,4,low,4 + 7 + 8 - 3 + 9,25,25,24,26,2512.026819400024,2514.0541298000026,2515.569347100012,2520.588703000016,2523.592315600021,2523.5923214000068,2525.108926800021,2526.1257628000167,q,25.0,3.003612600004999,1,+1,613,12.122323625910902,0.9939499681537391,0.8304060382372045,2511301.0,-32.48264041883582,0.5475037310784163,-0.5449847554030249,2514835.0,,,,,2515.5639629985117,2512.0299629985116,
160,26,26,M,1,4,152.0,0,2,low,5 + 9 - 8 + 1 + 1,8,8,9,7,2565.676758400019,2567.705100899999,2569.2201289000222,2574.2395930000057,2575.032314000011,2575.0323196000245,2576.5495709000097,2577.566534400016,q,8.0,0.7927210000052582,1,+1,614,28.992616507841063,3.6209032130994068,5.335239631049548,2564951.0,5.333544394944411,-0.6956818356187644,-1.3304237925549711,2568486.0,,,,,2569.2149629985115,2565.6799629985117,
161,26,26,M,1,4,153.0,1,2,high,2 + 1 + 9 - 4 + 1,9,11,8,9,2579.0833183000213,2581.1104967000138,2582.6257065000245,2587.6437213000027,2588.384233700024,2588.384238800005,2589.900631000026,2590.9179029000225,e,9.0,0.7405124000215437,1,+10,624,11.031643755892738,0.8059780175478806,-0.15429065034395428,2578357.0,-4.824350029394507,0.9221706141246,0.11497656745157503,2581891.0,,,,,2582.6199629985117,2579.0859629985116,
162,26,26,M,1,4,154.0,2,4,high,3 + 8 - 4 + 9 + 6,22,22,21,23,2592.434753300011,2594.4600013000017,2595.9753466000257,2600.994557900005,2602.5923115000187,2602.5923173000047,2604.10895710002,2605.1261441000097,q,22.0,1.5977536000136752,1,+10,634,22.014021723885435,0.5329371159760421,0.5299357667545062,2591707.0,-23.68816525206396,0.839352975352269,-0.9085173785098997,2595241.0,,,,,2595.9699629985116,2592.4359629985115,
163,26,26,M,1,4,155.0,3,3,low,4 + 1 + 8 + 9 - 5,17,18,17,19,2606.643089899997,2608.668392200023,2610.184103300009,2615.201917300001,2616.856370399997,2616.85637590001,2618.3730463000247,2619.3899231000105,w,17.0,1.6544530999963172,1,+1,635,-36.274814014916394,0.7008116427793998,0.3288873789158764,2605915.0,2.734296105872062,0.8080121836872256,-0.23662251859279593,2609449.0,,,,,2610.1779629985117,2606.6439629985116,
164,26,26,M,1,4,156.0,4,4,high,8 + 4 + 7 - 5 - 6,8,9,6,8,2620.906658500025,2622.9330289000063,2624.448233700008,2629.4668494000216,2630.192376600025,2630.19238220001,2631.708874000004,2632.7260849000013,e,8.0,0.7255272000038531,1,+10,645,-18.012659549049136,0.7878245740810756,0.15445364428037767,2620180.0,-19.8045303575467,0.9678416372482497,-1.272638124569946,2623713.0,,,,,2624.441962998512,2620.9089629985115,
165,26,26,M,1,4,157.0,5,4,low,4 + 7 + 8 - 3 + 9,25,24,26,25,2634.243297700013,2636.2710350000125,2637.7862393000105,2642.8047972000204,2645.5203345000045,2645.5203396000143,2647.037022900011,2648.0541381000075,e,25.0,2.7155372999841347,1,+1,646,-4.37788339904454,0.5473080405653366,0.04839033701497453,2633518.0,-19.423935434034995,1.122991856238795,-1.4724945558409201,2637051.0,,,,,2637.7799629985116,2634.2469629985117,
166,26,26,M,1,4,158.0,6,2,low,4 + 9 + 1 - 7 - 1,6,5,8,6,2649.570935800002,2651.598582400009,2653.113554400013,2658.133283100004,2658.9123252000136,2658.9123306000256,2660.4287448000105,2661.4455970000126,e,6.0,0.7790421000099741,1,+1,647,-41.89729685794971,0.5828115134717504,-0.06759360385932656,2648845.0,-1.2784356221604298,0.7702172602675019,-0.005498796521194116,2652380.0,,,,,2653.1089629985117,2649.5739629985114,
167,26,26,M,1,4,159.0,7,3,low,7 - 1 + 8 - 6 + 4,12,13,11,12,2662.961783800012,2664.9866913000005,2666.502283300011,2671.5225151000195,2672.224378300016,2672.2243839,2673.740911300003,2674.757782700006,e,12.0,0.7018631999962963,1,+1,648,22.64595067837824,0.4714101344743411,0.4632304895144541,2662233.0,18.239387975999502,0.6292785533855954,-0.29145070220833436,2665769.0,,,,,2666.4979629985114,2662.961962998512,
168,26,26,M,1,4,160.0,8,3,high,8 - 7 + 9 + 1 + 4,15,14,16,15,2676.274477800005,2678.296879200003,2679.811997600016,2684.830421600025,2687.8643949000107,2687.8644012000004,2689.3809551000013,2690.3981021000072,e,15.0,3.0339732999855187,1,+10,658,8.489565371012013,0.7470865988372335,0.37257637581622927,2675543.0,-18.473962837013566,0.974435744197617,-0.3349768929726613,2679077.0,,,,,2679.805962998512,2676.2719629985118,
169,26,26,M,1,4,161.0,9,1,low,6 + 9 + 1 + 1 - 1,16,15,14,16,2691.915661600011,2693.938266200013,2695.453204700025,2700.471474400023,2701.1044254000008,2701.104430700012,2702.620640900015,2703.637363700021,e,16.0,0.6329509999777656,1,+1,659,-4.704539548873996,0.22505525153344452,-0.16105447828251318,2691185.0,38.05965659279581,-0.059540923055972694,-0.43835682990035263,2694718.0,,,,,2695.4469629985115,2691.9139629985116,
170,26,26,M,1,4,162.0,10,3,low,6 - 1 + 7 - 8 + 9,13,13,11,12,2705.154131400021,2707.181398300017,2708.696557200019,2713.7150268999976,2714.360375999997,2714.360381700011,2715.877172700013,2716.894060999999,q,13.0,0.6453490999992937,1,+1,660,23.27643512650907,0.9270556103269612,0.2644170718672214,2704428.0,27.908884325097173,0.4895816374704589,-0.6553309494131838,2707961.0,,,,,2708.6899629985114,2705.1569629985115,
171,26,26,M,1,4,163.0,11,1,low,5 + 6 + 1 + 1 + 1,14,16,15,14,2718.410527,2720.437006799999,2721.9519447000057,2726.969732700003,2727.600454200001,2727.6004594000115,2729.1169445000123,2730.133886199997,e,14.0,0.6307214999978896,1,+1,661,-3.047069858518398,0.13861896721627032,-0.4194013744248295,2717683.0,6.702963411252565,0.09805010558148375,0.3178034700997552,2721216.0,,,,,2721.9449629985115,2718.4119629985116,
172,26,26,M,1,4,164.0,12,4,high,9 + 3 - 5 + 8 + 6,21,21,19,23,2731.6504985000065,2733.6778088000137,2735.1924765000003,2740.210732700012,2741.960503900016,2741.9605095000006,2743.4770299000083,2744.4942244999984,e,23.0,1.7497712000040335,0,+0,661,1.5572598335914236,0.9682327991278568,0.519456057381265,2730924.0,-0.15416952335814615,0.7165897676970183,-0.20809946283065006,2734457.0,,,,,2735.1859629985115,2731.6529629985116,
173,26,26,M,1,4,165.0,13,2,low,7 + 6 + 1 + 8 + 1,23,22,23,21,2746.011045100022,2748.0371871000098,2749.5523112000083,2754.572135399998,2758.28051880002,2758.280524200003,2759.796975500009,2760.813730300026,w,23.0,3.708383400022285,1,+1,662,17.074981613605722,0.5064343986215656,-0.2879908116982932,2745283.0,-8.543510525238455,0.5232188030615403,0.35879203183035013,2748818.0,,,,,2749.546962998512,2746.0119629985115,
174,26,26,M,1,4,166.0,14,2,high,4 + 9 - 7 + 1 - 1,6,8,6,5,2762.330735800002,2764.3535825000145,2765.868691900017,2770.8881710999995,2771.4646354000142,2771.464640799997,2772.9811572000035,2773.9985283999995,w,6.0,0.5764643000147771,1,+10,672,43.07489743455808,0.6950917212114542,0.03769868615179117,2761599.0,26.74892927269246,1.107881938228473,0.6960207583539013,2765134.0,,,,,2765.8629629985116,2762.327962998512,
175,26,26,M,1,4,167.0,15,1,high,3 + 1 + 9 + 1 - 1,13,12,13,14,2775.515268900024,2777.5409449000144,2779.0567298000096,2784.074519400019,2784.7284925999998,2784.728498500015,2786.245146900008,2787.262111900025,w,13.0,0.6539731999801006,1,+10,682,-6.283828771434042,-0.11978772038611885,-2.084912918672898,2774787.0,17.659965077430414,-0.23663656357097906,-0.1567301850475209,2778321.0,,,,,2779.0499629985115,2775.5159629985114,
176,26,26,M,1,4,168.0,16,3,high,5 + 1 + 7 - 8 + 6,11,11,9,13,2788.7785010000225,2790.802673700004,2792.3179892000044,2797.336524800019,2798.096448600001,2798.0964534000086,2799.612279300025,2800.629524500022,q,11.0,0.7599237999820616,1,+10,692,-20.462075520544854,0.5905068838208964,0.6904565302931971,2788048.0,-18.831951886066772,0.7124006753340213,-0.5288125959182395,2791582.0,,,,,2792.3109629985115,2788.7769629985114,
177,26,26,M,1,4,169.0,17,4,low,7 + 8 - 4 + 6 + 5,22,21,23,22,2802.147088800004,2804.173934600025,2805.689062700025,2810.706798300001,2813.0805555999978,2813.080561300012,2814.597389700008,2815.614874699997,e,22.0,2.373757299996214,1,+1,693,-1.6996740422061047,0.8102230498984171,-0.415679587886288,2801420.0,9.014831345060985,0.8371727636252433,-0.20039103022961058,2804953.0,,,,,2805.6819629985116,2802.1489629985117,
178,26,26,M,1,4,170.0,18,4,high,5 + 8 - 6 + 7 + 4,18,18,19,17,2817.1329744000104,2819.159869700001,2820.675041700015,2825.693660400022,2826.480533800001,2826.480539100012,2827.997329200007,2829.0152323000075,q,18.0,0.7868733999785036,1,+10,703,13.464004707468161,0.9052485222704774,0.6848030254014121,2816406.0,-11.989841283094371,0.7765161511825411,1.3072687213484082,2819939.0,,,,,2820.6679629985115,2817.1349629985116,
179,26,26,M,1,4,171.0,19,1,high,2 + 1 + 9 + 1 - 1,12,11,13,12,2830.532138600014,2832.55616930002,2834.0714086000226,2839.0909350000147,2839.7124932000006,2839.712498900015,2841.2288184000063,2842.2463184000226,e,12.0,0.6215581999858841,1,+10,713,12.15226389816494,23.26817202252859,17.546607336476978,2829802.0,-10.230759032813063,-0.6248351051007068,-0.18770951384426837,2833336.0,,,,,2834.0649629985114,2830.5309629985118,
180,26,26,M,1,4,172.0,20,4,low,2 + 9 - 6 + 8 - 4,9,11,7,9,2843.763257100014,2845.7900251000246,2847.3051614,2852.3235617000028,2852.920517700026,2852.920523400011,2854.4368757000198,2855.454053900001,q,11.0,0.5969560000230558,0,+0,713,22.540447350556924,0.6581078177769419,0.027719186257507467,2843036.0,28.31894885377229,0.8844122939540311,0.4668886048713925,2846569.0,,,,,2847.2979629985116,2843.7649629985117,
181,26,26,M,1,4,173.0,21,1,high,5 + 8 - 1 + 1 + 1,14,14,16,12,2856.970728300017,2858.996847500006,2860.5120919000183,2865.530070800014,2866.504616400023,2866.5046217000054,2868.021194400004,2869.0383122000203,q,14.0,0.9745456000091508,1,+10,723,3.1364247367915326,0.40780927672567513,0.11111208633438263,2856242.0,-0.7242851482827763,0.12605334266198964,-0.19847225429274484,2859776.0,,,,,2860.5049629985115,2856.970962998512,
182,26,26,M,1,4,174.0,22,1,low,9 + 1 + 1 + 7 - 1,17,17,16,19,2870.5550719000166,2872.580551300023,2874.0959019,2879.114627200004,2880.072692800022,2880.072698200005,2881.5890479000227,2882.605789300025,q,17.0,0.958065600018017,1,+1,724,10.408299034367932,0.04281259711935048,-0.008680124558251734,2869826.0,7.562096000742567,0.13024115259245006,0.16004492974700923,2873360.0,,,,,2874.0889629985118,2870.5549629985117,
183,26,26,M,1,4,175.0,23,2,high,3 + 9 - 1 - 5 + 1,7,6,5,7,2884.122328700003,2886.149347900005,2887.66453910002,2892.683258000005,2893.832607800025,2893.8326136000105,2895.3490246,2896.366044399998,e,7.0,1.1493498000199909,1,+10,734,10.838744364699691,0.6739093762811916,-0.02982211696250836,2883395.0,-8.28406780472123,0.7097372144316756,0.23920668627942643,2886928.0,,,,,2887.6569629985115,2884.1239629985116,
184,26,26,M,1,4,176.0,24,4,low,2 + 5 - 3 + 9 + 8,21,19,22,21,2897.882976200024,2899.9069802000013,2901.422253800003,2906.440553200024,2908.680578300002,2908.680583900016,2910.197677700024,2911.2148323,e,21.0,2.240025099978084,1,+1,735,27.134377666872066,0.5890164296117466,-0.86288575474933,2897152.0,-3.494484746327241,0.7884346867368044,0.04060112764898527,2900686.0,,,,,2901.414962998512,2897.8809629985117,
185,26,26,M,1,4,177.0,25,1,low,3 + 1 + 1 + 8 - 1,12,14,12,13,2912.731496000022,2914.7590972000035,2916.275329600001,2921.293952200009,2921.760576700006,2921.760582000017,2923.276801200001,2924.294115900004,w,12.0,0.4666244999971241,1,+1,736,25.56621284388639,-0.11276056293824466,0.11038577608185918,2912004.0,9.13168158719697,0.06106328433885988,0.08702499870289948,2915539.0,,,,,2916.267962998512,2912.7329629985115,
186,26,26,M,1,4,178.0,26,3,high,3 + 8 + 1 + 5 - 9,8,9,8,7,2925.8107776000106,2927.8378012000176,2929.3529646000243,2934.371067500004,2934.8326380000217,2934.8326439000084,2936.3491256000125,2937.3660503000137,w,8.0,0.4615705000178423,1,+10,746,-24.12256099357836,0.8967335885349748,0.4384464115243212,2925083.0,-32.48382111964489,0.8880795122012777,0.3799983030727754,2928616.0,,,,,2929.3449629985116,2925.8119629985117,
187,26,26,M,1,4,179.0,27,3,high,5 - 1 - 4 + 6 + 7,13,15,13,14,2938.8829076000256,2940.906956400024,2942.4219918000163,2947.440913300001,2948.016541900026,2948.016547600011,2949.532515500003,2950.550224900013,w,13.0,0.5756286000250839,1,+10,756,8.19574278069138,0.5886610787060929,-0.10413785224824323,2938152.0,28.254216136851788,0.6196026850559568,-0.45494021917791283,2941685.0,,,,,2942.4139629985116,2938.8809629985117,
188,26,26,M,1,4,180.0,28,1,high,6 + 1 + 1 + 7 - 1,14,13,12,14,2952.067406900024,2954.093090600014,2955.608498200017,2960.6265685000108,2961.672601700004,2961.672608100024,2963.1887523000187,2964.20605410001,e,14.0,1.0460331999929622,1,+10,766,4.016470857326201,0.1145081976681328,0.2626158880647429,2951338.0,-24.311351202125625,-0.13237057553436804,-0.37777145254856226,2954872.0,,,,,2955.6009629985115,2952.066962998512,
189,26,26,M,1,4,181.0,29,1,high,5 + 1 + 1 + 6 + 1,14,13,16,14,2965.722673000011,2967.747522200021,2969.2628734000027,2974.28063720002,2975.1446855000104,2975.144691000023,2976.661193300009,2977.678646800021,e,14.0,0.8640482999908272,1,+10,776,-8.101431693503113,0.05800471781327854,0.022174410583960302,2964992.0,11.423526308862977,0.28428192379061956,-0.04887256824318431,2968525.0,,,,,2969.2539629985117,2965.720962998512,
190,26,26,M,1,4,182.0,30,2,low,4 + 9 - 7 + 1 - 1,6,5,8,6,2979.195339900005,2981.222070500022,2982.737199299998,2987.755745600007,2988.744624700019,2988.744630400004,2990.261274999997,2991.278172200022,e,6.0,0.9888791000121272,1,+1,777,11.519462700246635,0.9701968350007104,-0.11631088369727927,2978467.0,-42.70229202318916,1.1112358591335294,-0.3307083111765783,2982001.0,,,,,2982.729962998512,2979.1959629985117,
191,26,26,M,1,4,183.0,31,2,low,6 + 1 + 8 + 7 - 1,21,21,23,19,2992.79515000002,2994.816678300005,2996.3322835,3001.350259800005,3004.2006081000145,3004.2006138,3005.7172213000013,3006.734082800016,q,21.0,2.8503483000095,1,+1,778,17.74147831458739,0.585448402428717,0.23352533170162904,2992062.0,-10.417408056290029,0.7749324802744337,0.0704662046069684,2995595.0,,,,,2996.3239629985114,2992.7909629985115,
192,26,26,M,1,4,184.0,32,1,high,2 + 9 + 1 + 1 + 1,14,14,12,13,3008.250763500022,3010.2747221000027,3011.7900259000016,3016.808170000004,3017.5207407000125,3017.520746299997,3019.037173400022,3020.054262200021,q,14.0,0.712570700008655,1,+10,788,29.36074312798454,-0.2434397977473446,0.18029889415758138,3007519.0,10.756385301806835,-0.12047240477484156,0.29116147939266224,3011053.0,,,,,3011.7819629985115,3008.2479629985114,
193,26,26,M,1,4,185.0,33,2,high,3 + 9 + 1 - 5 + 1,9,8,9,7,3021.571333,3023.598561999999,3025.113846799999,3030.132352100016,3032.136644700018,3032.136650100001,3033.6531287000107,3034.670422199997,e,7.0,2.0042926000023726,0,+0,788,2.659317302487193,0.47549833428558186,-0.16908510929475007,3020843.0,14.92749389483111,0.5504049880283595,-0.15725049855453843,3024376.0,,,,,3025.104962998512,3021.5719629985115,
194,26,26,M,1,4,186.0,34,2,high,5 - 1 + 1 + 8 + 9,22,23,21,22,3036.1871910000045,3038.21047760002,3039.7257226000074,3044.74499810001,3045.496723999997,3045.4967295000097,3047.013495000021,3048.0310579000216,e,22.0,0.7517258999869227,1,+10,798,2.4833454736191545,0.5949654808758034,-1.1393427329716577,3035455.0,-19.622532736285628,0.7607285797521381,-0.5028057711687817,3038989.0,,,,,3039.7179629985117,3036.1839629985116,
195,26,26,M,1,4,187.0,35,3,low,2 + 9 + 1 - 5 + 7,14,15,12,14,3049.547829500021,3051.573266000021,3053.0884785000235,3058.107122400019,3060.9206227000104,3060.92062780002,3062.4371343000093,3063.454017400014,e,14.0,2.813500299991574,1,+1,799,39.97610553466498,0.8356845560729238,0.09956754416366653,3048818.0,-4.136629384324214,0.9803849949002363,0.0802677416850921,3052351.0,,,,,3053.0799629985117,3049.546962998512,
196,26,26,M,1,4,188.0,36,3,high,4 + 8 - 3 + 5 - 1,13,14,13,12,3064.970756200026,3066.9952852000133,3068.5105202000123,3073.52873000002,3074.048685000016,3074.048690600001,3075.5649779000087,3076.5822958000062,w,13.0,0.5199549999961164,1,+10,809,-2.9941043010289494,0.7760487235688309,-0.2823511903476801,3064240.0,16.073249672098868,0.6378303294225347,-0.011104355890102724,3067773.0,,,,,3068.5019629985118,3064.9689629985114,
197,26,26,M,1,4,189.0,37,3,high,3 + 1 + 6 - 8 + 9,11,12,11,13,3078.099338600005,3080.1255435000057,3081.6411101999984,3086.659363300016,3087.3047015000197,3087.304706800001,3088.8209592000057,3089.8383426000078,w,11.0,0.6453382000036072,1,+10,819,8.340105956037494,1.236677717008141,0.16121465989730233,3077370.0,-1.0056457010920532,0.8977682398072759,-0.4268906784739226,3080904.0,,,,,3081.6329629985116,3078.0989629985115,
198,26,26,M,1,5,190.0,0,1,high,3 + 1 + 8 + 1 + 1,14,12,13,14,3135.8613971000013,3137.886692500004,3139.401964800025,3144.4213874000125,3145.016803300008,3145.0168086000194,3146.5334101000044,3147.550645500014,e,14.0,0.5954158999957144,1,+10,829,-24.67256553714289,0.07856555489114836,0.4418723589525735,3135131.0,9.875826966838735,-0.12232805745648068,0.04589663769087737,3138665.0,,,,,3139.3939629985116,3135.8599629985115,
199,26,26,M,1,5,191.0,1,2,low,6 + 1 + 7 + 5 - 1,18,18,17,16,3149.067821100005,3151.0955579,3152.6107062000083,3157.6298986000184,3158.496731400024,3158.4967370000086,3160.013286600006,3161.030063700018,q,18.0,0.8668328000057954,1,+1,830,-21.410991598619784,0.7608269545630186,-0.20043617612114684,3148340.0,-20.213560876787046,0.8313338501820935,-0.12896466452450772,3151873.0,,,,,3152.6019629985117,3149.068962998512,
