,id,age,sex,cued,block,trial,trialinblock,efflev,rewlev,calc,corAns,option1,option2,option3,tstart,ITI1Time,probTime,respTime,selectTime,ITI2Time,fbTime,ITI3Time,key_press,chosenAns,RT,acc,feedback,total_points,cuescr,cuecor,cuezyg,cuetime,probscr,probcor,probzyg,probtime,fbscr,fbcor,fbzyg,fbtime,probtime_c,cuetime_c,fbtime_c
0,27,20,f,0,Practice,,0,1,0,4 + 1 + 9 + 1 + 1,16,14,15,16,122.56882799998856,,122.56883010000456,127.72468990000198,129.66876749997027,129.66877350001596,131.18581589998212,132.20648150000488,e,16.0,1.9440775999682955,1,Correct,0,,,,,6.890146933046799,-0.19643990318729543,0.3141271578571674,120822.0,21.889673899494497,0.3541089983586305,0.5638512337502783,129304.0,290.26865877637715,,298.7506587763771
1,27,20,f,0,Practice,,1,1,0,3 + 1 + 1 + 8 - 1,12,12,10,11,133.72333419998176,,133.72333730000537,138.7441541000153,144.49289910000516,144.49290489999112,146.00964010000462,147.0273981000064,q,12.0,5.748744999989867,1,Correct,0,,,,,11.586191554896395,0.35701559028803587,0.7498970246910561,131842.0,11.718057060771487,-0.1613052544451845,-0.16868960414429246,144125.0,301.28865877637713,,313.57165877637715
2,27,20,f,0,Practice,,2,2,0,8 + 1 + 6 + 1 - 4,12,10,11,12,148.5454761000001,,148.54548139998224,153.56527780002216,155.4129307999974,155.4129367999849,156.9304509999929,157.94880100002047,e,12.0,1.847652999975253,1,Correct,0,,,,,17.92997958198313,-0.10128324645711206,-0.13113577118024544,146663.0,21.546000819529265,0.5064902956060733,-0.047154691768433565,155046.0,316.10965877637716,,324.4926587763771
3,27,20,f,0,Practice,,3,2,0,9 + 4 - 6 + 1 - 1,7,7,6,5,159.46598949999316,,159.46599240001524,164.48513749998529,175.95720170001732,175.95720760000404,177.47397619998085,178.49423599999864,e,5.0,11.472064200032037,0,Incorrect,0,,,,,-1.4570581432804204,-0.05649305657431558,-0.35698112253594516,157582.0,-1.4170524551261057,-0.14726889169326807,1.895689794587497,175591.0,327.02865877637714,,345.03765877637716
4,27,20,f,0,Practice,,4,3,0,9 + 3 - 5 + 6 + 7,20,20,22,21,180.01136890001362,,180.0113716999767,185.03160440002105,206.91693160001887,206.9169380000094,208.43402410001727,209.45164360001215,w,22.0,21.88532719999785,0,Incorrect,0,,,,,7.436572430136642,0.237344367051044,0.45637211748131445,178129.0,34.253936491208826,0.6321244008130114,1.6078625925314132,206548.0,347.5756587763771,,375.99465877637715
5,27,20,f,0,Practice,,5,3,0,2 + 1 + 9 - 7 + 6,11,9,10,11,210.9690488000051,,210.96905179996972,215.99004980002064,223.14887229999292,223.1488780999789,224.66575290000765,225.68374930002028,w,10.0,7.158822499972303,0,Incorrect,0,,,,,-5.716853948440551,-0.040063005625002646,0.5860071237251123,209087.0,-24.76716534261501,0.4769782040680699,-0.08546266034649719,222781.0,378.53365877637714,,392.2276587763771
6,27,20,f,0,Practice,,6,4,0,4 + 8 + 5 - 3 + 7,21,23,22,21,227.20042499998817,,227.20042800001104,232.221795200021,239.10908129997551,239.10908799996832,240.62618839996867,241.64491769997403,e,21.0,6.887286099954508,1,Correct,0,,,,,33.26102425004098,0.25658283756534583,0.44496201848139094,225318.0,20.94777795076671,0.1680474964644061,0.1388565558810324,238742.0,394.76465877637713,,408.1886587763771
7,27,20,f,0,Practice,,7,4,0,5 + 8 - 4 + 6 + 9,24,22,23,24,243.16222599998585,,243.1622289000079,248.1817234000191,259.5404275999754,259.5404352999758,261.05751529999543,262.0756790000014,e,24.0,11.358704199956264,1,Correct,0,,,,,22.565861882231246,-0.07198528862480291,-0.3882957257783346,241279.0,8.472651519142826,-0.027930346266288986,0.2987550433535233,259172.0,410.72565877637714,,428.6186587763772
8,27,20,f,1,0,0.0,0,4,high,4 + 7 - 8 + 9 - 3,9,9,8,11,553.1789548000088,555.239935700025,556.7549888999783,561.7736731999903,566.7908004000201,566.7908029999817,568.3076142999926,569.3294534999877,,,,0,Too Slow!,0,-25.932311514387695,3.99681262232831,-0.0013179513895922312,423839.0,-6.781029859972687,-1.399024162769524,0.13856740731229555,427373.0,-43.35163082001124,0.4807180062358909,0.12095637476528465,438929.0,596.8196587763771,593.2856587763771,608.3756587763771
9,27,20,f,1,0,1.0,1,4,high,9 + 3 - 5 + 8 + 6,21,19,21,23,570.8466320000007,572.8722243999946,574.386892199982,579.4051289000199,584.4236604999751,584.4236628999934,585.9417370000156,586.9616820000228,,,,0,Too Slow!,0,-5.246581835984371,0.3973339083881182,0.13248949526256304,441471.0,14.572502293351036,1.0599814119061812,0.24067311856667128,445004.0,-9.871512687052906,12.561646882562709,0.01861241082930931,456561.0,614.4506587763772,610.9176587763772,626.0076587763771
10,27,20,f,1,0,2.0,2,1,high,5 + 6 + 1 + 1 + 1,14,13,16,14,588.4786582000088,590.5399664000142,592.0553889999865,597.073658999987,600.4109455000143,600.4109513000003,601.9279204999912,602.94550229999,e,14.0,3.3372865000274032,1,+10,10,-19.078062777684103,-7.027248480807966,-0.1334724634560307,459139.0,16.06585304195289,-0.37905656651051434,-0.004818796385996915,462673.0,-6.921174718409063,0.8700430520213014,0.01674744447972376,595099.0,632.1196587763772,628.5856587763772,764.5456587763772
11,27,20,f,1,0,3.0,3,3,high,8 + 6 - 7 + 1 - 4,4,5,3,4,604.4620467000059,606.5490696000052,608.0642739000032,613.0844846999971,616.5869861000101,616.5869911999907,618.1036850999808,619.1206572999945,e,4.0,3.5025014000129886,1,+10,20,-10.584414285237333,1.0226652862990486,0.8728736339537884,628052.0,2.2864090072651404,0.770774017789269,-0.009149539650980643,631587.0,16.770255131082134,-1.2355803019796259,0.16758793018670026,643140.0,801.0336587763771,797.4986587763772,812.5866587763771
12,27,20,f,1,0,4.0,4,2,high,8 + 1 + 9 + 1 - 4,15,16,14,15,620.6373709000181,622.6925588999875,624.2078017999884,629.2258155000163,630.4989855000167,630.4989910000004,632.0155718000024,633.0330902999849,e,15.0,1.2731700000003912,1,+10,30,10.47596192098644,0.3257786682678967,0.18361273827295976,470835.0,19.603902315759367,0.4707802369565455,0.39419077834003335,474369.0,37.01552551865337,-0.04732817402901768,-0.38966535869631436,923105.0,643.8156587763772,640.2816587763771,1092.551658776377
13,27,20,f,1,0,5.0,5,2,low,3 - 1 + 9 - 5 + 1,7,6,5,7,634.5504954999778,636.5956074999995,638.1108362000086,643.1308844999876,647.7310145000229,647.7310196000035,649.247756399971,650.2653071000241,q,6.0,4.600130000035279,0,+0,30,-8.542254780968811,0.5660602320094266,-0.4004288058011909,484738.0,14.752525933109784,0.3377182206658027,0.14842139956206557,488273.0,12.210572232417753,-0.01406306538009261,2.339571651964408,2079962.0,657.7196587763772,654.1846587763771,2249.4086587763773
14,27,20,f,1,0,6.0,6,1,low,4 + 8 + 1 - 1 - 1,11,9,11,13,651.7818152999971,653.8065223000012,655.3223644000245,660.3422643999802,664.4350070999935,664.4350119999726,665.9516123000067,666.9688521000207,e,13.0,4.092742700013332,0,+0,30,-5.70455036759616,0.23545858904537065,0.03231561404451888,501949.0,-9.097994093422667,0.34436624289389295,0.15793541603726213,505484.0,-14.58597255838517,-0.7687477024308587,-0.2087968274417391,2385121.0,674.9306587763771,671.3956587763771,2554.5676587763774
15,27,20,f,1,0,7.0,7,2,high,4 + 9 + 1 - 7 - 1,6,8,6,5,668.485678899975,670.5088157000137,672.0239666000125,677.0425046000164,678.5790178999887,678.5790229999693,680.0955843999982,681.1131042999914,w,6.0,1.5365132999722846,1,+10,40,-23.122328103072462,0.18948965729362444,0.4308262358262791,518652.0,-0.4106533772458647,0.5673521296761215,0.043973361287278134,522185.0,2.2958324762492524,-0.9621960341060944,-0.053799320136380224,2433514.0,691.6316587763771,688.0986587763772,2602.9606587763774
16,27,20,f,1,0,8.0,8,3,low,6 + 8 + 7 + 1 - 9,13,15,13,14,682.6301083000144,684.6757759000175,686.1907126000151,691.210095699993,694.5390360999736,694.5390410000109,696.0556453000172,697.072624399967,w,13.0,3.328940399980638,1,+1,41,14.7506244457363,0.6427737329867118,0.07558067998875462,532818.0,-0.721887289344155,0.7397294933660641,-0.3898312565426063,536352.0,1.130771790760324,0.024315244633311472,-0.06631558174386343,3024080.0,705.7986587763771,702.2646587763771,3193.526658776377
17,27,20,f,1,0,9.0,9,1,low,9 + 8 + 1 + 1 - 1,18,20,18,17,698.5890019999933,700.6151366999839,702.1304687000229,707.1486359999981,708.4270483999862,708.4270536999684,709.9433557000011,710.9602757000248,w,18.0,1.2784123999881558,1,+1,42,3.83259385592838,-3.8977541093282477,0.3302249866628828,548757.0,11.557641756501367,-0.1900830821887416,0.20970878667564996,552291.0,,,,,721.7376587763772,718.2036587763771,
18,27,20,f,1,0,10.0,10,4,low,2 + 9 - 6 + 8 - 4,9,7,9,11,712.4772233999684,714.5176894000033,716.0328854999971,721.0517438999959,725.7949968000175,725.7950017999974,727.3116979000042,728.328595799976,w,9.0,4.743252900021616,1,+1,43,-5.839315130769126,0.5312982589806503,0.345162003119043,562660.0,-28.543515837046684,0.8190023065531524,-0.014948808084410459,566194.0,,,,,735.6406587763771,732.1066587763771,
19,27,20,f,1,0,11.0,11,4,high,4 + 8 + 9 - 3 + 7,25,24,25,26,729.8450778999832,731.8691014000215,733.3844109000056,738.4032266999711,743.4215839999961,743.4215865000151,744.9386737999739,745.9568880000152,,,,0,Too Slow!,43,3.6008631564437987,-2.031569872091202,-4.660157604585867,580011.0,-2.719970805409691,0.5453075072760911,0.15170680943607984,583545.0,,,,,752.9916587763771,749.4576587763771,
20,27,20,f,1,0,12.0,12,1,high,5 + 8 - 1 + 1 + 1,14,16,14,12,747.4735014999751,749.5003661999945,751.0156205000239,756.0338056000182,757.2269652999821,757.2269700000179,758.7433866999927,759.7606595999678,w,14.0,1.1931596999638714,1,+10,53,-16.172908875547613,0.10353069317670593,-0.3284956163320647,597642.0,-0.2207622722830891,0.17719700045125286,0.07208638706771975,601176.0,,,,,770.6226587763772,767.0886587763772,
21,27,20,f,1,0,13.0,13,3,low,2 + 1 + 9 - 4 + 6,14,14,16,15,761.2774105999852,763.3013227999909,764.8165513999993,769.8357851000037,773.8351301000221,773.8351350000012,775.3513090999913,776.3680393999675,q,14.0,3.9993450000183657,1,+1,54,2.189103621575944,0.6029527490296487,-0.644029552059922,611443.0,-6.261126599019099,0.2829555578539211,-0.010795151450449403,614978.0,,,,,784.4246587763771,780.8896587763771,
22,27,20,f,1,0,14.0,14,3,high,4 + 1 + 8 + 9 - 5,17,17,19,18,777.8849280999857,779.9099150999682,781.4252196999732,786.4451192999841,791.4630080999923,791.4630106000113,792.979324200016,793.9974330000114,,,,0,Too Slow!,54,5.64149183475706,-1.2303911135707306,-0.49151849477830734,660576.0,17.592763630552675,0.48175184681867034,0.0032418978661512554,664110.0,,,,,833.5566587763772,830.0226587763772,
23,27,20,f,1,0,15.0,15,2,low,6 + 8 + 1 + 1 - 7,9,8,9,11,795.5138097999734,797.5400031000027,799.0552966999821,804.0752013999736,806.3551426000195,806.3551473999978,807.8720673000207,808.889091799967,w,9.0,2.2799412000458688,1,+1,55,-15.30165803871992,0.09519907902283853,0.1810589892254555,645682.0,-1.4594453911930234,0.5712080442667258,-0.1131237296532186,649217.0,,,,,818.6636587763771,815.1286587763772,
24,27,20,f,1,0,16.0,16,3,high,3 + 1 + 6 - 8 + 9,11,11,13,12,810.405954100017,812.433753499994,813.9496048999717,818.9677972000209,820.2510700999992,820.2510752999806,821.7678343000007,822.7852418000111,q,11.0,1.2832728999783285,1,+10,65,0.5839575885144148,0.7258699554718242,-0.0933271726783591,732252.0,-16.066580608586047,1.0288949321509278,-0.22753347625784492,735787.0,,,,,905.2336587763772,901.6986587763771,
25,27,20,f,1,0,17.0,17,1,high,2 + 1 + 9 + 1 - 1,12,13,12,11,824.3024066999787,826.3264194999938,827.841717400006,832.8603982999921,833.7391282999888,833.7391331999679,835.2556733000092,836.2730050999671,w,12.0,0.8787299999967217,1,+10,75,-20.097682714719188,0.173414607750618,-0.0044673296464896595,674468.0,-31.795190874404387,0.04038504431054202,-0.011183709992075741,678002.0,,,,,847.4486587763771,843.9146587763771,
26,27,20,f,1,0,18.0,18,1,high,7 + 1 + 6 + 1 + 1,16,18,16,17,837.7897739000036,839.8144097999902,841.3295886999695,846.3474837000249,847.3311635999708,847.3311686000088,848.8476086999872,849.8649113000138,w,16.0,0.9836798999458553,1,+10,85,4.6994611732814935,16.086547957309165,23.352785695561703,687956.0,26.235635121552473,-0.2039000817113208,0.7724174951548335,691489.0,,,,,860.9356587763772,857.4026587763772,
27,27,20,f,1,0,19.0,19,1,high,8 + 1 + 1 + 1 - 4,7,7,5,8,851.381627099996,853.4079116000212,854.9232094999752,859.9413609000039,861.6190974999918,861.6191022999701,863.1355805000057,864.1528480999987,q,7.0,1.6777365999878384,1,+10,95,-11.403545310650237,-0.050610079368636374,-0.37067173883463234,701550.0,6.543435585746785,0.06588240282049052,-0.7278987541867172,705083.0,,,,,874.5296587763771,870.9966587763771,
28,27,20,f,1,0,20.0,20,2,high,7 + 5 + 1 - 1 - 8,4,3,2,4,865.6693060999969,867.696110000019,869.2120101000182,874.2304931000108,878.0352008999907,878.0352054999676,879.5519069000147,880.5692916999687,e,4.0,3.8047077999799512,1,+10,105,-24.62886438788999,0.6798225503909521,-0.0012832359781409508,715837.0,-15.731117022771183,0.928196911832412,0.2817721977991088,719372.0,,,,,888.8186587763771,885.2836587763771,
29,27,20,f,1,0,21.0,21,3,high,6 + 1 + 8 + 7 - 9,13,15,13,14,882.086097899999,884.1103331000195,885.6250656999764,890.6450861999765,894.0832561000134,894.0832615999971,895.6003295999835,896.6176011000061,e,14.0,3.4381699000368826,0,+0,105,-32.05939967863341,-16.63940760980528,-14.1950913127322,841997.0,3.523719770372095,-18.872915170554702,-10.143835769073814,845530.0,,,,,1014.9766587763771,1011.4436587763771,
30,27,20,f,1,0,22.0,22,3,low,9 + 3 - 4 + 6 + 7,21,21,22,23,898.1342261999962,900.1585828000098,901.673904699972,906.6938309000108,908.7310770999756,908.7310821000136,910.2477971999906,911.2657369999796,q,21.0,2.0372461999650118,1,+1,106,-0.9917444667501449,0.2526400314353179,-1.0621111972406938,748300.0,-13.146602402204884,0.4209402486188316,0.30419452122759694,751835.0,,,,,921.2816587763772,917.7466587763771,
31,27,20,f,1,0,23.0,23,4,low,5 + 8 - 6 + 7 + 4,18,18,19,17,912.7827755999753,914.8064945000224,916.3217629999854,921.3419327000156,925.0112353999866,925.011240300024,926.527887300006,927.5451427000226,w,19.0,3.6693026999710128,0,+0,106,-19.32111392347167,0.6149692943550282,0.4767743895475718,762948.0,8.798470578480265,0.9008088152848606,0.22484572530248847,766483.0,,,,,935.9296587763771,932.3946587763771,
32,27,20,f,1,0,24.0,24,4,high,4 + 7 - 8 + 9 - 4,8,9,7,8,929.0618133000098,931.088513499999,932.603692099976,937.6222957000136,940.9552181999898,940.9552232999704,942.4720971999924,943.4893286000006,w,7.0,3.332922499976121,0,+0,106,7.172676350778796,0.7065609427101358,-0.2990848163414608,779230.0,-27.29376076791232,0.7786880852791507,-0.5621861123989635,782764.0,,,,,952.2106587763772,948.6766587763772,
33,27,20,f,1,0,25.0,25,1,low,7 - 1 + 9 + 1 - 1,15,14,15,13,945.0061796000228,947.0323975000064,948.5476842999924,953.565903700015,956.05925380002,956.0592588,957.5758273000248,958.5926826000214,w,15.0,2.493350100005045,1,+1,107,4.70273117648766,-0.06976398591746191,-0.29041020940367357,795173.0,-4.102679325056791,0.12165779140461552,-0.10960691325997374,798707.0,,,,,968.1536587763771,964.6196587763772,
34,27,20,f,1,0,26.0,26,4,high,5 + 6 - 4 + 7 + 9,23,23,24,25,960.1091508999816,962.1359242000036,963.6511978000052,968.6696843000244,972.7632730000188,972.7632783000008,974.279896699998,975.2972604000242,q,23.0,4.093588699994143,1,+10,117,-3.73155920529134,-8.477879205682564,-6.085197104950515,810277.0,12.552154988061725,-1.5067061357226228,1.0435167221473272,813811.0,,,,,983.2576587763772,979.7236587763772,
35,27,20,f,1,0,27.0,27,1,high,8 + 1 + 1 + 1 - 3,8,6,9,8,976.8140954999836,978.8385166000226,980.3538788000004,985.371780299989,987.7793182000167,987.7793231999968,989.296487900021,990.313880599977,e,8.0,2.407537900027819,1,+10,127,11.915597841506129,-1.3188670174346568,-0.9089871784534234,826980.0,-4.248721113397158,0.11464713017416228,-0.29480086703641284,830513.0,,,,,999.9596587763772,996.4266587763772,
36,27,20,f,1,0,28.0,28,3,high,9 - 1 + 5 - 6 + 8,15,15,14,17,991.8303416999988,993.8554201999796,995.3707953999984,1000.3884717000184,1004.5151711999788,1004.5151762000168,1006.0325215000194,1007.0498217999702,e,17.0,4.126699499960523,0,+0,127,7.712717222082227,0.70844780082344,0.052315588861432616,908019.0,-2.4055890865489857,0.6176031593095352,0.22577538343394998,911552.0,,,,,1080.9986587763772,1077.465658776377,
37,27,20,f,1,0,29.0,29,4,low,7 + 6 - 4 + 9 - 5,13,12,14,13,1008.5667467999738,1010.592600599979,1012.1078807999728,1017.128058800008,1022.0592925000236,1022.0592975000036,1023.575942299969,1024.5931363999844,q,12.0,4.931233700015582,0,+0,127,-9.82773627650673,-2.521492890460001,-0.5445361825980011,858733.0,-27.097634574875165,0.5736112418946764,0.8565360969777558,862269.0,,,,,1031.715658776377,1028.179658776377,
38,27,20,f,1,0,30.0,30,4,high,6 + 9 - 7 + 8 - 5,11,13,12,11,1026.1100920999888,1028.1357558000018,1029.651137800014,1034.6698206000146,1037.5233236000058,1037.5233289999887,1039.039868300024,1040.0570477999863,e,11.0,2.8535029999911785,1,+10,137,8.588039248161616,0.10844045084484577,0.023902383435230767,876276.0,-7.015129837104204,0.5013551769749256,0.3071874771765595,879811.0,,,,,1049.2576587763772,1045.722658776377,
39,27,20,f,1,0,31.0,31,4,low,5 + 7 - 4 + 8 + 6,22,22,23,24,1041.574306399969,1043.6015923999948,1045.1173774999916,1050.1356298999744,1053.803349099995,1053.8033543999773,1055.3199392000097,1056.336972500023,q,22.0,3.667719200020656,1,+1,138,-3.946561507249374,0.07375561388408824,0.021228135104363055,891742.0,-28.55281707005664,0.6451591036403177,0.18002979755464743,895277.0,,,,,1064.723658776377,1061.188658776377,
40,27,20,f,1,0,32.0,32,3,high,2 - 4 + 9 + 7 + 1,15,15,16,13,1057.85354609997,1059.8782489000005,1061.3931762999855,1066.4116279999726,1071.4289856000105,1071.4289884999744,1072.9456476999912,1073.964046899986,,,,0,Too Slow!,138,-21.76020883101485,-6.733092459330754,-10.781600125293437,1063028.0,11.132991971688806,0.3075080515662032,-0.27882177613162584,1066562.0,,,,,1236.008658776377,1232.474658776377,
41,27,20,f,1,0,33.0,33,2,low,6 + 1 + 1 + 7 - 9,6,6,8,4,1075.4810531999683,1077.5080107999966,1079.023180899967,1084.0414823999745,1085.4353075000108,1085.4353124999907,1086.9526982000098,1087.969926699996,q,6.0,1.393825100036338,1,+1,139,14.577286890927141,0.5802545670507961,0.8015369946113831,925648.0,22.949673313802187,0.2093389791678688,0.4604945765977764,929182.0,,,,,1098.628658776377,1095.0946587763772,
42,27,20,f,1,0,34.0,34,2,high,4 + 9 - 7 + 1 - 1,6,8,6,5,1089.486749099975,1091.5125359999947,1093.027817299997,1098.046912299993,1101.5073895999813,1101.50739470002,1103.0241099999985,1104.0413727000123,w,6.0,3.46047729998827,1,+10,149,-8.097086472133071,0.7601160637915596,0.3559791637085814,939653.0,5.346897179127861,0.9570640010206577,-0.4065572962009609,943187.0,,,,,1112.6336587763772,1109.099658776377,
43,27,20,f,1,0,35.0,35,4,low,5 + 7 - 4 + 6 + 9,23,23,24,25,1105.5584334000014,1107.5833835999947,1109.098575400014,1114.1167287999997,1118.4594356999733,1118.4594411000144,1119.9761008999776,1120.9935781999957,w,24.0,4.342706899973564,0,+0,149,-23.571673364370916,-2.6828173976244885,-0.4112350308027368,955724.0,-27.50739894784607,0.06520762070893449,-0.4475855487788136,959257.0,,,,,1128.703658776377,1125.1706587763772,
44,27,20,f,1,0,36.0,36,2,high,9 + 5 - 6 + 1 - 1,8,8,7,9,1122.510475000017,1124.5352847999893,1126.0506710999762,1131.0699880999746,1132.0756117000128,1132.0756174999988,1133.5917405000073,1134.6088154999889,q,8.0,1.005623600038234,1,+10,159,-6.28223275541303,0.7390596541500116,-0.2526860929768331,972676.0,-5.346571216797159,1.0375700644752017,0.16376269231441487,976210.0,,,,,1145.656658776377,1142.1226587763772,
45,27,20,f,1,0,37.0,37,1,low,6 + 9 + 1 + 1 - 1,16,16,15,14,1136.125692199974,1138.1528464999865,1139.668079299969,1144.686117300007,1147.027398700011,1147.0274036999908,1148.543967399979,1149.5616192999878,q,16.0,2.341281400003936,1,+1,160,3.9866151600167363,1.6904249244551348,0.08183874152003323,986293.0,18.45832729662337,-0.015816935728844683,-0.11885606591074449,989827.0,,,,,1159.273658776377,1155.7396587763772,
46,27,20,f,1,1,38.0,0,2,low,6 + 1 + 7 - 8 - 1,5,4,5,7,1219.7677041999996,1221.7948175999918,1223.3100678999908,1228.3304495000048,1231.051555300015,1231.051560299995,1232.5684432999697,1233.5854894000222,w,5.0,2.721105800010264,1,+1,161,-0.07059110131162072,0.9947079929881588,0.6222609028569925,1017918.0,-21.290244653789998,0.936682089289758,2.4932739240139226,1021454.0,,,,,1190.900658776377,1187.3646587763772,
47,27,20,f,1,1,39.0,1,4,high,5 + 8 - 4 - 6 + 9,12,12,13,14,1235.1022418999928,1237.129442400008,1238.644477599999,1243.663077300007,1247.2354357999866,1247.235440800025,1248.7520599999698,1249.769897399994,q,12.0,3.5723584999796003,1,+10,171,-16.302310310923776,0.7058012790961938,-3.1933676674516294,1033253.0,-4.723372200975533,0.5956213595630464,-0.11926733893098529,1036786.0,,,,,1206.232658776377,1202.699658776377,
48,27,20,f,1,1,40.0,2,2,low,5 + 8 + 1 - 1 + 9,22,22,23,21,1251.2872311999672,1253.3110435999697,1254.826308800024,1259.8445704000187,1260.827403299976,1260.8274081000127,1262.344135100022,1263.360954999982,q,22.0,0.9828328999574296,1,+1,172,-0.8565090788820537,0.45329862019100453,0.11808145110642787,1049434.0,16.55876929950344,-0.12253967510956265,-0.1928510006333295,1052968.0,,,,,1222.414658776377,1218.880658776377,
49,27,20,f,1,1,41.0,3,3,high,7 - 1 + 8 - 6 + 4,12,12,11,13,1264.877771999978,1266.9049883999978,1268.4200923999888,1273.4386912999908,1276.395474400022,1276.395480600011,1277.9121301000123,1278.9295824000146,q,12.0,2.9567831000313163,1,+10,182,6.574899404490333,1.2700196296644024,-0.1498372025538055,1108847.0,-17.34305948234406,0.8534808352362546,0.5793060413947257,1112383.0,,,,,1281.829658776377,1278.293658776377,
50,27,20,f,1,1,42.0,4,4,high,2 + 9 - 4 + 8 + 7,22,21,23,22,1280.4461408000209,1282.470634999976,1283.9859326999867,1289.0047787000076,1293.0434785999823,1293.043483800022,1294.5602165000164,1295.5775580999907,w,23.0,4.038699899974745,0,+0,182,20.87844061064611,0.43869619140700955,-0.3094955847871441,1078594.0,-7.673245625951559,0.19339107934977484,0.04353936257278779,1082128.0,,,,,1251.574658776377,1248.040658776377,
51,27,20,f,1,1,43.0,5,3,low,2 + 1 + 9 - 7 + 6,11,13,11,12,1297.0940443999716,1299.119198500004,1300.6342331999913,1305.654176299984,1306.6515064999694,1306.651511300006,1308.1681407999713,1309.1851405000198,w,11.0,0.9973301999852991,1,+1,183,19.768270477364176,0.38243285994813814,0.059624593728131,1095243.0,10.600706726793105,-0.33078428716925945,0.17124067510464736,1098777.0,,,,,1268.223658776377,1264.689658776377,
52,27,20,f,1,1,44.0,6,3,high,6 - 1 + 7 - 8 + 9,13,12,13,11,1310.701925900008,1312.724123299995,1314.2394773999697,1319.2598861000151,1322.7955616000108,1322.79556649999,1324.312763699971,1325.3300350999923,q,12.0,3.5356754999957047,0,+0,183,-6.2006444785470265,0.46959140830317914,-0.03170781060879557,1210676.0,-1.697082349340488,0.7013852895425075,-0.16343843477962983,1214210.0,,,,,1383.656658776377,1380.122658776377,
53,27,20,f,1,1,45.0,7,1,high,7 + 1 + 4 + 1 - 1,12,12,11,13,1326.8462292000186,1328.8696739000152,1330.3850315000163,1335.4053820999688,1336.0515552000145,1336.051560299995,1337.5681113000028,1338.5855778999976,q,12.0,0.6461731000454165,1,+10,193,17.077540232561358,0.5607213032668561,0.07342064591074182,1124993.0,-20.05846466095752,-0.5844588628598277,0.04160330587302852,1128528.0,,,,,1297.974658776377,1294.439658776377,
54,27,20,f,1,1,46.0,8,1,high,9 + 1 + 1 + 7 - 1,17,16,17,19,1340.10244290001,1342.128539199999,1343.6439620999736,1348.6623342999956,1349.5315597999725,1349.5315651000128,1351.0482074000174,1352.0655777999782,w,17.0,0.869225499976892,1,+10,203,7.752763282007853,-0.17217607950359426,0.02048342227536981,1138251.0,-0.5901654601018205,-0.09516054310838751,-0.4069828882716644,1141785.0,,,,,1311.2316587763771,1307.697658776377,
55,27,20,f,1,1,47.0,9,2,low,7 + 6 + 1 - 1 - 8,5,4,3,5,1353.582638300024,1355.6107173999771,1357.1267802999937,1362.155559899984,1363.3395159000063,1363.339521199989,1364.855910299986,1365.8728475000244,e,5.0,1.1839560000225902,1,+1,204,19.01102276706064,0.47438764604886696,0.04031781937224377,1151733.0,-1.62216202786907,-0.14349349090860564,2.803001153305055,1155278.0,,,,,1324.724658776377,1321.179658776377,
56,27,20,f,1,1,48.0,10,4,low,5 + 9 - 4 + 7 + 6,23,25,24,23,1367.389491399983,1369.4147811000005,1370.9300490000169,1375.9501853999682,1380.059626400005,1380.0596315999865,1381.5762865999714,1382.5937170999823,w,24.0,4.109441000036895,0,+0,204,6.193418099729992,-4.890073169902745,-8.430391209992763,1165538.0,15.40787686629275,0.054371631616390026,-0.6561287114740821,1169073.0,,,,,1338.5196587763771,1334.984658776377,
57,27,20,f,1,1,49.0,11,2,high,5 + 7 - 8 + 1 + 1,6,8,6,7,1384.110205999983,1386.1327279999969,1387.64790609997,1392.6663494000095,1395.2115389999817,1395.2115437000175,1396.72806579998,1397.7453702000205,e,7.0,2.5451895999722183,0,+0,204,-13.605684938291871,0.2258242007087734,-0.05651728402040446,1182256.0,-34.73097636141088,-0.20040914927771514,-0.16833729952498677,1185789.0,,,,,1355.235658776377,1351.7026587763771,
58,27,20,f,1,1,50.0,12,2,high,9 + 4 + 5 + 1 - 1,18,18,17,19,1399.2625690000132,1401.2855367999873,1402.8006988000125,1407.818801800022,1408.4755198999774,1408.4755249000154,1409.992041999998,1411.009498999978,q,18.0,0.6567180999554694,1,+10,214,-13.958285046722466,0.9058460517904443,0.09430701314874357,1197408.0,-0.07505455472931333,0.7238981393480008,-0.02768025435014465,1200941.0,,,,,1370.387658776377,1366.854658776377,
59,27,20,f,1,1,51.0,13,3,high,3 - 7 + 5 + 1 + 9,11,11,12,13,1412.5264373000246,1414.553321400017,1416.0686221999931,1421.0869851000025,1425.355522800004,1425.355527799984,1426.871867800015,1427.8888076000148,e,13.0,4.268537700001616,0,+0,214,22.929890882349973,0.1701887249641425,-1.3411844643641038,1271370.0,-28.813166014384066,0.8843864994355446,-0.5738363465656309,1274904.0,,,,,1444.350658776377,1440.816658776377,
60,27,20,f,1,1,52.0,14,2,high,3 + 8 + 1 - 5 + 1,8,6,9,8,1429.4056047999766,1431.4307097999845,1432.9460080999995,1437.9643731999677,1441.8195902999723,1441.819595000008,1443.336270699976,1444.3535660000052,q,6.0,3.8552171000046656,0,+0,214,-13.51749278040158,0.12046734075489152,-0.059496247676787295,1227553.0,23.589282731956583,-0.13432730514790592,0.021829455076644244,1231087.0,,,,,1400.533658776377,1396.9996587763771,
61,27,20,f,1,1,53.0,15,1,low,2 + 1 + 1 + 9 - 1,12,11,12,13,1445.870220199984,1447.8966372999712,1449.4126003999845,1454.431494800025,1455.8355571000138,1455.8355620999937,1457.352175900014,1458.3691413999768,w,12.0,1.404062299989164,1,+1,215,5.356360235604803,0.41620157641335087,0.16297381544108003,1244019.0,28.283799005243896,-0.05082613852095896,0.1222324709899012,1247553.0,,,,,1416.9996587763771,1413.465658776377,
62,27,20,f,1,1,54.0,16,2,high,4 + 7 + 1 + 1 - 8,5,5,4,7,1459.8858599999803,1461.9115569000132,1463.4267773000174,1468.4449266999727,1469.1715862000128,1469.1715912999937,1470.6880261999904,1471.7053055000142,q,5.0,0.7266595000401139,1,+10,225,-43.74021328093784,0.7492629153793597,-0.15583284683577725,1258034.0,9.03688937281914,0.33540573030514054,0.1841740963471401,1261568.0,,,,,1431.014658776377,1427.4806587763771,
63,27,20,f,1,1,55.0,17,3,high,8 + 4 + 1 - 7 + 9,15,16,13,15,1473.2220115999808,1475.24805439997,1476.7633665999747,1481.781868399994,1485.443747500016,1485.4437528999988,1486.9604241999914,1487.977988399973,w,13.0,3.661879100021906,0,+0,225,8.660366805177928,0.07133447732977816,2.206754442112663,1577417.0,-5.996516103458127,1.473217132758914,-0.1717096059978651,1580950.0,,,,,1750.396658776377,1746.863658776377,
64,27,20,f,1,1,56.0,18,2,low,8 + 1 + 9 + 1 - 5,14,14,13,15,1489.4950546000036,1491.5205709000002,1493.0355726999696,1498.0548069999786,1499.1156844000216,1499.1156895000022,1500.6324724999722,1501.64918399998,q,14.0,1.0608774000429548,1,+1,226,7.738909745384708,0.07481306148456301,0.9222537254577823,1287643.0,16.632201328912767,0.32219340237450034,0.2832055820507007,1291177.0,,,,,1460.623658776377,1457.089658776377,
65,27,20,f,1,1,57.0,19,1,high,6 + 1 + 1 + 9 - 1,16,14,16,15,1503.1661238999804,1505.1931679999689,1506.708186600008,1511.7262869999977,1512.2915798000176,1512.291584599996,1513.8087293999852,1514.826745599974,w,16.0,0.5652928000199609,1,+10,236,9.061095187216475,-0.09124960115873826,-0.8963799575771496,1301315.0,13.58173399051408,0.08698064648370263,0.25865396400796525,1304848.0,,,,,1474.294658776377,1470.761658776377,
66,27,20,f,1,1,58.0,20,1,low,6 + 1 + 1 + 7 - 1,14,12,14,13,1516.3434618000174,1518.3674156999914,1519.8834740999737,1524.90364460001,1525.5956593999872,1525.5956643000245,1527.1124592999695,1528.1294702999876,w,14.0,0.6920147999771871,1,+1,237,-31.871321507547652,0.12444928480440876,-0.012258960057419444,1314490.0,11.922029392277297,-0.19870591410604543,0.06989506293898495,1318026.0,,,,,1487.472658776377,1483.936658776377,
67,27,20,f,1,1,59.0,21,1,low,6 + 9 + 1 + 1 - 1,16,16,15,14,1529.646296699997,1531.6719199999934,1533.187215199985,1538.205300499976,1538.851624700008,1538.851629599987,1540.3680211000028,1541.3849416999728,q,16.0,0.6463242000318132,1,+1,238,5.543329744226715,-0.738949000046988,-0.07864110288275361,1327794.0,7.985982185949334,0.25136088411040713,0.13437349392525344,1331327.0,,,,,1500.773658776377,1497.2406587763771,
68,27,20,f,1,1,60.0,22,4,high,2 + 9 - 3 + 5 + 8,21,22,23,21,1542.901653399982,1544.9270630999818,1546.4422559000086,1551.4604884000146,1556.163731699984,1556.1637369000237,1557.6803629000206,1558.6975754000014,q,22.0,4.703243299969472,0,+0,238,-14.461284115703268,-0.24451476485584767,-3.3628013299705475,1341049.0,22.372556829780443,1.1989592176882544,0.020783383506359332,1344583.0,,,,,1514.0296587763771,1510.495658776377,
69,27,20,f,1,1,61.0,23,4,high,9 + 4 - 6 + 8 + 7,22,24,21,22,1560.2140843999805,1562.2407821000088,1563.7560943000135,1568.7747411999735,1572.4356863999856,1572.4356914000236,1573.9521722000209,1574.9693996999997,w,21.0,3.6609452000120655,0,+0,238,17.051927545580504,0.9942704424405822,0.3487268841370108,1358363.0,-3.4088176916785047,0.7025874385104061,0.014710816533777926,1361897.0,,,,,1531.343658776377,1527.809658776377,
70,27,20,f,1,1,62.0,24,4,high,8 + 4 + 7 - 5 - 6,8,9,8,6,1576.4862387999892,1578.5119362999685,1580.0272432999918,1585.0470588000026,1589.8757448000251,1589.8757501000073,1591.3930148999789,1592.4103461999912,q,9.0,4.828686000022572,0,+0,238,-13.981854576276982,0.179029115441514,-0.42428046227603433,1374633.0,-18.723503781162496,0.15340564721137984,0.06362264455650202,1378169.0,,,,,1547.6156587763771,1544.079658776377,
71,27,20,f,1,1,63.0,25,3,low,8 - 7 + 9 + 1 + 4,15,16,14,15,1593.9274797000107,1595.951833900006,1597.467078000016,1602.486618899973,1603.4037086999742,1603.4037137000123,1604.9199009999866,1605.936798700015,e,15.0,0.917089800001122,1,+1,239,0.06919943289594777,1.1257029802094154,0.08814147066693767,1392074.0,14.13066371377611,0.09976470486923184,0.04148276555135322,1395609.0,,,,,1565.055658776377,1561.520658776377,
72,27,20,f,1,1,64.0,26,4,high,8 + 4 + 7 - 5 - 6,8,6,9,8,1607.4534930000082,1609.479586899979,1610.9947321999937,1616.0133551000035,1619.3557854000246,1619.3557904000045,1620.8722262000083,1621.8895734999678,e,8.0,3.3424303000210784,1,+10,249,32.40020770951308,0.15545583428020127,-0.16944406283995406,1405602.0,-21.8548734229534,0.25221417187134954,-1.5834221771566819,1409135.0,,,,,1578.581658776377,1575.0486587763771,
73,27,20,f,1,1,65.0,27,1,low,7 - 1 + 1 + 9 - 1,15,13,14,15,1623.405629099987,1625.4329846000182,1626.948339900002,1631.9683992000064,1634.8357856000075,1634.8357905999874,1636.3530238000094,1637.3696848999823,e,15.0,2.8673864000011235,1,+1,250,-4.417074497582577,0.41588214179879746,-1.662965909943762,1421555.0,9.395332204276542,-0.08737623485864354,-0.20878961402707397,1425090.0,,,,,1594.536658776377,1591.001658776377,
74,27,20,f,1,1,66.0,28,1,high,3 + 1 + 9 + 1 + 1,15,15,17,14,1638.8866826000158,1640.913743800018,1642.4290257000248,1647.4472652999684,1648.4917399999686,1648.4917447000043,1650.0085419000245,1651.025815500005,q,15.0,1.044474700000137,1,+10,260,7.879385339165724,-0.6491449761346253,-0.08248872128551898,1437035.0,19.880252922313318,-0.1628003614719118,-0.02447996625143878,1440569.0,,,,,1610.015658776377,1606.4816587763771,
75,27,20,f,1,1,67.0,29,4,low,6 + 9 + 7 - 3 - 5,14,15,14,13,1652.5423587000114,1654.5677946999783,1656.0830037000123,1661.1031933000197,1665.1717275999836,1665.171732900024,1666.688311100006,1667.7054126000148,q,15.0,4.068534299964085,0,+0,260,8.487668634169243,-0.9159298254414647,0.048656458311353123,1450689.0,-13.434161670853804,0.4313023460112193,0.25817430463583824,1454225.0,,,,,1623.671658776377,1620.135658776377,
76,27,20,f,1,1,68.0,30,3,low,2 + 1 + 9 - 5 + 6,13,11,14,13,1669.2221409999763,1671.2470008999808,1672.7620988999845,1677.7796746999957,1682.3958438999834,1682.395849499968,1683.9121152000153,1684.9300286999787,w,14.0,4.61616919998778,0,+0,260,11.855826531015403,0.051377408591990026,0.12145960525820376,1467368.0,-16.606145673890452,0.011377001956394572,-0.07218846576520344,1470902.0,,,,,1640.348658776377,1636.814658776377,
77,27,20,f,1,1,69.0,31,2,low,6 + 1 + 7 + 5 - 1,18,17,18,16,1686.446565899998,1688.4714789999998,1689.9867427999852,1695.00501839997,1695.6924851000076,1695.692490699992,1697.20909389999,1698.2261057000142,w,18.0,0.6874667000374757,1,+1,261,-9.07019681608317,0.571225393272762,0.39449972738104044,1484593.0,2.6362007765957096,-0.22562167848883874,0.19916990223348918,1488126.0,,,,,1657.572658776377,1654.039658776377,
78,27,20,f,1,1,70.0,32,2,high,8 + 1 + 4 - 7 + 1,7,6,7,5,1699.7427713000216,1701.7680775999906,1703.2830662999768,1708.301551099983,1711.451808199985,1711.4518133000238,1712.9683679000009,1713.985638800019,w,7.0,3.150257100001909,1,+10,271,21.065186943708817,5.449567288851464,6.185858409917211,1497889.0,3.550550766579521,-0.11406242033447356,-0.1538509544721931,1501423.0,,,,,1670.869658776377,1667.335658776377,
79,27,20,f,1,1,71.0,33,4,low,9 + 7 - 5 + 8 + 6,25,27,25,24,1715.5025722999708,1717.53635140002,1719.0512830999796,1724.0700326000224,1726.6838693000027,1726.6838746999856,1728.200509599992,1729.217815699987,e,24.0,2.613836699980311,0,+0,271,11.100977117261708,0.6252394673295241,6.169791945257857,1513657.0,4.772819974769037,1.7367211080748728,-2.2286992246607884,1517191.0,,,,,1686.637658776377,1683.103658776377,
80,27,20,f,1,1,72.0,34,2,high,6 + 1 + 8 + 7 - 1,21,19,23,21,1730.7343876999803,1732.7584612999926,1734.2735305000097,1739.2920476999716,1743.0999237999786,1743.099929500022,1744.6166963999858,1745.6340221000137,e,21.0,3.807876100006979,1,+10,281,-26.03104328966088,0.6921094268000774,-0.7337093223106734,1528879.0,4.999650970053009,4.979934569640912,5.215965758632429,1532413.0,,,,,1701.859658776377,1698.325658776377,
81,27,20,f,1,1,73.0,35,2,low,9 + 6 + 1 + 7 + 1,24,25,24,23,1747.1507118999723,1749.1800681999885,1750.6952636999777,1755.713503099978,1759.1559131999966,1759.1559184999787,1760.6726812999696,1761.6901801999777,q,25.0,3.4424101000186056,0,+0,281,-16.371796430017998,1.4303609814316456,0.10073307876332604,1545301.0,-44.36849370302862,0.43417140597280834,0.0881287669733739,1548834.0,,,,,1718.280658776377,1714.747658776377,
82,27,20,f,1,1,74.0,36,3,low,3 + 8 - 7 + 1 + 9,14,12,14,13,1763.2069079999928,1765.2325927999918,1766.7477342999773,1771.7661561999705,1775.2201223999728,1775.2201274000108,1776.736686899967,1777.7539787999704,e,13.0,3.453966200002469,0,+0,281,7.249697055039661,0.7675649038738204,-0.4603297183192865,1561354.0,-1.063416844596551,0.7040315305247034,0.2806561016787148,1564887.0,,,,,1734.333658776377,1730.800658776377,
83,27,20,f,1,1,75.0,37,3,high,4 + 1 + 8 + 9 - 5,17,17,19,18,1779.2709858000162,1781.2960079999757,1782.8111533999909,1787.8301120999968,1792.6598718999885,1792.6598771999709,1794.1764139999868,1795.193644899991,e,18.0,4.829759799991734,0,+0,281,19.19880136816487,0.5828825594785778,-0.057728901615524464,1694168.0,27.38831564425083,0.9062866527203401,-0.11821963734971863,1697704.0,,,,,1867.150658776377,1863.614658776377,
84,27,20,f,1,2,76.0,0,3,low,5 - 1 - 4 + 6 + 7,13,13,15,14,1836.616445599997,1838.6430621999896,1840.1582194999792,1845.1784028999973,1848.3239755000104,1848.323980899993,1849.8405878000196,1850.8578245000097,q,13.0,3.145572600013111,1,+1,282,-20.913121133456603,0.7487977357262903,-3.219993045552179,1634763.0,1.7527654024434907,0.6414589966519197,-0.38962991619185594,1638299.0,,,,,1807.745658776377,1804.209658776377,
85,27,20,f,1,2,77.0,1,4,high,4 + 7 + 8 - 3 + 9,25,24,25,26,1852.374404000002,1854.399026500003,1855.9142536,1860.934375300014,1864.3559167999772,1864.3559219000165,1865.8723505000237,1866.889642199967,w,25.0,3.421541499963496,1,+10,292,-3.7319003530568544,0.8741857981675487,-0.16411799520102344,1650520.0,-4.491467583628142,0.7613462289442121,-0.18976824378300483,1654055.0,,,,,1823.501658776377,1819.966658776377,
86,27,20,f,1,2,78.0,2,2,low,9 + 1 + 6 + 7 + 1,24,25,23,24,1868.406491199974,1870.432443899976,1871.947617399972,1876.966465000005,1878.267995800008,1878.2680009999892,1879.7846666999976,1880.8011702999936,e,24.0,1.3015308000030927,1,+1,293,9.66197108062538,0.7211085304948086,-1.192981516799847,1666553.0,-33.01568112429076,0.9129348704802354,0.4826768332537581,1670087.0,,,,,1839.533658776377,1835.9996587763771,
87,27,20,f,1,2,79.0,3,4,low,8 + 7 - 4 + 5 + 9,25,26,25,24,1882.318035500008,1884.344817199977,1885.8601249000055,1890.8783747999696,1891.972078599967,1891.9720838000069,1893.488577299984,1894.505395199987,w,25.0,1.0937037999974564,1,+1,294,3.152942013348383,0.7325122106880588,-0.08424084848688018,1680465.0,10.320484764570983,0.7201640411452019,-0.12092275455209256,1683999.0,,,,,1853.445658776377,1849.911658776377,
88,27,20,f,1,2,80.0,4,3,high,3 + 8 - 7 - 1 + 9,12,12,14,13,1896.022833099996,1898.0484129000104,1899.5636700000032,1904.5837908000103,1909.0679980000127,1909.0680032999956,1910.5844613999943,1911.601685200003,e,13.0,4.4842072000028566,0,+0,294,4.027144398636093,-0.1313925758494099,0.5246163018192651,2015991.0,4.49398663336714,-0.18499438242029154,0.15591847759939892,2019525.0,,,,,2188.9716587763774,2185.4376587763772,
89,27,20,f,1,2,81.0,5,4,high,4 + 7 + 9 - 5 + 7,22,24,22,23,1913.11852020002,1915.1437828000053,1916.6589553999947,1921.677516900003,1925.836055200023,1925.836060200003,1927.352771500009,1928.3702782000184,w,22.0,4.158538300020155,1,+10,304,-7.785701199990328,0.8880325121227326,0.28823751128444997,1711264.0,-31.921218678385568,0.6257860918564178,-0.09564884324721845,1714798.0,,,,,1884.244658776377,1880.710658776377,
90,27,20,f,1,2,82.0,6,1,low,5 + 9 - 1 + 1 + 1,15,17,13,15,1929.8871382999928,1931.9151084999903,1933.4302964999808,1938.4493458999789,1939.2040490999932,1939.2040540999733,1940.720881699992,1941.7377723000243,e,15.0,0.7547032000147738,1,+1,305,-20.21475549683719,0.10199553284086127,-0.006992840002352896,1728035.0,-23.155794917569295,0.6263966696016752,0.07032757813301593,1731569.0,,,,,1901.015658776377,1897.4816587763771,
91,27,20,f,1,2,83.0,7,1,high,7 + 1 + 4 + 1 - 1,12,13,11,12,1943.2545842999823,1945.282476200024,1946.797337799973,1951.815413000004,1954.835994300025,1954.835999200004,1956.3524448000244,1957.369628100016,q,13.0,3.020581300021149,0,+0,305,8.270425361117372,0.49612415669558674,-0.009058831202693352,1741402.0,35.784439711914,-0.11699530742974718,-0.05095683183237876,1744936.0,,,,,1914.382658776377,1910.848658776377,
92,27,20,f,1,2,84.0,8,4,low,7 + 6 - 9 + 8 - 3,9,8,9,7,1958.8864438000016,1960.9126350000151,1962.4277069999955,1967.4464978000035,1971.2761258999817,1971.2761310000203,1972.7926055999703,1973.8098898999745,e,7.0,3.829628099978436,0,+0,305,-15.831225647769315,0.7873604466945063,0.34710033703290843,1757032.0,-32.817462351799385,0.3348276463733906,-0.11850323981659239,1760566.0,,,,,1930.012658776377,1926.478658776377,
93,27,20,f,1,2,85.0,9,3,low,7 - 1 + 8 - 6 + 4,12,13,12,11,1975.3267164999847,1977.352253799967,1978.8675182000152,1983.8858732000224,1987.90821829997,1987.9082231000064,1989.4248901999672,1990.4421494000128,w,12.0,4.022345099947415,1,+1,306,-38.01663090222472,0.4750712251993967,0.04042722503683205,1773472.0,5.636086070758703,0.2632559961848764,0.09778683982225944,1777006.0,,,,,1946.4526587763771,1942.918658776377,
94,27,20,f,1,2,86.0,10,4,low,9 + 8 - 5 - 7 + 6,11,11,13,10,1991.9598583999905,1993.9840037999677,1995.4995861999923,2000.5195155999968,2004.9559969999827,2004.9560021000216,2006.472596000007,2007.489912799967,e,10.0,4.436481399985496,0,+0,306,5.515826420052601,0.5452933821963808,-0.12560999044330812,1790104.0,-7.685432009915719,0.6713374991046779,0.12535584659097943,1793639.0,,,,,1963.085658776377,1959.550658776377,
95,27,20,f,1,2,87.0,11,3,low,6 - 1 + 7 - 8 + 9,13,11,12,13,2009.0067181999912,2011.046593700012,2012.5617245999747,2017.5828448999675,2021.1161295999773,2021.1161351000192,2022.6327902000048,2023.6506131999777,w,12.0,3.533284700009972,0,+0,306,-24.963322774250283,0.6895246164052247,-0.08656459608199985,1807166.0,34.418518214467234,0.41046043911080377,-0.3060816742500885,1810702.0,,,,,1980.148658776377,1976.612658776377,
96,27,20,f,1,2,88.0,12,1,high,7 - 1 + 8 + 1 - 1,14,14,13,12,2025.1672321999797,2027.191108400002,2028.7065247999851,2033.7248043,2034.4120994000116,2034.4121045999927,2035.9285864999983,2036.9462321000171,q,14.0,0.6872951000113972,1,+10,316,21.222891175282662,-0.04869166012210879,0.1374422282078922,1823310.0,-1.999771344812597,0.09291454366012397,-0.11585353724051295,1826845.0,,,,,1996.291658776377,1992.756658776377,
97,27,20,f,1,2,89.0,13,2,low,5 - 8 + 7 + 1 + 1,6,8,7,6,2038.463167799986,2040.4871557999868,2042.0021692999871,2047.020838700002,2048.9961611999897,2048.996166499972,2050.512694099976,2051.52996840002,q,8.0,1.9753224999876693,0,+0,316,18.384115138406358,0.9771984700340539,-3.8507732632577922,1836607.0,6.332487217984258,0.35351075241213703,-0.09142650941370967,1840140.0,,,,,2009.5866587763771,2006.053658776377,
98,27,20,f,1,2,90.0,14,4,high,5 + 7 - 4 - 6 + 9,11,12,13,11,2053.046739000012,2055.073656200024,2056.588428099989,2061.606750999985,2065.2040577000007,2065.2040627999813,2066.720571700018,2067.737879200024,q,12.0,3.5973067000159062,0,+0,316,23.32549451327848,0.6384816147318637,0.2569676242518435,1851193.0,13.971885803334605,0.54473483383246,-0.17704123648141,1854726.0,,,,,2024.1726587763771,2020.639658776377,
99,27,20,f,1,2,91.0,15,2,high,3 + 9 - 1 - 5 + 1,7,7,6,5,2069.2548492000205,2071.27902680001,2072.79412039998,2077.81285029999,2081.260208999971,2081.260215300019,2082.776921199984,2083.8392521999776,q,7.0,3.447358699981123,1,+10,326,31.434929594692793,0.19532981360712798,0.05685495233388682,1867399.0,10.850846711998903,1.0842750586601393,0.04831376457903236,1870931.0,,,,,2040.377658776377,2036.845658776377,
100,27,20,f,1,2,92.0,16,2,low,9 + 4 - 6 + 1 - 1,7,7,8,9,2085.3560713999905,2087.380955600005,2088.896261000016,2093.91480769997,2096.468147000007,2096.4681520999875,2097.9846284000087,2099.00204599998,w,8.0,2.553339300036896,0,+0,326,14.220017246797646,0.484245645173603,-0.004957917297232051,1883500.0,-51.20955832073815,0.8813916402305062,0.2342160450812969,1887034.0,,,,,2056.4806587763774,2052.9466587763773,
101,27,20,f,1,2,93.0,17,1,high,3 + 1 + 1 + 8 - 1,12,14,12,13,2100.527162000013,2102.55324639997,2104.068568799994,2109.086656700005,2109.82022579998,2109.820230800018,2111.336772500013,2112.3543455000035,w,12.0,0.7335690999752842,1,+10,336,-9.156421203060518,-0.1492190344071509,0.011459759937708203,1898672.0,14.211520394777903,0.34994731930260503,-0.08873185799178085,1902206.0,,,,,2071.652658776377,2068.1186587763773,
102,27,20,f,1,2,94.0,18,3,low,7 - 1 + 9 - 5 + 4,14,13,14,15,2113.8710632,2115.896118399978,2117.4113992999773,2122.4297644000035,2126.0361464999733,2126.0361514000106,2127.552724600013,2128.570027999988,e,15.0,3.606382099969778,0,+0,336,-23.702315956797058,0.7250731009578151,-0.337862055663106,1912015.0,-14.477894478681723,1.1691926594023387,0.1733325230918541,1915549.0,,,,,2084.9956587763772,2081.461658776377,
103,27,20,f,1,2,95.0,19,2,low,6 + 1 + 8 + 5 - 1,19,17,19,18,2130.0859039999777,2132.111366099969,2133.6266011999687,2138.695287599985,2139.308216699981,2139.308222000021,2140.824900800013,2141.8419430999784,w,19.0,0.6129290999961086,1,+1,337,-42.775760194693405,0.9046373605732612,0.018063050148986015,1928231.0,30.789412895257364,0.21057234853630913,0.24026340442395178,1931814.0,,,,,2101.260658776377,2097.677658776377,
104,27,20,f,1,2,96.0,20,4,low,8 + 4 - 5 + 7 - 6,8,8,6,7,2143.358757300012,2145.3858016000013,2146.901160600013,2151.920519199979,2154.876231800008,2154.876237199991,2156.392953399976,2157.40965039999,q,8.0,2.9557126000290737,1,+1,338,-25.473493870057794,0.7047039919594189,0.157861493195814,1941505.0,-58.80349164686339,1.2278857992496715,0.036003756942969645,1945039.0,,,,,2114.485658776377,2110.9516587763774,
105,27,20,f,1,2,97.0,21,1,low,3 + 1 + 9 + 1 - 1,13,13,12,14,2158.926506599993,2160.953500600008,2162.468765700003,2167.486679299968,2168.148229899991,2168.1482349999715,2169.6648959000013,2170.681856099982,q,13.0,0.6615506000234745,1,+1,339,20.86370284543615,0.36763977121826485,-0.08695006393710125,1957072.0,3.2789423386324117,-0.7677803940440544,-0.07122700629808154,1960606.0,,,,,2130.052658776377,2126.518658776377,
106,27,20,f,1,2,98.0,22,1,low,2 + 1 + 9 + 1 + 1,14,14,12,13,2172.1987677,2174.223703900003,2175.739077200007,2180.7570598999737,2181.3561998999794,2181.356205100019,2182.8726057999884,2183.889435899968,q,14.0,0.5991400000057183,1,+1,340,-43.37042415179391,-0.23645159766561274,0.3476177399836833,1970343.0,32.68580041151265,0.6561176314533839,0.15356594756623476,1973876.0,,,,,2143.322658776377,2139.789658776377,
107,27,20,f,1,2,99.0,23,3,low,4 + 7 + 1 + 9 - 5,16,17,18,16,2185.406375600025,2187.4340499999817,2188.9492261999985,2193.967846899992,2198.964278600004,2198.9642836999847,2200.480930999969,2201.4980922999675,w,18.0,4.996431700012181,0,+0,340,-50.898447103959114,0.39746047054381517,-0.11864930029981924,1983552.0,-5.828211322270565,0.19706954002621746,-0.13945889065414807,1987086.0,,,,,2156.532658776377,2152.998658776377,
108,27,20,f,1,2,100.0,24,4,low,3 + 9 - 5 + 6 + 8,21,23,21,22,2203.0147784000146,2205.042272599996,2206.55751720001,2211.575476499973,2213.7962121000164,2213.796217199997,2215.312592700008,2216.329523099994,w,21.0,2.220735600043554,1,+1,341,-26.870831810943475,0.6261795254008162,2.8478448846957187,2001161.0,23.08174325491422,0.45674197859893617,-0.5878454418939341,2004694.0,,,,,2174.140658776377,2170.6076587763773,
109,27,20,f,1,2,101.0,25,3,high,4 + 8 - 9 + 1 + 7,11,13,9,11,2217.846364900004,2219.872793800023,2221.387661500019,2226.406316699984,2230.4282480999827,2230.428253799968,2231.944640300004,2232.96195289999,e,11.0,4.021931399998721,1,+10,351,-8.761534592809568,0.4015306017994238,0.5271633375556535,2157224.0,-12.1231171304774,0.6099245630559924,0.09918228765104509,2160758.0,,,,,2330.204658776377,2326.6706587763774,
110,27,20,f,1,2,102.0,26,3,low,4 + 5 - 3 + 7 - 1,12,11,13,12,2234.479081299971,2236.5023614999955,2238.018019500014,2243.036426800012,2245.4842997000087,2245.484304599988,2247.0007956000045,2248.017791699968,e,12.0,2.4478728999965824,1,+1,352,-12.714243834680325,0.5931102904438257,-0.03122985055128602,2032621.0,-65.15659892041677,0.541894325662108,-0.17942789178542995,2036155.0,,,,,2205.601658776377,2202.0676587763774,
111,27,20,f,1,2,103.0,27,4,low,8 + 5 - 4 + 7 + 9,25,25,26,24,2249.5346190999844,2251.5587806999683,2253.0739199999957,2258.092496199999,2262.6444156999933,2262.644420699973,2264.1610564999864,2265.1784061000217,w,26.0,4.551919499994256,0,+0,352,4.063535514917156,0.2816335002746442,0.2104397501338311,2047677.0,61.48776455934153,-0.1893522032093493,-0.0603289401064,2051211.0,,,,,2220.657658776377,2217.123658776377,
112,27,20,f,1,2,104.0,28,4,low,4 + 9 - 7 + 8 + 5,19,20,21,19,2266.695231700025,2268.719672199979,2270.23491509998,2275.289905600017,2280.3075301999925,2280.3075327000115,2281.824128600012,2282.8433623000165,,,,0,Too Slow!,352,-8.076921232186987,0.130610188432577,0.20798705832445785,2064838.0,11.083325162896287,0.5740101135181295,0.38372989444310024,2068408.0,,,,,2237.854658776377,2234.2846587763775,
113,27,20,f,1,2,105.0,29,1,high,3 + 1 + 8 + 1 + 1,14,12,13,14,2284.360118600016,2286.386263000022,2287.901398200018,2292.9204961999785,2294.7162762000225,2294.716281400004,2296.232824200008,2297.250201900024,e,14.0,1.795780000044033,1,+10,362,20.783983292368717,0.1504457176983136,-1.9008682175633806,2082504.0,12.503292588402442,0.5311818805839037,0.08534719385682932,2086039.0,,,,,2255.4856587763775,2251.950658776377,
114,27,20,f,1,2,106.0,30,4,low,8 + 4 + 7 - 5 - 6,8,7,9,8,2298.7667662000167,2300.793571099988,2302.3093862999813,2307.327722200018,2311.116295200016,2311.116301000002,2312.632807900023,2313.650490699976,w,9.0,3.788572999997996,0,+0,362,30.12275748807959,-0.21797335449285704,0.250783868663238,2096912.0,20.976214632240133,0.29297199952906094,-0.1366266371670446,2100446.0,,,,,2269.892658776377,2266.358658776377,
115,27,20,f,1,2,107.0,31,4,high,3 + 9 - 4 + 7 + 6,21,21,20,19,2315.167109199974,2317.191502199974,2318.706377100025,2323.7250386999804,2327.90830999997,2327.908315000008,2329.424809999997,2330.4425334999687,q,21.0,4.183271299989428,1,+10,372,6.583716955148444,-0.056400262967622794,-0.05623217542671188,2113310.0,45.812756485286336,-0.09185524568344139,0.30784458520212876,2116843.0,,,,,2286.289658776377,2282.756658776377,
116,27,20,f,1,2,108.0,32,1,high,8 + 1 + 4 + 1 + 1,15,16,14,15,2331.9593858000007,2333.984089399979,2335.5000491000246,2340.517693299975,2341.148329899996,2341.1483353999797,2342.664520599996,2343.68199979997,e,15.0,0.6306366000208072,1,+10,382,14.234649238545984,-0.48335419143414526,-2.224683810143203,2130102.0,0.17160097213225356,-0.08325660558195036,-0.2718347492420232,2133636.0,,,,,2303.0826587763772,2299.548658776377,
117,27,20,f,1,2,109.0,33,2,high,3 + 9 + 1 - 5 + 1,9,7,9,8,2345.1992730000056,2347.225518699968,2348.7405131999985,2353.759754800005,2355.028294400021,2355.0282993,2356.544881400012,2357.561973600008,w,9.0,1.2685396000160836,1,+10,392,-17.071953261013412,0.2350856348425241,2.581985691130769,2143343.0,14.104576107119332,-0.8812668495267566,-0.7556273252852077,2146878.0,,,,,2316.3246587763774,2312.789658776377,
118,27,20,f,1,2,110.0,34,3,high,5 + 6 - 4 - 1 + 7,13,15,14,13,2359.078714400006,2361.1060472999816,2362.621226200019,2367.639693200006,2371.64444319997,2371.644448100007,2373.161104800005,2374.1780816999963,w,14.0,4.004749999963678,0,+0,392,14.359258831293715,0.878469871912456,-0.364155046906248,2266888.0,-3.6716500847669664,0.7330014377485172,0.11860787585393684,2270422.0,,,,,2439.8686587763773,2436.334658776377,
119,27,20,f,1,2,111.0,35,1,high,4 + 9 + 1 - 1 - 1,12,13,11,12,2375.696888300008,2377.720592800004,2379.2358876999933,2384.2539742999943,2385.1083182999864,2385.1083233000245,2386.6251241000136,2387.6424020999693,e,12.0,0.8543439999921247,1,+10,402,14.496784644694246,-0.9079895224217234,-0.023279618090686238,2173838.0,-78.10361745656739,-1.1015502615316057,-0.017694549619937217,2177372.0,,,,,2346.818658776377,2343.2846587763775,
120,27,20,f,1,2,112.0,36,4,low,5 + 7 - 4 - 6 + 9,11,13,12,11,2389.1589781999937,2391.184954700002,2392.700173999998,2397.7182597999927,2400.196516499971,2400.19652160001,2401.7133380000014,2402.7302739999723,e,11.0,2.478256699978374,1,+1,403,16.233449668653964,-0.09079344487896623,1.0773709635875446,2187303.0,-0.04856010349195472,-0.3568835224247673,-0.07552975918801108,2190836.0,,,,,2360.282658776377,2356.749658776377,
121,27,20,f,1,2,113.0,37,1,low,5 + 6 + 1 + 1 + 1,14,14,16,15,2404.2467847000225,2406.2738658000017,2407.789117200009,2412.806646800018,2413.5163953999872,2413.5164003000245,2415.0326308999797,2416.049872500007,q,14.0,0.7097485999693163,1,+1,404,-44.78874347113722,-0.33804236876501115,-0.19289408105498262,2202392.0,32.47942944229407,0.30227574505681165,-0.019935755790955856,2205925.0,,,,,2375.3716587763774,2371.838658776377,
122,27,20,f,1,3,114.0,0,2,high,3 + 1 + 8 - 5 - 1,6,6,7,5,2454.976947500021,2457.0039434999926,2458.519176199974,2463.53755259997,2464.6924856000114,2464.692490699992,2466.2089814000065,2467.226239199983,q,6.0,1.1549330000416376,1,+10,414,2.146772720092292,0.4796816117587097,0.6480531550229509,2253121.0,-1.0993003011592464,0.17614369177919675,0.12816644973371583,2256655.0,,,,,2426.1016587763775,2422.5676587763774,
123,27,20,f,1,3,115.0,1,3,high,5 + 6 + 7 - 1 - 9,8,7,8,9,2468.743250700005,2470.770107400021,2472.2854112000205,2477.3041604000027,2478.996417600021,2478.9964228000026,2480.513160499977,2481.5305061999825,w,8.0,1.6922572000185028,1,+10,424,-0.8734124292729213,-0.14968501907219167,-0.24761418369552768,2356452.0,13.553066126663927,0.2912340761995722,0.04318749466421812,2359985.0,,,,,2529.4316587763774,2525.8986587763775,
124,27,20,f,1,3,116.0,2,1,low,3 + 1 + 8 - 1 + 1,12,13,12,10,2483.046985200024,2485.072953599971,2486.5882103000185,2491.6063036000123,2492.5725770000136,2492.5725818999927,2494.0898121999926,2495.1072931999806,q,13.0,0.966273400001228,0,+0,424,7.290474949456332,-1.8399482458212484,-1.3241207399958608,2281190.0,13.61121569352843,-0.4536026259867829,-0.44253572276776243,2284724.0,,,,,2454.1706587763774,2450.6366587763773,
125,27,20,f,1,3,117.0,3,4,high,3 + 8 - 4 + 9 + 6,22,23,21,22,2496.623713499983,2498.651332799985,2500.166615199996,2505.1846735000145,2509.517316000012,2509.517321399995,2511.034279900021,2512.051714400004,e,22.0,4.332642499997746,1,+10,434,-36.867574318349305,-0.35937744119009274,-0.6456444117056943,2294769.0,-4.789690960121796,0.5833096972017575,-0.11039089030224813,2298302.0,,,,,2467.7486587763774,2464.215658776377,
126,27,20,f,1,3,118.0,4,1,low,6 + 9 + 1 + 1 - 1,16,14,16,15,2513.5681279000128,2515.5927979999688,2517.107886700018,2522.125720300013,2524.764527400024,2524.7645327000064,2526.281111599994,2527.298129700008,w,16.0,2.638807100011036,1,+1,435,5.943159660918779,-0.058994402908397525,-0.12227901403672226,2311710.0,22.866203400950816,0.0903967592386774,-0.17085713557183135,2315243.0,,,,,2484.689658776377,2481.1566587763773,
127,27,20,f,1,3,119.0,5,2,high,6 + 1 + 1 + 7 - 9,6,6,8,4,2528.814643200021,2530.8408327000216,2532.3561034000013,2537.374756400008,2538.100613899994,2538.1006189999757,2539.617330799985,2540.635267100006,q,6.0,0.725857499986887,1,+10,445,10.56083606457833,0.1761044791999824,0.0019920723939885754,2326958.0,8.36532514085053,0.21981983018613072,-0.19475893651006704,2330492.0,,,,,2499.9386587763775,2496.4046587763773,
128,27,20,f,1,3,120.0,6,3,low,4 + 8 - 3 + 5 - 1,13,14,12,13,2542.1520737999817,2544.1776007000008,2545.6928107999847,2550.7120373999933,2554.2604591000127,2554.260464499996,2555.7774137000088,2556.795116299996,e,13.0,3.5484217000193894,1,+1,446,19.741418807296913,-0.5086658531134125,0.019441097416446063,2340295.0,6.617585709678668,1.0360650555406243,0.1544313701636253,2343829.0,,,,,2513.2756587763774,2509.7416587763773,
129,27,20,f,1,3,121.0,7,3,high,3 + 1 + 8 - 5 + 6,13,13,14,15,2558.3118696999736,2560.334670000011,2561.849564199976,2566.867436499975,2567.844615900016,2567.844620899996,2569.36142869998,2570.378758799983,q,13.0,0.977179400040768,1,+10,456,-14.081792009460921,0.45305746315336126,0.15005397870732917,2387663.0,3.4761715251383287,0.11222954187228673,-0.10378477290236399,2391196.0,,,,,2560.642658776377,2557.1096587763773,
130,27,20,f,1,3,122.0,8,3,low,7 + 1 + 9 + 5 - 6,16,14,16,15,2571.8954468999877,2573.919060299988,2575.434921399981,2580.453230999992,2585.469374599983,2585.4693770000013,2586.9857954999898,2588.004088899994,,,,0,Too Slow!,456,18.28262453361198,0.23091271622850762,0.26794540731794037,2370036.0,1.378061556330799,-0.7915620242520864,-0.18301681658406466,2373570.0,,,,,2543.0166587763774,2539.4826587763773,
131,27,20,f,1,3,123.0,9,3,high,2 + 9 - 3 + 4 + 1,13,13,14,11,2589.520821199985,2591.545808999974,2593.061054299993,2598.0791638999945,2600.2445524000213,2600.2445573000005,2601.761980100011,2602.779226100014,q,13.0,2.165388500026893,1,+10,466,-24.44378870666505,0.5752217190931486,0.07303714137130646,2994595.0,27.338462601204096,0.6092660709591615,-0.044462340871851413,2998129.0,,,,,3167.575658776377,3164.041658776377,
132,27,20,f,1,3,124.0,10,2,low,4 + 9 - 7 + 1 - 1,6,6,5,8,2604.2961841999786,2606.3220046000206,2607.8372826999985,2612.857393299986,2616.236583699996,2616.236588699976,2617.753099000023,2618.77016439999,q,6.0,3.379190400009975,1,+1,467,-22.95654012516577,-0.19611938037182153,-0.06264380364621625,2402439.0,-27.72137876064471,0.5857193119745636,0.027847244126777415,2405974.0,,,,,2575.4206587763774,2571.885658776377,
133,27,20,f,1,3,125.0,11,2,low,9 + 6 + 1 + 7 + 1,24,23,25,24,2620.2871275999933,2622.3112248000107,2623.826885699993,2628.84464939998,2633.8625911999843,2633.862593800004,2635.379353599972,2636.3979008999886,,,,0,Too Slow!,467,-7.668455800383853,0.6298986656777608,-2.4022548987731493,2418428.0,7.971709510200627,-0.19673543624147705,-0.13347311571453035,2421962.0,,,,,2591.4086587763773,2587.874658776377,
134,27,20,f,1,3,126.0,12,3,low,3 + 8 + 1 + 5 - 9,8,7,8,9,2637.914637400012,2639.9404077000218,2641.455613899976,2646.4751604999765,2648.9566470999853,2648.9566523999674,2650.473299800011,2651.4901961999717,w,8.0,2.481486600008793,1,+1,468,-21.504563947563128,0.7825226678687631,-0.13211194871336485,2436057.0,-47.687418747384626,0.9662931319827113,-0.20347000439541807,2439591.0,,,,,2609.037658776377,2605.503658776377,
135,27,20,f,1,3,127.0,13,4,high,7 + 8 - 4 + 6 - 5,12,12,13,11,2653.007249700022,2655.0321703000227,2656.5469462000183,2661.565527300001,2663.364678699989,2663.364683999971,2664.881356799975,2665.8988140000147,q,12.0,1.7991513999877498,1,+10,478,-5.691982714831511,0.4011700132263929,0.2589027597746476,2451149.0,-2.6893046814166297,-0.046554109550069,-0.1900615936788066,2454682.0,,,,,2624.128658776377,2620.595658776377,
136,27,20,f,1,3,128.0,14,1,low,2 + 1 + 9 + 1 - 1,12,11,13,12,2667.415557399974,2669.4429275,2670.9585415999754,2675.976255099988,2676.740576800017,2676.740581799997,2678.2571062999777,2679.274217600003,e,12.0,0.7643217000295408,1,+1,479,10.568724592737622,0.38087535302492004,0.6012940381727234,2465559.0,15.208797138730482,0.3469989927135533,0.009434205093050263,2469093.0,,,,,2638.539658776377,2635.0056587763775,
137,27,20,f,1,3,129.0,15,4,low,2 + 5 - 3 + 9 + 8,21,19,21,22,2680.7909539999678,2682.818222699978,2684.334183899977,2689.352878900012,2691.964761100011,2691.964766199992,2693.481325600005,2694.4985716000083,e,22.0,2.611882199998945,0,+0,479,22.347519906655805,0.515793719402712,0.5425876324773222,2478935.0,-1.6775977143200151,-1.050688680139599,-0.10382320001083745,2482469.0,,,,,2651.9156587763773,2648.381658776377,
138,27,20,f,1,3,130.0,16,4,low,7 + 8 - 4 + 6 + 5,22,21,23,22,2696.0153611999704,2698.039873700007,2699.555096199969,2704.573872899986,2705.900582299975,2705.9005872000125,2707.4172062000143,2708.434017499967,e,22.0,1.3267093999893405,1,+1,480,1.0856772102238885,0.13159230938687472,0.10038893918122582,2494156.0,22.749461348457785,0.8306377484761294,0.6967467645213197,2497690.0,,,,,2667.1366587763773,2663.602658776377,
139,27,20,f,1,3,131.0,17,1,high,7 + 1 + 5 + 1 - 1,13,13,12,14,2709.950235199998,2711.9764273000183,2713.4915061999927,2718.5098660999797,2719.036821899994,2719.0368269999744,2720.5533687999705,2721.5708622999955,q,13.0,0.526955800014548,1,+10,490,-2.7928913144865604,0.029516447148012936,-0.06720997600404433,2508092.0,6.2628637942718655,0.2663541940561984,-0.2692527860505036,2511626.0,,,,,2681.0726587763775,2677.5386587763774,
140,27,20,f,1,3,132.0,18,4,high,4 + 7 + 8 - 3 + 9,25,25,24,26,2723.088107099989,2725.1129604000016,2726.627921300009,2731.646368900023,2735.540644299996,2735.54064989998,2737.056801799976,2738.074032499979,e,26.0,3.8942753999726847,0,+0,490,-2.9813752016703763,-0.492751882447493,-0.25807688455942257,2521228.0,-3.5577868817177514,0.16363879422622762,-0.248864823329916,2524762.0,,,,,2694.2086587763774,2690.6746587763773,
141,27,20,f,1,3,133.0,19,2,low,8 + 1 + 1 + 9 - 4,15,15,14,16,2739.5907435999834,2741.617177699984,2743.1323950000224,2748.1515960000106,2748.7568714999943,2748.756876899977,2750.2735003000125,2751.290602599969,q,15.0,0.6052754999836907,1,+1,491,-14.35914457289946,0.737487482913104,-0.052921000735754564,2537733.0,-4.001663716616697,0.2248088615445072,0.03737730079656121,2541268.0,,,,,2710.7146587763773,2707.1796587763774,
142,27,20,f,1,3,134.0,20,4,low,3 + 9 - 5 + 8 - 7,8,7,8,9,2752.808351500018,2754.835948999971,2756.351325800002,2761.369860899984,2762.4207466000225,2762.420751800004,2763.93761600001,2764.955056799983,w,8.0,1.0508857000386342,1,+1,492,42.06603216812933,-0.5922955417530691,-0.16662776711175464,2550952.0,-4.9214286854817635,-0.18492174108470838,-0.10367810041590886,2554486.0,,,,,2723.932658776377,2720.3986587763775,
143,27,20,f,1,3,135.0,21,3,low,2 + 9 + 1 - 5 + 7,14,15,12,14,2766.472520200012,2768.499424599984,2770.0147502999757,2775.034632099967,2775.9966293000034,2775.9966340999817,2777.513199499983,2778.5308054999914,e,14.0,0.9619972000364214,1,+1,493,49.240220568886,-0.292625067732736,0.18547920389642014,2564615.0,6.246261492657908,-0.14693035680242694,0.21224988285391388,2568151.0,,,,,2737.597658776377,2734.061658776377,
144,27,20,f,1,3,136.0,22,2,high,2 + 1 + 9 - 4 + 1,9,8,9,11,2780.0472084999783,2782.0733821999747,2783.5887362000067,2788.606843299989,2789.988764400012,2789.988769399992,2791.5051829000004,2792.523340500018,w,9.0,1.381921100022737,1,+10,503,-9.574784155540474,0.3388719762741754,-3.061449947581192,2578189.0,-33.84522210053471,0.15799207582565344,-0.1336439723888403,2581723.0,,,,,2751.169658776377,2747.635658776377,
145,27,20,f,1,3,137.0,23,1,high,6 + 1 + 8 + 1 + 1,17,17,15,16,2794.0403724000207,2796.066103300021,2797.581272799988,2802.5991936000064,2804.1087070999783,2804.108712000016,2805.624962200003,2806.642392800015,q,17.0,1.5095134999719448,1,+10,513,13.652086180928773,-0.011583371918415963,0.12574491234542462,2592182.0,-29.70398691731095,-0.41532103345890903,0.019957639638593427,2595715.0,,,,,2765.1616587763774,2761.628658776377,
146,27,20,f,1,3,138.0,24,1,high,4 + 7 + 1 - 1 - 1,10,9,11,10,2808.1593865000177,2810.1830534000183,2811.698271200002,2816.7165840999805,2819.9886669999687,2819.988671800005,2821.505394399981,2822.5227314999797,e,10.0,3.2720828999881637,1,+10,523,-21.339827638084437,0.2628362459561826,0.03748119607873335,2606299.0,-21.868820255349128,-0.5412910895585759,0.1433860848677706,2609832.0,,,,,2779.278658776377,2775.7456587763772,
147,27,20,f,1,3,139.0,25,1,low,3 + 1 + 8 + 1 + 1,14,16,13,14,2824.039326399972,2826.0650283999857,2827.580167000008,2832.599997800018,2833.340662500006,2833.340667499986,2834.857112800004,2835.874046300014,e,14.0,0.740664699987974,1,+1,524,-9.59244728874791,-0.6711322044164705,-5.290823532144735,2622181.0,3.9655835806217006,-0.7386674197436669,0.18474044831121272,2625715.0,,,,,2795.1616587763774,2791.6276587763773,
148,27,20,f,1,3,140.0,26,1,low,9 + 7 + 1 + 1 + 1,19,20,18,19,2837.3911498999805,2839.415161599987,2840.930415700015,2845.948880299984,2846.492788399977,2846.492793700017,2848.009019199992,2849.0257888999768,e,19.0,0.543908099993132,1,+1,525,24.973212916882414,0.19332372113585805,-0.12709078757380077,2635531.0,3.4127095574659387,-0.5231999902728974,-0.2613479024614458,2639064.0,,,,,2808.510658776377,2804.977658776377,
149,27,20,f,1,3,141.0,27,4,low,8 + 3 - 4 + 5 + 9,21,22,23,21,2850.5426049000234,2852.568408799998,2854.083802299981,2859.101801700017,2861.212767799967,2861.2127730000066,2862.729478899972,2863.746761200018,q,22.0,2.1109660999500197,0,+0,525,-15.817646601758126,0.3141689704840305,0.060783210452239,2648684.0,3.3484310755320266,0.5108661197738087,0.12900722084569738,2652217.0,,,,,2821.6636587763774,2818.1306587763775,
150,27,20,f,1,3,142.0,28,2,low,7 + 1 + 9 - 1 - 8,8,6,8,7,2865.2634791000164,2867.2915256000124,2868.8064477000157,2873.8254687999724,2877.380793599994,2877.380798599974,2878.8971047999803,2879.913992899994,q,6.0,3.5553248000214808,0,+0,525,12.619609413833071,1.0399519391013214,-0.09819539695791013,2663407.0,11.404577892811755,0.19229690293242285,-0.04654821404047116,2666940.0,,,,,2836.3866587763773,2832.8536587763774,
151,27,20,f,1,3,143.0,29,2,low,7 + 8 + 1 + 9 + 1,26,24,25,26,2881.430194100016,2883.453390999988,2884.968320899992,2889.986565199972,2893.964787099976,2893.964792300016,2895.481520899979,2896.4987714000163,w,25.0,3.978221900004428,0,+0,525,6.165643185448969,0.386565055418699,0.005742973038036947,2679569.0,-59.92987182572847,0.7228643685637488,0.07748198821334862,2683102.0,,,,,2852.548658776377,2849.015658776377,
152,27,20,f,1,3,144.0,30,1,high,4 + 1 + 1 + 7 - 1,12,13,14,12,2898.01542890002,2900.041535599972,2901.556819899997,2906.575222100015,2907.2047865000204,2907.2047913999995,2908.721472100005,2909.7390700000105,e,12.0,0.62956440000562,1,+10,535,65.154432204808,-0.21817243411739184,-0.13747938272315086,2696157.0,12.5196547853643,-0.3459191095125016,-0.10443427903981028,2699690.0,,,,,2869.1366587763773,2865.6036587763774,
153,27,20,f,1,3,145.0,31,1,high,7 + 1 + 4 + 1 - 1,12,14,13,12,2911.255504600005,2913.2788249999867,2914.793968299986,2919.8120616999804,2920.300831899978,2920.3008368000155,2921.8173330000136,2922.834678300016,e,12.0,0.4887701999978162,1,+10,545,5.696572081846754,-0.41316514406025195,1.9357530051038507,2709394.0,4.343937616322959,0.7048861238045507,0.010179266821274346,2712927.0,,,,,2882.3736587763774,2878.840658776377,
154,27,20,f,1,3,146.0,32,1,high,6 + 1 + 8 + 1 - 1,15,13,14,15,2924.351349700009,2926.373410100001,2927.888543599984,2932.9066998999915,2933.540791300009,2933.540796099988,2935.0571800000034,2936.0745032000123,e,15.0,0.6340914000174962,1,+10,555,26.635932973435573,0.5054464949327411,0.13829724918486352,2722489.0,25.866540536995934,-0.5241671875162925,0.25219205430584557,2726022.0,,,,,2895.468658776377,2891.9356587763773,
155,27,20,f,1,3,147.0,33,2,high,4 + 8 + 1 + 1 - 5,9,9,8,11,2937.5911326999776,2939.618388700008,2941.1334911999875,2946.152127899986,2946.7488020000164,2946.7488064999925,2948.2647788000177,2949.2816337000118,q,9.0,0.5966741000302136,1,+10,565,-30.770034698902222,0.31953252836304724,0.39346116634706796,2735734.0,3.362633503993747,0.11304159658533486,0.3161567429078618,2739267.0,,,,,2908.713658776377,2905.180658776377,
156,27,20,f,1,3,148.0,34,1,low,5 + 1 + 1 + 9 + 1,17,16,17,19,2950.7986558999983,2952.825755700004,2954.3411568999877,2959.359246100008,2959.908897800022,2959.9089029000024,2961.4254473000183,2962.44236809999,w,17.0,0.5496517000137828,1,+1,566,-37.71622837099507,0.8269800641480689,-0.06894498826147899,2748941.0,5.48004579806496,-1.3440845836097983,-0.129358495847832,2752474.0,,,,,2921.9206587763774,2918.387658776377,
157,27,20,f,1,3,149.0,35,1,high,8 - 1 + 1 + 6 + 1,15,14,16,15,2963.9590174999903,2965.985050200019,2967.500441799988,2972.519674499985,2973.1088989999844,2973.108904100023,2974.6256550999824,2975.643172400014,e,15.0,0.5892244999995455,1,+10,576,-23.41047700742576,0.1979337783902544,-0.19945377968111133,2762100.0,-43.130795195425904,-0.1501357464914399,0.1852546481155115,2765635.0,,,,,2935.0816587763775,2931.546658776377,
158,27,20,f,1,3,150.0,36,2,high,5 + 1 + 7 - 6 + 1,8,7,6,8,2977.1599149999674,2979.189285599976,2980.704291299975,2985.72271240002,2988.540814300009,2988.54081939999,2990.058027399995,2991.075264599989,e,8.0,2.818101899989415,1,+10,586,3.972855654545911,-0.18230792443448252,-0.010495293824599461,2775303.0,-4.384249187627052,-0.2221724123743236,0.05551463468042073,2778838.0,,,,,2948.2846587763775,2944.749658776377,
159,27,20,f,1,3,151.0,37,2,high,5 + 9 - 8 + 1 + 1,8,7,8,9,2992.592152099998,2994.614920200024,2996.130129500001,3001.147949300008,3001.828823800024,3001.828828800004,3003.3450732000056,3004.362457200012,w,8.0,0.6808745000162162,1,+10,596,63.14209419525152,-0.09538645709311577,-1.2507309225624903,2790730.0,-12.87757647720083,-0.2442407396066102,0.002484781075736464,2794263.0,,,,,2963.709658776377,2960.1766587763773,
160,27,20,f,1,4,152.0,0,2,high,5 - 1 + 1 + 8 + 9,22,21,23,22,3053.5214150999677,3055.54824199999,3057.0633947000024,3062.082618999993,3062.8450154999737,3062.845020500012,3064.361817699973,3065.379119199992,e,22.0,0.7623964999802411,1,+10,606,-22.77837453770339,-18.587286150922196,11.090632201759789,2851663.0,0.5344041164637101,1.310321728114618,-6.177137119933597,2855197.0,,,,,3024.6436587763774,3021.1096587763773,
161,27,20,f,1,4,153.0,1,1,low,2 + 9 + 1 + 1 + 1,14,14,13,12,3066.895924200013,3068.9228047999786,3070.437986999983,3075.4560464000097,3075.940886099997,3075.9408910999773,3077.457455799973,3078.4744469000143,q,14.0,0.4848396999877877,1,+1,607,-30.427161844253806,5.008281921455419,-6.377715546858052,2865037.0,15.671573586613448,-0.23844753411133368,0.4704960229571915,2868570.0,,,,,3038.0166587763774,3034.483658776377,
162,27,20,f,1,4,154.0,2,1,low,8 + 1 + 5 + 1 + 1,16,17,15,16,3079.991296000022,3082.0163461000197,3083.531335800013,3088.5491230000043,3089.0929054999724,3089.0929106000112,3090.609331600019,3091.626188499969,e,16.0,0.5437824999680743,1,+1,608,-0.8076622608253055,-0.03706147778204416,0.10946000432032488,2878131.0,31.59962606119144,0.09702572976305124,-0.16948147489984944,2881664.0,,,,,3051.1106587763775,3047.577658776377,
163,27,20,f,1,4,155.0,3,2,low,2 + 9 - 4 + 1 + 1,9,9,11,8,3093.1429396999883,3095.1703385,3096.685646799975,3101.7037311000167,3104.101007500023,3104.101012400002,3105.6173219999764,3106.634137200017,q,9.0,2.397276400006376,1,+1,609,13.017465298417072,0.8991977580734609,-0.38129495343049813,2891285.0,0.8332680039079783,0.6387880169064255,-0.4027564409574933,2894818.0,,,,,3064.2646587763775,3060.731658776377,
164,27,20,f,1,4,156.0,4,4,low,6 + 9 + 7 - 3 - 5,14,14,13,12,3108.1505723000155,3110.17750489997,3111.6924883999745,3116.711170999973,3119.221027599997,3119.2210327999783,3120.7383159999736,3121.7553655999945,q,14.0,2.5098566000233404,1,+1,610,16.69323663397588,0.8754779054774837,0.15318503888765544,2906292.0,1.8266053034490328,1.1756579298917504,-0.13705529835105912,2909826.0,,,,,3079.2726587763773,3075.738658776377,
165,27,20,f,1,4,157.0,5,1,low,9 + 8 + 1 + 1 - 1,18,18,19,17,3123.2719937000074,3125.297154699976,3126.812139299989,3131.8313191999914,3134.821035499976,3134.8210406000144,3136.33788050001,3137.35483799997,e,17.0,2.9897162999841385,0,+0,610,16.592800609972578,0.4922067451372878,-0.35291187266493873,2921411.0,-11.184373837554624,0.22452737441922244,0.2596742538123782,2924945.0,,,,,3094.3916587763774,3090.8576587763773,
166,27,20,f,1,4,158.0,6,1,low,8 + 1 + 1 - 1 - 4,5,5,6,3,3138.871351799986,3140.8957890999736,3142.410950499994,3147.4290093000163,3148.165199399984,3148.165204400022,3149.681469400006,3150.698340200004,q,5.0,0.7361900999676436,1,+1,611,-9.233003079926261,-0.2996655568680331,0.26162913136607235,2937010.0,-7.098196105644705,0.0036644840683415225,-0.05113747979513228,2940543.0,,,,,3109.9896587763774,3106.4566587763775,
167,27,20,f,1,4,159.0,7,3,low,4 + 7 - 3 + 5 - 1,12,13,12,11,3152.2154231999884,3154.242387200007,3155.7571089999983,3160.7756692999974,3161.437076299975,3161.437081300013,3162.953390699986,3163.9701640999992,w,12.0,0.6614069999777712,1,+1,612,-24.524427514061443,0.8482052083029101,0.08986280735340513,2950356.0,-48.70439012733565,0.7874069689671543,0.43895771619550317,2953890.0,,,,,3123.336658776377,3119.8026587763775,
168,27,20,f,1,4,160.0,8,2,low,3 + 8 - 5 + 1 + 1,8,8,6,9,3165.486617300019,3167.5133385999943,3169.028603399988,3174.0467021000222,3177.077095900022,3177.077100800001,3178.5936450000154,3179.610745100013,q,8.0,3.030393799999729,1,+1,613,-26.18774323576869,0.6884562191924624,1.431375995788478,2963628.0,18.538120831172833,0.3341655669738519,-0.2233532468490238,2967161.0,,,,,3136.6076587763773,3133.0746587763774,
169,27,20,f,1,4,161.0,9,3,low,6 - 1 + 7 - 8 + 9,13,11,13,12,3181.1272252000053,3183.154366599978,3184.670035100018,3189.688615499996,3192.404971299984,3192.4049766000244,3193.9216770000057,3194.939113900007,e,12.0,2.716355799988378,0,+0,613,-11.791205290268048,2.893307645919118,4.719132565076109,2979269.0,-7.6643016211335135,0.49369380397853035,-0.12702799431706469,2982803.0,,,,,3152.249658776377,3148.715658776377,
170,27,20,f,1,4,162.0,10,3,high,5 + 7 + 1 - 4 + 6,15,17,13,15,3196.455841000017,3198.4812742000213,3199.997012500011,3205.015231099969,3206.8050971999764,3206.8051026000176,3208.322052199976,3209.339217300003,w,13.0,1.7898661000072025,0,+0,613,30.028939343305836,0.4992644670456525,0.35971917911413875,3008994.0,-5.9877496855674615,-0.07283691078542409,-1.2799879855254739,3012528.0,,,,,3181.974658776377,3178.4406587763774,
171,27,20,f,1,4,163.0,11,3,high,8 + 3 + 1 - 7 + 9,14,12,15,14,3210.8557269999874,3212.879533900006,3214.3947437999886,3219.414287599968,3224.4315498999786,3224.4315523999976,3225.94806059997,3226.9662861999823,,,,0,Too Slow!,613,4.020998121390674,0.48042261286703525,0.10943658922962962,3056033.0,0.41822676785301205,0.83620806925176,0.1437624654852958,3059566.0,,,,,3229.012658776377,3225.479658776377,
172,27,20,f,1,4,164.0,12,2,high,2 + 1 + 9 - 4 + 1,9,11,9,8,3228.482693099999,3230.510148799978,3232.0254137999727,3237.043764000002,3239.4210953,3239.421100499981,3240.937610599969,3241.9552126000053,w,9.0,2.377331299998332,1,+10,623,-49.316751490319035,0.4618280343064405,0.16136331856392916,3026624.0,-1.0747922226970186,0.2194260962859489,0.15122005869830968,3030157.0,,,,,3199.6036587763774,3196.070658776377,
173,27,20,f,1,4,165.0,13,3,low,3 + 1 + 8 - 5 + 9,16,17,15,16,3243.4719598999945,3245.496466899989,3247.011583600018,3252.0309544000197,3253.845047099981,3253.845052600024,3255.3615893999813,3256.3786069999915,e,16.0,1.8140926999622025,1,+1,624,-29.66475751724646,0.6090441730281095,-0.07828568078544373,3041610.0,-33.79079009752177,0.23390189313259668,0.3290609193702809,3045145.0,,,,,3214.5916587763772,3211.0566587763774,
174,27,20,f,1,4,166.0,14,3,high,8 + 5 + 1 - 7 + 9,16,16,14,17,3257.8956175000058,3259.9191363999853,3261.4343449000157,3266.4527094999794,3268.205152200011,3268.20515709999,3269.721586600004,3270.73935410002,q,16.0,1.7524427000316791,1,+10,634,-21.656147071611436,0.4343190035082416,0.6157532877666614,3100619.0,-42.22415065517067,0.7992062227088836,-0.02326944897457328,3104153.0,,,,,3273.599658776377,3270.0656587763774,
175,27,20,f,1,4,167.0,15,4,high,6 + 5 - 7 + 8 - 9,3,3,4,5,3272.25603509997,3274.281981699984,3275.7979203999857,3280.81612470001,3283.149188500014,3283.149193499994,3284.665656399972,3285.683250800008,q,3.0,2.333063800004311,1,+10,644,-0.25698079638996596,0.5810088152691151,-2.87739781629044,3070396.0,-0.08753221303553715,0.9246445100035823,-0.11928770318465132,3073930.0,,,,,3243.376658776377,3239.8426587763774,
176,27,20,f,1,4,168.0,16,3,low,9 - 5 - 1 - 6 + 8,5,4,5,7,3287.200030100008,3289.2260781999794,3290.7412726000184,3295.7588653999846,3298.4291202999884,3298.4291252999683,3299.9455896000145,3300.962448299979,w,5.0,2.6702549000037834,1,+1,645,58.90417433932838,0.7459171369582291,-2.266999957317941,3085340.0,2.8065480832250813,0.6608409392915173,0.11916309036887496,3088873.0,,,,,3258.3196587763773,3254.7866587763774,
177,27,20,f,1,4,169.0,17,3,high,5 + 1 + 7 - 8 + 6,11,13,9,11,3302.479070900008,3304.505798999977,3306.0211264999816,3311.039661500021,3313.629231399973,3313.629236500012,3315.14576829999,3316.16306609998,e,11.0,2.589569899952039,1,+10,655,-11.022235369040057,0.9393936446045417,0.2418039071576814,3162000.0,24.403737252453944,0.7471460796695277,-0.36996415954247475,3165534.0,,,,,3334.9806587763774,3331.4466587763773,
178,27,20,f,1,4,170.0,18,2,high,4 + 1 + 9 + 1 - 6,9,8,9,7,3317.679911300016,3319.7066884000087,3321.2219306000043,3326.2399658000213,3326.733115800016,3326.733120399993,3328.2496325999964,3329.2669785000035,w,9.0,0.4931499999947846,1,+10,665,15.787194742285482,0.7175741535564928,-5.150147173223327,3115820.0,19.19832103001001,-0.09852527579988202,-1.4739455737138232,3119353.0,,,,,3288.7996587763773,3285.2666587763774,
179,27,20,f,1,4,171.0,19,2,low,8 + 1 + 7 + 1 - 4,13,12,14,13,3330.7834452000097,3332.817711199983,3334.332920200017,3339.352939000004,3343.48515209998,3343.4851569000166,3345.001889700012,3346.01924569998,w,14.0,4.13221309997607,0,+0,665,15.129903151652899,0.8263497937813615,0.25849361352333133,3128931.0,33.71009824223087,0.4271992848399875,-0.02835037139315988,3132466.0,,,,,3301.912658776377,3298.3776587763773,
180,27,20,f,1,4,172.0,20,3,low,8 - 1 + 6 - 7 + 5,11,11,12,13,3347.53576519998,3349.560946299985,3351.077400600014,3356.09585589997,3359.813200399978,3359.813205400016,3361.3295871000155,3362.3467490000185,w,12.0,3.717344500008039,0,+0,665,16.707811291129474,0.6241504402619187,-0.16140538970642027,3145674.0,-7.487535314177466,0.07918427505592796,0.3146500725556174,3149209.0,,,,,3318.655658776377,3315.1206587763772,
181,27,20,f,1,4,173.0,21,3,high,5 + 6 - 4 - 1 + 8,14,16,15,14,3363.864282499999,3365.88757859997,3367.40330299997,3372.421330299985,3374.989154300012,3374.989159299992,3376.505562299979,3377.522973400017,e,14.0,2.5678240000270307,1,+10,675,24.46545587177951,0.7798492284458982,0.1596714263668937,3191385.0,0.2745613075506066,0.11049505355009392,0.28360930025389086,3194918.0,,,,,3364.3646587763774,3360.8316587763775,
182,27,20,f,1,4,174.0,22,4,high,3 + 8 - 7 + 9 - 5,8,8,9,7,3379.039762599976,3381.063111399999,3382.5781395999948,3387.5971373000066,3389.197133800015,3389.197139099997,3390.7136621000245,3391.7318651999813,e,7.0,1.599996500008274,0,+0,675,-2.5667827937915977,0.3649362372786662,-0.0636252819639278,3177176.0,-11.121933864979255,0.08291487550399257,0.03034745868864608,3180710.0,,,,,3350.1566587763773,3346.622658776377,
183,27,20,f,1,4,175.0,23,3,high,7 - 5 + 9 + 1 - 4,8,9,7,8,3393.248847200012,3395.2717666000244,3396.7870546000195,3401.8055002000183,3406.453294900013,3406.4533001999957,3407.969756899984,3408.987225699995,w,7.0,4.647794699994847,0,+0,675,-1.7249333601297678,0.5592507201059571,-0.11031468065926608,3267323.0,-4.457300449169129,0.030901522885038446,-0.1586669660924933,3270857.0,,,,,3440.3036587763772,3436.769658776377,
184,27,20,f,1,4,176.0,24,2,low,7 + 5 + 1 + 9 + 1,23,21,22,23,3410.5048594999826,3412.530689999985,3414.0458154000225,3419.0635163999978,3423.453349600022,3423.453354800004,3424.9700446000206,3425.987311600009,w,22.0,4.389833200024441,0,+0,675,1.8986586672433852,0.0673734901337486,0.5817377043173013,3208644.0,15.005029194698796,0.16209467083777085,-0.45133937512510336,3212177.0,,,,,3381.6236587763774,3378.090658776377,
185,27,20,f,1,4,177.0,25,4,high,7 + 6 - 9 + 8 - 3,9,9,8,7,3427.504005499999,3429.5288004999747,3431.044043399976,3436.062632000016,3438.8372196999844,3438.837225000025,3440.3542294999934,3441.3715543000144,w,8.0,2.774587699968833,0,+0,675,-17.42790652109531,0.7263230783320966,-0.1344873834627216,3225642.0,-5.507077466752655,0.4595193660365813,0.6361620641500618,3229175.0,,,,,3398.6216587763774,3395.088658776377,
186,27,20,f,1,4,178.0,26,1,low,5 + 1 + 1 + 6 + 1,14,16,14,13,3442.888129899977,3444.915596099978,3446.430624099972,3451.447897800012,3451.9811801000037,3451.981184799981,3453.497685500013,3454.5146168000065,w,14.0,0.5332822999916971,1,+1,676,2.3137428233079795,0.2797672464779337,0.25641333927609233,3241028.0,9.008089881460354,-2.6387075598913077,-11.819423703105123,3244561.0,,,,,3414.0076587763774,3410.474658776377,
187,27,20,f,1,4,179.0,27,2,low,6 + 1 + 1 + 8 - 9,7,5,9,7,3456.0316541999928,3458.057623200002,3459.5726300000097,3464.591261399968,3465.133372800017,3465.1333776999963,3466.6500262999907,3467.666922900011,e,7.0,0.5421114000491798,1,+1,677,-17.322379573303245,0.21795203355655524,0.1733482297936244,3254170.0,0.5630389667877467,1.0507624512344256,-0.04219412846229842,3257703.0,,,,,3427.1496587763772,3423.6166587763773,
188,27,20,f,1,4,180.0,28,3,high,7 + 5 + 9 + 1 - 6,16,14,15,16,3469.184287999989,3471.2106323000044,3472.725950099993,3477.7439744999865,3482.253301799996,3482.253307099978,3483.7698769000126,3484.7868228000007,q,14.0,4.509327300009318,0,+0,677,,,,,,,,,,,,,,,
189,27,20,f,1,4,181.0,29,4,low,3 + 8 - 4 + 9 + 7,23,24,22,23,3486.303812999977,3488.328140800004,3489.843350399984,3494.8614185000188,3496.397348699975,3496.397354300017,3497.913860699977,3498.9309809000115,w,22.0,1.5359301999560555,0,+0,677,-16.587568843423014,0.6799536054073338,0.5687968375684447,3284441.0,49.02878722789484,0.10251059287177666,2.4676527451227237,3287974.0,,,,,3457.4206587763774,3453.887658776377,
190,27,20,f,1,4,182.0,30,3,low,7 - 6 + 8 + 1 + 7,17,16,15,17,3500.4476304000127,3502.4739005999872,3503.989123700012,3509.007424600015,3509.557349900017,3509.5573548999964,3511.074359100021,3512.09129349998,e,17.0,0.5499253000016324,1,+1,678,-20.986739406895733,1.1883726924685418,0.023002757752800473,3298586.0,5.054175016231343,0.7166147442018249,0.09061268421493263,3302120.0,,,,,3471.566658776377,3468.032658776377,
191,27,20,f,1,4,183.0,31,2,high,7 + 6 + 1 + 8 + 1,23,22,21,23,3513.6079724999727,3515.6323812999763,3517.147531799972,3522.1672742000083,3525.429303899989,3525.4293092999724,3526.9456786999945,3527.9628753999714,e,23.0,3.2620296999812126,1,+10,688,-5.154966943638458,0.2530034105088612,0.40150548486407267,3311745.0,-3.2005226840736807,0.3415415380668123,-0.4028352581716308,3315280.0,,,,,3484.7266587763775,3481.191658776377,
192,27,20,f,1,4,184.0,32,3,low,6 + 7 + 8 + 1 - 9,13,13,14,15,3529.4798615999757,3531.5044914999744,3533.020500899991,3538.0386752000195,3541.1013642000034,3541.101369299984,3542.61881309998,3543.635913199978,w,14.0,3.062688999983948,0,+0,688,15.898188407838383,0.48346898730877097,-0.005164957990043906,3327617.0,9.718192284796421,-0.36424068324490566,-0.22305927220188426,3331151.0,,,,,3500.597658776377,3497.0636587763775,
193,27,20,f,1,4,185.0,33,4,high,6 + 7 + 9 - 3 + 5,24,24,23,22,3545.152787600004,3547.180077800004,3548.6950410999707,3553.7130801000167,3558.269370199996,3558.269375199976,3559.786952399998,3560.8037179000094,w,23.0,4.556290099979378,0,+0,688,-34.330517000813714,0.5784686520744975,0.33229592978653644,3343291.0,-9.354751226051825,0.8302678407106017,-0.6010525421986448,3346826.0,,,,,3516.2726587763773,3512.7376587763774,
194,27,20,f,1,4,186.0,34,2,low,2 + 9 + 1 + 1 - 5,8,7,6,8,3562.3205278000096,3564.346623999998,3565.8619227000163,3570.881227099977,3571.5092715999926,3571.509276499972,3573.025762500009,3574.04284509999,e,8.0,0.628044500015676,1,+1,689,30.34086667997554,0.28226460681414967,-0.014029528173251204,3360459.0,13.053462313820084,0.05205598228059216,0.020366198930887425,3363993.0,,,,,3533.439658776377,3529.905658776377,
195,27,20,f,1,4,187.0,35,1,high,3 + 1 + 1 + 9 - 1,13,13,14,12,3575.55956959998,3577.5872142000007,3579.1021529000136,3584.1201931000105,3584.733364499989,3584.733369100024,3586.2499379999936,3587.267369500012,q,13.0,0.6131713999784552,1,+10,699,7.963178753206851,-0.18819800135902298,0.11489767359145375,3373699.0,9.591578924229854,-0.030021803612784836,0.006634724285730531,3377232.0,,,,,3546.6786587763772,3543.1456587763773,
196,27,20,f,1,4,188.0,36,2,high,4 + 8 + 1 + 1 - 6,8,8,7,9,3588.7838858999894,3590.810050899978,3592.324987299973,3597.3431458999985,3597.9013717999915,3597.90137659997,3599.417879400018,3600.43519509997,q,8.0,0.5582258999929763,1,+10,709,-24.17671462391552,0.4323738057544375,-0.22543674726740015,3386922.0,41.33327991999253,0.6523837919731017,0.23545562983521595,3390455.0,,,,,3559.901658776377,3556.3686587763773,
197,27,20,f,1,4,189.0,37,4,high,7 + 6 + 8 - 4 + 5,22,23,21,22,3601.9519315999933,3603.9761630999856,3605.491455800016,3610.511686199985,3614.405447199999,3614.4054521999783,3615.922084799968,3616.939515599981,e,22.0,3.8937610000139102,1,+10,719,-13.039617630510868,0.12872509723573344,-0.07322191832308134,3400088.0,-7.487074838367629,0.3563585221870902,-0.018879015911569486,3403623.0,,,,,3573.0696587763773,3569.5346587763775,
198,27,20,f,1,5,190.0,0,4,low,3 + 8 - 5 + 9 - 7,8,8,6,7,3668.8898912,3670.916164299997,3672.431463200017,3677.4515221000174,3678.109392100014,3678.109396899992,3679.6258349000127,3680.642902599997,q,8.0,0.6578699999954551,1,+1,720,0.5959104177948511,0.7633705912978526,0.1893532713089865,3467028.0,5.456280140129073,0.09566936360267597,-0.13165975315237421,3470563.0,,,,,3640.0096587763774,3636.474658776377,
199,27,20,f,1,5,191.0,1,1,low,2 + 9 + 1 + 1 + 1,14,14,12,13,3682.159589899995,3684.1866376000103,3685.701745899976,3690.719679399976,3692.413502599986,3692.413508299971,3693.929976899992,3694.946681700007,q,14.0,1.693823200010229,1,+1,721,14.509227471500823,0.17590833711874554,-0.3655295329881212,3480298.0,-31.54001156827146,0.203341871997738,0.16972208118717846,3483831.0,,,,,3653.2776587763774,3649.744658776377,
