,id,age,sex,cued,block,trial,trialinblock,efflev,rewlev,calc,corAns,option1,option2,option3,tstart,ITI1Time,probTime,respTime,selectTime,ITI2Time,fbTime,ITI3Time,key_press,chosenAns,RT,acc,feedback,total_points,cuescr,cuecor,cuezyg,cuetime,probscr,probcor,probzyg,probtime,fbscr,fbcor,fbzyg,fbtime,probtime_c,cuetime_c,fbtime_c
0,28,21,F,0,Practice,,0,1,0,4 + 1 + 9 + 1 + 1,16,14,16,15,36.896688500011805,,36.89669099997264,41.9876329000108,44.17314909998095,44.17315559997223,45.69002370000817,46.710854200006,w,16.0,2.185516199970152,1,Correct,0,,,,,9.115248060059848,-0.9518278254067978,-3.3910786822222216,34710.0,-1.985723271790869,0.061883400902644325,0.17881485790956986,43434.0,36.97639346448615,,45.70039346448615
1,28,21,F,0,Practice,,1,1,0,3 + 1 + 1 + 8 - 1,12,12,11,10,48.22776099998737,,48.22776400001021,53.248848899966106,57.34913379995851,57.349140300008,58.865812900010496,59.88342299999204,q,12.0,4.100284899992403,1,Correct,0,,,,,-18.276397347937,-0.6664978656360336,-0.004108488103298669,45971.0,-3.7215592536128472,0.21699051853105011,1.0789403052174387,56606.0,48.237393464486146,,58.87239346448615
2,28,21,F,0,Practice,,2,2,0,8 + 1 + 6 + 1 - 4,12,11,12,10,61.40171999996528,,61.40172600001097,66.42096409999067,68.31727229995886,68.31727860000683,69.83431479998399,70.85476019995986,e,10.0,1.896308199968189,0,Incorrect,0,,,,,1.6249764392605783,-0.05350406196631319,0.2677723549169724,59144.0,-54.118499647803816,5.226511609167877,0.33445043855681633,67578.0,61.41039346448615,,69.84439346448616
3,28,21,F,0,Practice,,3,2,0,9 + 4 - 6 + 1 - 1,7,6,7,5,72.37245649995748,,72.37245969998185,77.39162449998548,78.79722780000884,78.7972340999986,80.31380599999102,81.33071269997163,w,7.0,1.4056033000233583,1,Correct,0,,,,,5.1172421257700815,-0.5392992940853603,0.20584535943955506,70114.0,14.730477142480346,-1.0495125321711143,1.2948372728350337,78054.0,72.38039346448616,,80.32039346448616
4,28,21,F,0,Practice,,4,3,0,9 + 3 - 5 + 6 + 7,20,22,20,21,82.84739919996355,,82.84740219998639,87.86613579996629,91.25324280001225,91.25324940000428,92.76977279997664,93.78740779997317,w,20.0,3.387107000045944,1,Correct,0,,,,,-18.97413377750796,1.7482081011792996,1.379914351206411,80589.0,1.1058569874368576,1.3394826565219047,1.5216340059452462,90510.0,82.85539346448616,,92.77639346448616
5,28,21,F,0,Practice,,5,3,0,2 + 1 + 9 - 7 + 6,11,11,10,9,95.30467899999348,,95.30468199995812,100.32448139996268,101.25321449997136,101.25322049995884,102.77019089995883,103.78838340000948,q,11.0,0.9287331000086853,1,Correct,0,,,,,-3.215915933448514,0.2509018376411163,4.32030654159794,93047.0,4.359654853016032,-0.9423948574699299,0.08147895742335853,100511.0,95.31339346448615,,102.77739346448615
6,28,21,F,0,Practice,,6,4,0,4 + 8 + 5 - 3 + 7,21,21,22,23,105.30570460000308,,105.30570759996772,110.32688329997472,113.5412587999599,113.54126520000864,115.0582899999572,116.076579399989,q,21.0,3.214375499985181,1,Correct,0,,,,,3.2620170086223066,-1.673692208220416,-0.225731438381489,103049.0,2.0353094500954407,-0.8216275636497619,0.3451262024517112,112799.0,105.31539346448616,,115.06539346448616
7,28,21,F,0,Practice,,7,4,0,5 + 8 - 4 + 6 + 9,24,24,22,23,117.59379199997056,,117.59379509999415,122.61373819998698,128.597286299977,128.5972937999759,130.11430259997724,131.1319612999796,w,22.0,5.983548099990003,0,Incorrect,0,,,,,-37.90031458625468,0.08888558769019195,1.8199116119793977,115336.0,-4.248926050827769,0.618211466768054,1.6496693690935262,127854.0,117.60239346448616,,130.12039346448614
8,28,21,F,1,0,0.0,0,3,high,3 + 8 - 7 - 1 + 9,12,14,12,13,243.8429463999928,245.8851852999651,247.40064070001245,252.41969010001048,257.43768179998733,257.4376848000102,258.9547525999951,259.97728779999306,,,,0,Too Slow!,0,-14.724310437158943,4.8384985218895515,-6.909548869025217,241607.0,12.615071985926136,-1.986564664228423,-0.6484239087491588,245141.0,14.457945443761847,2.293538028666454,2.5612599511765453,256699.0,247.40739346448615,243.87339346448616,258.96539346448617
9,28,21,F,1,0,1.0,1,1,high,3 + 1 + 8 + 1 + 1,14,13,14,12,261.4941894999938,263.52729190001264,265.043325799983,270.0612908999901,270.98699110001326,270.98699649999617,272.50384429999394,273.5221856000135,w,14.0,0.9257002000231296,1,+10,10,-13.392655556803946,-0.9018309743819488,0.21007495617881666,259249.0,13.319139671445987,-0.19063763946278112,-2.7628191839826606,262783.0,,,,,265.0493934644862,261.5153934644862,
10,28,21,F,1,0,2.0,2,4,low,9 + 3 - 5 + 8 + 6,21,19,21,23,275.03935649996856,277.08402750000823,278.5992804999696,283.6185998999863,287.42689979996067,287.4269060000079,288.94404460000806,289.9614910999662,q,19.0,3.808299899974372,0,+0,10,-2.175251235745961,-0.1639947188334574,-0.8292651629475203,272806.0,40.23042912283228,0.5531347963385418,0.27354581338767847,276340.0,,,,,278.60639346448613,275.07239346448614,
11,28,21,F,1,0,3.0,3,4,low,3 + 9 - 5 + 6 + 8,21,22,23,21,291.4780956999748,293.4999500999693,295.0154441999621,300.0337131000124,302.4437944999663,302.4438000000082,303.9602081999765,304.9773517999565,e,21.0,2.410081399953924,1,+1,11,-11.198630421604218,-3.839992140201753,1.8811661557977017,289221.0,-26.8216289561092,-0.0898002775725324,0.08552611933814691,292755.0,,,,,295.02139346448615,291.48739346448616,
12,28,21,F,1,0,4.0,4,1,low,2 + 1 + 9 + 1 - 1,12,13,11,12,306.4942832000088,308.52176859998144,310.03733739996096,315.0566164999618,316.28303399996366,316.2830398000078,317.7997247999883,318.8166379999602,e,12.0,1.226417500001844,1,+1,12,-8.643196272308534,-0.9220037906272687,-0.5289313714859434,304243.0,4.073039726318919,-0.19807753288683738,0.3082845157106284,307778.0,,,,,310.0443934644862,306.50939346448615,
13,28,21,F,1,0,5.0,5,2,low,9 + 4 + 5 + 1 - 1,18,18,17,19,320.3333535999991,322.37584900000365,323.89118629996665,328.90943790000165,329.73897919995943,329.7389851000044,331.2556794999982,332.27255200000945,q,18.0,0.829541299957782,1,+1,13,3.2173009366726113,-3.28637029619804,-2.331276224498902,318097.0,-14.992425760193349,-7.123430133841051,-1.9883037587675325,321631.0,,,,,323.89739346448613,320.36339346448614,
14,28,21,F,1,0,6.0,6,4,high,4 + 7 + 8 - 3 + 9,25,24,26,25,333.7891398000065,335.8245229999884,337.3397452000063,342.3585470999824,345.39503720001085,345.395042499993,346.91171129996656,347.92928380001104,e,25.0,3.036490100028459,1,+10,23,-2.9597548499239816,2.1715255106982605,1.5860189505661442,331546.0,22.293633659066845,3.4201885586501524,6.849738122710267,335080.0,,,,,337.34639346448614,333.81239346448615,
15,28,21,F,1,0,7.0,7,1,high,7 - 1 + 9 + 1 - 1,15,13,15,14,349.44606889999704,351.4706928000087,352.986020100012,358.0045222999761,362.19505649997154,362.1950617000112,363.71166609996,364.7290735999704,w,15.0,4.190534199995454,1,+10,33,19.569992885489402,-0.27405227468592397,0.7861729064454903,347192.0,-14.976163893737713,-0.411372107689183,-5.2305889141185204,350726.0,,,,,352.99239346448616,349.45839346448616,
16,28,21,F,1,0,8.0,8,2,low,6 + 1 + 1 + 7 - 9,6,6,8,4,366.2459123999579,368.2732064999873,369.788498000009,374.8085940000019,375.6750188999577,375.6750239999965,377.1916406999808,378.2090580000077,q,6.0,0.8664248999557458,1,+1,34,-5.2213467736076815,-1.447733594346647,0.725202949663758,363994.0,6.495259807981512,0.36414694281526083,1.6547916514810836,367530.0,,,,,369.79639346448613,366.2603934644862,
17,28,21,F,1,0,9.0,9,1,low,8 + 1 + 5 + 1 + 1,16,15,16,17,379.725966900005,381.7513168999576,383.2665200000047,388.2844883999787,389.25107800000114,389.2510834999848,390.7676291000098,391.7844042999786,w,16.0,0.9665896000224166,1,+1,35,11.141284633433253,0.7849019205449963,1.5646531183009738,377472.0,-20.162653927597084,-0.49651174235920603,0.44320674136691407,381006.0,,,,,383.27239346448613,379.73839346448614,
18,28,21,F,1,0,10.0,10,1,high,6 + 1 + 8 + 1 + 1,17,15,16,17,393.3011949000065,395.3287025999744,396.84391930000857,401.862442499958,402.5790357000078,402.5790407999884,404.0954015000025,405.1125314999954,e,17.0,0.7165932000498287,1,+10,45,0.7212319846527002,-1.0361727757001278,-0.1529422014803168,391049.0,3.715512828614804,0.9942312748356086,1.355726464187319,394583.0,,,,,396.8493934644862,393.31539346448614,
19,28,21,F,1,0,11.0,11,2,low,2 + 1 + 9 - 4 + 1,9,11,9,8,406.6294325999916,408.6560210000025,410.1712724000099,415.1895110000041,415.9150275999564,415.915032799996,417.43149659998016,418.4483677999815,w,9.0,0.7255165999522433,1,+1,46,-17.394230415254533,-0.7716545455454584,-39.30990161321999,404377.0,1.305936267807411,0.48117903954209584,-1.698810885410932,407910.0,,,,,410.1763934644862,406.64339346448617,
20,28,21,F,1,0,12.0,12,4,low,7 + 8 - 4 + 6 - 5,12,11,12,13,419.9651726000011,421.9902971999836,423.5056289999629,428.5243791000103,429.898995800002,429.8990009999834,431.4154459999991,432.4327235000092,e,13.0,1.3746166999917475,0,+0,46,-31.22080501179501,-1.0190513502858396,3.41237839807021,417711.0,1.7099091576823762,-3.674256196797555,-2.331271629653419,421245.0,,,,,423.51139346448616,419.97739346448617,
21,28,21,F,1,0,13.0,13,1,low,5 + 1 + 1 + 6 + 1,14,16,13,14,433.94912389997626,435.9746954999864,437.4899137999746,442.5074820999871,443.0591116999858,443.05911729997024,444.575554799987,445.5923005999648,e,14.0,0.5516295999987051,1,+1,47,6.7405977371931165,-1.572666561627952,9.585445428705963,431696.0,1.3754262549592617,-0.47753608373227463,-0.006328147728072331,435228.0,,,,,437.49439346448617,433.9623934644862,
22,28,21,F,1,0,14.0,14,4,high,3 + 9 - 5 + 8 - 7,8,7,8,9,447.11007579998113,449.1377238999703,450.65286059997743,455.67268079996575,456.8992092999979,456.89921459998,458.4157373000053,459.4337904999848,w,8.0,1.2265285000321455,1,+10,57,-9.989364725007924,0.5796299553968809,-0.2672880079520583,444857.0,8.909296565265253,-0.3043377129434388,-0.009226864904289034,448393.0,,,,,450.65939346448613,447.1233934644862,
23,28,21,F,1,0,15.0,15,1,low,3 + 1 + 8 + 1 + 1,14,16,14,13,460.9504050000105,462.9778384999954,464.4931874999893,469.5113199999905,470.7312478999957,470.7312533999793,472.2477960999822,473.2646938000107,w,14.0,1.219927900005132,1,+1,58,12.498728270381577,-0.46281995765989725,0.15730961347371464,458699.0,-42.43620296824562,0.21057973905638816,0.05546759488663633,462232.0,,,,,464.4983934644862,460.96539346448617,
24,28,21,F,1,0,16.0,16,2,low,5 + 8 + 1 - 1 + 9,22,23,21,22,474.7815455999808,476.8082520999597,478.3232113000122,483.3415297999745,484.01906520000193,484.01907029998256,485.53543599997647,486.5525389999966,e,22.0,0.6775354000274092,1,+1,59,-31.53895960658269,2.630076282318578,4.12302917086148,472529.0,-11.608406020686441,-0.5293663627505398,1.4731318270610227,476062.0,,,,,478.32839346448617,474.79539346448615,
25,28,21,F,1,0,17.0,17,1,high,6 + 1 + 1 + 7 - 1,14,12,14,13,488.06902259995695,490.0945621999563,491.6099009999889,496.6283698999905,497.4671681000036,497.4671735999873,498.9837475999957,500.00102600001264,w,14.0,0.838798200013116,1,+10,69,-14.23780412821489,-0.722366024386119,1.6753731267028753,485814.0,12.7658990344814,0.3023718413805305,0.04435070400907293,489349.0,,,,,491.61539346448615,488.0803934644862,
26,28,21,F,1,0,18.0,18,3,low,7 - 1 + 8 - 6 + 4,12,11,12,13,501.5177427000017,503.60220789996674,505.1174911999842,510.136239000014,512.1072464999743,512.1072518999572,513.6239770000102,514.640822699992,w,12.0,1.9710074999602512,1,+1,70,3.6672006532527615,-0.35251050757333324,-2.557589882349136,499322.0,4.1102047940344875,-0.18983162432287726,0.1216365747829995,502856.0,,,,,505.12239346448615,501.58839346448616,
27,28,21,F,1,0,19.0,19,2,low,3 + 9 - 1 - 5 + 1,7,7,5,6,516.1577990999795,518.1869353000075,519.7021451999899,524.7209255999769,525.291199499974,525.2912051999592,526.8077278999845,527.8245358999702,q,7.0,0.5702738999971189,1,+1,71,-6.817522891776118,-0.7660180956480525,-0.01927403750070944,513907.0,-4.074316452156239,0.025171008528380057,0.29660146046714786,517441.0,,,,,519.7073934644861,516.1733934644861,
28,28,21,F,1,0,20.0,20,3,high,7 - 1 + 9 - 5 + 4,14,13,14,15,529.341406499967,531.3661114000133,532.8814296000055,537.9026347000035,540.5712286999915,540.5712345999782,542.0876324999845,543.1045939999749,e,15.0,2.668593999987934,0,+0,71,-13.308315968890923,-1.145217056724348,-3.5945292451816955,527086.0,-12.995390047260354,-0.08791736251550164,-0.264408442507718,530622.0,,,,,532.8883934644861,529.3523934644861,
29,28,21,F,1,0,21.0,21,4,low,7 + 6 + 8 - 4 + 5,22,21,23,22,544.6211294999812,546.647490000003,548.1627885999624,553.181186700007,553.9311088999966,553.9311143999803,555.447430900007,556.4639462999767,e,22.0,0.749922199989669,1,+1,72,-12.122178759226795,-0.04923578141255991,-0.41709550553083075,542367.0,20.79814299266762,-0.35186140816603695,1.333527803648865,545901.0,,,,,548.167393464486,544.6333934644861,
30,28,21,F,1,0,22.0,22,3,high,5 - 1 - 4 + 6 + 7,13,13,15,14,557.9809190999949,560.008020899957,561.5232346999692,566.5415116999648,567.4592407000018,567.4592462999863,568.9759365000064,569.9931170999771,q,13.0,0.9177290000370704,1,+10,82,29.958619593369015,-0.22016793291504655,0.0388932609334427,555728.0,-3.902298972282948,-0.16742159533283596,0.04498843167785793,559261.0,,,,,561.5273934644861,557.994393464486,
31,28,21,F,1,0,23.0,23,1,high,2 + 1 + 9 + 1 - 1,12,12,11,13,571.5100130999926,573.5343376999954,575.0496120000025,580.0673561999574,582.6512602999574,582.6512656999985,584.1678318000049,585.1855706999777,w,11.0,2.583904099999927,0,+0,82,36.65790470483999,0.12873544032959483,-0.14505077875868078,569254.0,-0.48162683036640175,-0.4932438118416105,0.09697386520440321,572787.0,,,,,575.0533934644861,571.5203934644861,
32,28,21,F,1,0,24.0,24,3,high,6 - 1 + 7 - 8 + 9,13,12,11,13,586.7020208999747,588.7276054999675,590.242908199958,595.2613274999894,596.9792576999753,596.979263199959,598.4957840999705,599.5130640999996,e,13.0,1.717930199985858,1,+10,92,31.870863763021493,-0.8238031588292101,0.08430241428846008,584448.0,-7.05406671281221,-0.023897161862119987,-0.5241041998951688,587981.0,,,,,590.2473934644861,586.7143934644861,
33,28,21,F,1,0,25.0,25,4,low,7 + 6 - 9 + 8 - 3,9,8,7,9,601.0299981000135,603.0570205000113,604.5724244999583,609.5912632999825,612.1712616999866,612.1712671999703,613.6878820999991,614.7054351000115,w,7.0,2.579998400004115,0,+0,92,3.73538636859596,3.1626674986043133,0.18768251504514932,598777.0,13.250783581697743,-3.593377508382744,-0.330825527601764,602311.0,,,,,604.5773934644861,601.0433934644861,
34,28,21,F,1,0,26.0,26,3,low,2 - 4 + 9 + 7 + 1,15,16,13,15,616.2218335999642,618.2473525999812,619.7626683000126,624.7827006999869,625.5632986999699,625.5633040000102,627.0800973000005,628.0967012000037,e,15.0,0.7805979999830015,1,+1,93,16.691709154021037,0.47969023420021717,0.8579449105495409,613967.0,10.684275643132894,-0.15321147041772187,0.16427691522764865,617502.0,,,,,619.768393464486,616.2333934644861,
35,28,21,F,1,0,27.0,27,1,low,9 + 8 + 1 + 1 - 1,18,18,19,17,629.6134806000046,631.6408213999821,633.1560508999974,638.1742587999906,639.0112271999824,639.0112324999645,640.5277265000041,641.5443027999718,q,18.0,0.836968399991747,1,+1,94,12.439236261578204,-0.40631671779342726,-0.07923756448359631,627360.0,0.4582246549709108,-0.03872996016856467,0.02500901573189207,630894.0,,,,,633.1603934644861,629.6263934644861,
36,28,21,F,1,0,28.0,28,4,high,3 + 8 - 5 + 9 - 7,8,8,7,6,643.0611249000067,645.0872188999783,646.6026570000104,651.6227730999817,652.3712425999693,652.3712478000089,653.8878091999795,654.9050244999817,q,8.0,0.7484694999875501,1,+10,104,-0.4146606181657102,0.11202832211398439,-0.13197394378470673,640807.0,15.693707424087936,-0.21913601789811565,-0.09972017598060079,644342.0,,,,,646.6083934644861,643.0733934644861,
37,28,21,F,1,0,29.0,29,1,high,6 + 1 + 8 + 1 - 1,15,14,13,15,656.4219513999997,658.4458767999895,659.9609629999613,664.9797430000035,665.7152349000098,665.715240199992,667.2316489999648,668.2495160999824,e,15.0,0.7354919000063092,1,+10,114,2.1161719565631376,-0.2564163606539438,-0.11541890703442359,654165.0,-20.408431792981776,-0.11428706439124481,-0.043739068808528625,657699.0,,,,,659.965393464486,656.4313934644861,
38,28,21,F,1,0,30.0,30,3,high,2 + 1 + 9 - 4 + 6,14,16,14,15,669.766722499975,671.7926807999611,673.3081534999656,678.3259513999801,680.2993089999654,680.2993145000073,681.8156078999746,682.8325228999602,w,14.0,1.97335759998532,1,+10,124,13.795861076094095,0.4611721672183364,0.14828049703906676,667512.0,51.60539014864541,-0.15502581761712397,0.09174184659987872,671045.0,,,,,673.3113934644861,669.778393464486,
39,28,21,F,1,0,31.0,31,1,low,6 + 9 + 1 + 1 - 1,16,15,14,16,684.3493052999838,686.376245099993,687.8913068000111,692.910040399991,693.4993248999817,693.4993302999646,695.0158026000136,696.0326116000069,e,16.0,0.5892844999907538,1,+1,125,13.055149384568047,-0.7619926542654443,-0.15648649034390028,682095.0,14.769100535456953,-0.9859138493505513,-1.8516539816776914,685628.0,,,,,687.8943934644861,684.3613934644861,
40,28,21,F,1,0,32.0,32,4,high,2 + 5 - 3 + 9 + 8,21,21,22,19,697.5492286999943,699.5739247999736,701.089238399989,706.1077052999754,706.8672125999583,706.8672177999979,708.3835236000014,709.400430299982,q,21.0,0.7595072999829426,1,+10,135,2.172745864867018,-0.1389600618729725,-0.016766295045464785,695293.0,-29.307664905812718,-0.07401824263660783,0.15885474403012845,698827.0,,,,,701.0933934644861,697.5593934644861,
41,28,21,F,1,0,33.0,33,3,high,3 + 1 + 6 - 8 + 9,11,12,11,13,710.9178108999622,712.941884299973,714.4570528999902,719.4753375999862,720.1952848999645,720.1952901000041,721.7116925999871,722.7288393999916,w,11.0,0.7199472999782301,1,+10,145,0.5453224238023626,-0.13193613714843444,-0.36375259196815435,708661.0,-20.81833802925897,-0.01995320897791686,0.06718926138918513,712194.0,,,,,714.4603934644861,710.927393464486,
42,28,21,F,1,0,34.0,34,1,high,7 + 1 + 4 + 1 - 1,12,13,12,11,724.2456106999889,726.271733600006,727.7869927999564,732.8053168999613,733.6833116000053,733.6833170999889,735.1993582999567,736.2170735999825,w,12.0,0.8779947000439279,1,+10,155,-1.0389712457662057,0.2490029788617507,0.37298515016248923,721991.0,7.652885501397472,-0.6104776131374909,-0.09206431128384551,725524.0,,,,,727.7903934644861,724.2573934644861,
43,28,21,F,1,0,35.0,35,3,high,7 + 5 + 9 + 1 - 6,16,14,15,16,737.7340595999849,739.7599555999623,741.275493299996,746.293800799991,748.763427799975,748.7634330999572,750.2800073999679,751.2974703999935,e,16.0,2.4696269999840297,1,+10,165,48.771817508711216,0.46288590131069896,5.416853474499079,735479.0,23.82839746153862,1.1392597588857027,1.7658229839324244,739013.0,,,,,741.2793934644861,737.7453934644861,
44,28,21,F,1,0,36.0,36,1,low,4 + 7 + 1 - 1 - 1,10,11,10,9,752.8139405999682,754.8414093999891,756.3566564999637,761.375308299961,763.419481399993,763.4194871999789,764.9361409000121,765.9534984999918,e,9.0,2.0441731000319123,0,+0,165,48.548519314054275,-1.4558798690856873,5.733624173069202,750560.0,-1.3355985992606971,0.5571328155866637,5.329731607297872,754094.0,,,,,756.3603934644862,752.826393464486,
45,28,21,F,1,0,37.0,37,1,high,2 + 9 + 1 + 1 + 1,14,14,12,13,767.4699381999671,769.496719799994,771.0119191000122,776.0309343999834,776.8834199999692,776.8834258000134,778.3999000999611,779.4169245999656,q,14.0,0.8524855999858119,1,+10,175,-17.81114189707828,-1.4664825417539538,-0.7085343883982227,765215.0,-8.363797663631283,-0.33714832517427684,0.004812439911158428,768750.0,,,,,771.0163934644861,767.4813934644861,
46,28,21,F,1,1,38.0,0,3,low,2 + 1 + 9 - 7 + 6,11,11,12,13,789.2720029999618,791.2983194999979,792.813587200013,797.8339411999914,798.5633076999802,798.5633134999662,800.0803338999976,801.097332299978,q,11.0,0.7293664999888279,1,+1,176,-0.9273825730140368,-9.339981817627725,-4.006302136264201,787017.0,-13.303114047231558,0.24044293911859338,-0.2841507880209817,790552.0,,,,,792.8183934644861,789.2833934644862,
47,28,21,F,1,1,39.0,1,1,high,8 + 1 + 1 + 1 - 3,8,6,8,9,802.613779700012,804.6347871999606,806.1503819999634,811.1688771999907,811.8274898999953,811.8274955999805,813.3441493000137,814.3617622999591,w,8.0,0.6586127000045963,1,+10,186,3.8101537415539735,0.267347963555844,-9.503316988111322,800354.0,-13.313107723869754,1.8591293652095913,3.3421664616961153,803888.0,,,,,806.1543934644861,802.6203934644861,
48,28,21,F,1,1,40.0,2,2,low,4 + 9 + 1 - 7 - 1,6,5,6,8,815.8786094000097,817.9058981999988,819.4211913999752,824.4400964999804,828.0674678999931,828.0674735999783,829.584023399977,830.6009648999898,w,6.0,3.6273714000126343,1,+1,187,-27.92981719987861,-0.7080895443243378,2.8823245969936555,813624.0,16.31391456831862,0.3722864134252699,1.5296903739147898,817158.0,,,,,819.4243934644861,815.8903934644861,
49,28,21,F,1,1,41.0,3,2,high,6 + 1 + 8 + 5 - 1,19,19,17,18,832.1183208999573,834.1555561000132,835.6708034999901,840.6888940999634,841.1794364000089,841.1794423999963,842.6963474999648,843.7139285999583,q,19.0,0.4905423000454902,1,+10,197,7.397913503847427,0.05917143401170577,-0.030216423378558677,829874.0,-10.386845187529605,0.14361410612097858,0.1706688082191683,833407.0,,,,,835.6733934644861,832.1403934644861,
50,28,21,F,1,1,42.0,4,1,high,3 + 1 + 8 - 1 + 1,12,12,13,10,845.2305344999768,847.2581665999605,848.7736380000133,853.7919906000025,854.5797773000086,854.5797826999915,856.0964569000062,857.1138313999982,q,12.0,0.7877867000061087,1,+10,207,-8.716945740981547,-1.279156480679755,-0.11071133636769726,842977.0,-13.592905365487443,0.3883518230234655,0.13258512682640555,846510.0,,,,,848.7763934644861,845.2433934644861,
51,28,21,F,1,1,43.0,5,1,high,8 + 1 + 4 + 1 + 1,15,15,16,14,858.6311667999835,860.6549765999662,862.1701975999749,867.1882350000087,869.9074460999691,869.907451600011,871.4242998000118,872.442306699988,q,15.0,2.719211099960376,1,+10,217,-15.046026378409081,-0.9892498107780368,-0.011233729099153766,856373.0,7.5895248286816726,0.9915330584288911,0.07171638338400177,859906.0,,,,,862.172393464486,858.6393934644861,
52,28,21,F,1,1,44.0,6,2,low,6 + 1 + 1 + 7 - 9,6,8,6,4,873.9591811000137,875.9855653999839,877.5007938999915,882.5191661000135,885.3074882999645,885.3074939000071,886.8240524999565,887.8417931000004,q,8.0,2.788322199950926,0,+0,217,-9.068298271514312,-0.23999485779550955,0.05073206266028207,871704.0,6.117035164127902,-0.5841199082080131,0.18950409660579792,875237.0,,,,,877.5033934644861,873.970393464486,
53,28,21,F,1,1,45.0,7,2,high,3 + 1 + 8 - 5 - 1,6,6,7,5,889.3589046999696,891.3847815999761,892.8998181999777,897.91820309998,898.4915807999787,898.4915862999624,900.0087775999564,901.0266428999604,q,6.0,0.573377699998673,1,+10,227,5.1758228627045035,0.03563326010718004,0.11720904076985073,887103.0,-3.9914200297526676,-0.3121565355827114,0.035104856129521966,890636.0,,,,,892.9023934644861,889.369393464486,
54,28,21,F,1,1,46.0,8,3,low,4 + 8 - 3 + 5 - 1,13,14,12,13,902.5432426999904,904.5704101999872,906.0856551000034,911.1041051999782,911.811383799999,911.8113885999774,913.3279159999802,914.3447980000057,e,13.0,0.7072786000207998,1,+1,228,7.776475273516706,0.5255498841821069,0.36888814121726,900288.0,-23.86753340512015,-0.09962117952042515,-0.8391402220720865,903822.0,,,,,906.0883934644861,902.5543934644861,
55,28,21,F,1,1,47.0,9,1,high,2 + 9 + 1 + 1 + 1,14,12,14,13,915.8615814999794,917.8866768999724,919.4020702000124,924.4195462999631,925.187401800009,925.1874073999934,926.7039958999958,927.7213254999951,w,14.0,0.7678555000456981,1,+10,238,-22.241419782619083,0.9463768755643804,6.082752577028955,913604.0,-23.368175496919672,-0.19574118257771556,-0.5312815320678008,917138.0,,,,,919.4043934644861,915.8703934644861,
56,28,21,F,1,1,48.0,10,3,high,5 + 1 + 7 - 8 + 6,11,9,13,11,929.2381930999692,931.264160199964,932.7793791999576,937.7982960999944,938.4034879999816,938.4034933999646,939.919914499973,940.9372894999688,e,11.0,0.6051918999874033,1,+10,248,11.000457123454389,1.0363946471398204,1.3923930291463238,926982.0,-17.587917375458357,-4.948420654986285,-4.135620694160125,930516.0,,,,,932.7823934644861,929.2483934644861,
57,28,21,F,1,1,49.0,11,4,high,7 + 6 - 9 + 8 - 3,9,9,7,8,942.4540455999668,944.4802274999674,945.9952544000116,951.0144391999928,952.5715604000144,952.571565899998,954.0882251999574,955.105380999972,q,9.0,1.5571212000213563,1,+10,258,-1.4868710605977906,-11.043804718442193,-0.23268642021297126,940198.0,-15.977516224494794,-0.16653716836156907,0.04048061475678555,943731.0,,,,,945.9973934644861,942.4643934644861,
58,28,21,F,1,1,50.0,12,4,low,3 + 8 - 7 + 9 - 5,8,8,7,9,956.622592300002,958.6493584999698,960.164551599999,965.183150099998,967.003570300003,967.0035758999876,968.5208269999712,969.5380640999648,w,7.0,1.8204202000051737,0,+0,258,9.889543258576015,1.1468507515329582,0.262623950101716,954367.0,1.9088890930781304,-0.3415949221655614,0.35048872756042515,957901.0,,,,,960.167393464486,956.6333934644861,
59,28,21,F,1,1,51.0,13,4,low,5 + 8 - 4 - 6 + 9,12,14,12,13,971.0549604999832,973.0781023000018,974.59327079996,979.6113156999928,980.57957349997,980.5795789000113,982.0964608999784,983.1134085999802,w,12.0,0.9682577999774368,1,+1,259,28.399709910077096,1.6733464671750018,0.47226957594299535,968795.0,-12.452549994838428,-0.19258897121375762,0.2556389398794128,972329.0,,,,,974.595393464486,971.0613934644861,
60,28,21,F,1,1,52.0,14,1,high,9 + 8 + 1 + 1 - 1,18,17,18,20,984.6303190999896,986.6572949999828,988.1727312000004,993.1905157999718,993.7635033999686,993.7635089000104,995.2799199,996.2969906000072,w,18.0,0.5729875999968499,1,+10,269,-26.03049731881976,-0.24254453620212457,-0.0847759009655138,982375.0,-11.438444550494577,0.19016944472716846,-0.05568446984219966,985908.0,,,,,988.1743934644861,984.6413934644861,
61,28,21,F,1,1,53.0,15,4,low,6 + 9 + 7 - 3 - 5,14,13,12,14,997.813951899996,999.839257399959,1001.3544497999828,1006.3745747999636,1007.011534499994,1007.0115399999776,1008.528342799982,1009.5453499999712,e,14.0,0.6369597000302747,1,+1,270,19.91333412056157,0.18914224453410888,0.08709798251907053,995557.0,-11.471200638855102,-0.2779285927498023,0.0855506812106106,999092.0,,,,,1001.3583934644861,997.8233934644861,
62,28,21,F,1,1,54.0,16,4,low,9 + 8 - 5 - 7 + 6,11,11,13,10,1011.0623706000042,1013.0851089999778,1014.6004383999972,1019.6191975999972,1022.1396078999968,1022.1396133999806,1023.656189900008,1024.6730720999767,w,13.0,2.5204102999996394,0,+0,270,2.1966169236205175,-0.5464639883965221,0.0859913272088837,1008802.0,-4.385325941366439,-0.09327865389211576,0.009592109680170546,1012336.0,,,,,1014.6023934644861,1011.0683934644861,
63,28,21,F,1,1,55.0,17,1,high,3 + 1 + 9 + 1 - 1,13,14,12,13,1026.189871200011,1028.2174933999777,1029.73266899999,1034.7508283999632,1035.2837921999744,1035.2837979999604,1036.8002503999742,1037.817709399969,e,13.0,0.5329638000112027,1,+10,280,-28.75233419126736,-0.44148401919525293,-0.12929301507854607,1023935.0,8.502578504270183,0.34149013412795526,1.42969866707518,1027468.0,,,,,1029.7343934644862,1026.201393464486,
64,28,21,F,1,1,56.0,18,3,high,4 + 7 - 3 + 5 - 1,12,13,12,11,1039.334702699969,1041.3584131000098,1042.8736802999629,1047.8937398999697,1048.7395707999822,1048.7395758999628,1050.2559465999948,1051.2733406999614,w,12.0,0.8458309000125155,1,+10,290,26.19717697709719,0.35119874221533864,1.4820567021193964,1037076.0,8.657792227774078,-0.037585263821118264,-0.10075049295515548,1040611.0,,,,,1042.8773934644862,1039.3423934644861,
65,28,21,F,1,1,57.0,19,4,high,4 + 9 - 7 + 8 + 5,19,21,20,19,1052.79024209996,1054.8148444999824,1056.330003399984,1061.348395899986,1064.7075975000043,1064.707603399991,1066.224074299971,1067.2408448999631,w,20.0,3.359201600018423,0,+0,290,17.72036390634467,-0.7915985725946815,-11.035626215746825,1050532.0,3.145746011381604,-0.36006789908501924,-0.2436106509451723,1054065.0,,,,,1056.3313934644862,1052.798393464486,
66,28,21,F,1,1,58.0,20,4,high,5 + 7 - 4 - 6 + 9,11,13,12,11,1068.757281499973,1070.784002100001,1072.299228399992,1077.3191874999902,1078.7156317000045,1078.7156369999866,1080.232102799986,1081.2495396999875,e,11.0,1.39644420001423,1,+10,300,4.907715561353654,3.124408598285415,-1.5964102827063638,1066501.0,16.176524447789248,4.683408928846875,1.3616459400034424,1070036.0,,,,,1072.3023934644862,1068.767393464486,
67,28,21,F,1,1,59.0,21,3,low,4 + 1 + 8 + 9 - 5,17,18,17,19,1082.7664308999665,1084.791515799996,1086.3068148999591,1091.3249844000093,1092.1475519000087,1092.1475573999924,1093.6643748999925,1094.6813319000066,w,17.0,0.8225674999994226,1,+1,301,-64.38418578890324,2.198578345941076,2.9825091458825623,1080508.0,18.4831369206868,0.4942701472315747,-1.9474471246251461,1084042.0,,,,,1086.308393464486,1082.7743934644861,
68,28,21,F,1,1,60.0,22,2,high,7 + 1 + 9 - 1 - 8,8,8,6,7,1096.1975664999918,1098.224912900012,1099.7401769999997,1104.7587009000126,1105.483580500004,1105.4835860999883,1107.0001345999772,1108.0173498999793,q,8.0,0.7248795999912545,1,+10,311,1.4434332752003307,-0.5670479728444513,-1.7028789706689844,1093941.0,-31.878739319583993,0.3112123017209023,0.3356094929002107,1097475.0,,,,,1099.741393464486,1096.2073934644861,
69,28,21,F,1,1,61.0,23,2,high,7 + 8 + 1 + 9 + 1,26,24,25,26,1109.5342883999692,1111.5566077000112,1113.071473399992,1118.0899142000126,1118.6916504999972,1118.6916559999809,1120.2080280999653,1121.2254483999568,e,26.0,0.6017362999846227,1,+10,321,-6.892050834048197,-0.2735907898664469,-0.16572588617922301,1107273.0,-17.53143077035764,-0.2286110046555696,-0.05845898531053062,1110806.0,,,,,1113.0723934644861,1109.539393464486,
70,28,21,F,1,1,62.0,24,1,high,8 + 1 + 1 - 1 - 4,5,3,5,6,1122.742502100009,1124.771287199983,1126.286479100003,1131.3047372999715,1131.8756273000035,1131.8756322999834,1133.392150099971,1134.409482099989,w,5.0,0.5708900000317954,1,+10,331,13.130465692059364,0.1502973057230843,-0.12811238881215092,1120488.0,-23.684871601599447,0.0184983487060153,-0.0022396150579120366,1124021.0,,,,,1126.287393464486,1122.7543934644862,
71,28,21,F,1,1,63.0,25,1,low,4 + 1 + 1 + 7 - 1,12,13,12,14,1135.926270099997,1137.9511663999874,1139.4670464000085,1144.4871853999794,1145.1156517000054,1145.1156570999883,1146.6320686999825,1147.649574399984,w,12.0,0.628466300026048,1,+1,332,1.1579674976307714,0.49917011236821995,0.09161864440327472,1133668.0,-1.6776330181759374,0.27312878042859534,0.03975251338371666,1137204.0,,,,,1139.470393464486,1135.934393464486,
72,28,21,F,1,1,64.0,26,1,low,5 + 6 + 1 + 1 + 1,14,15,16,14,1149.1669376000063,1151.1914766000118,1152.7069923999952,1157.7249155999743,1158.259792900004,1158.2597982999869,1159.7773134000015,1160.7942625000142,e,14.0,0.5348773000296205,1,+1,333,-23.571192400735207,-0.18925065516399808,0.03993424289137604,1146908.0,-5.049292613239994,0.34625317129170874,0.18071250617799817,1150441.0,,,,,1152.7073934644861,1149.174393464486,
73,28,21,F,1,1,65.0,27,3,low,2 + 9 + 1 - 5 + 7,14,15,12,14,1162.3111257000128,1164.3367741999682,1165.8519957999815,1170.8719002999717,1171.3796176000033,1171.3796231999877,1172.8966391999857,1173.9140532999882,e,14.0,0.5077173000317998,1,+1,334,-23.577378186077052,0.04453868766157987,0.17468504267154672,1160053.0,-23.074456335558537,0.45506325764801003,0.10732100242510789,1163588.0,,,,,1165.854393464486,1162.3193934644862,
74,28,21,F,1,1,66.0,28,1,low,8 - 1 + 1 + 6 + 1,15,14,16,15,1175.4305746000027,1177.4549128999934,1178.970098199963,1183.9892226000084,1187.467796300014,1187.4678021,1188.9846448999597,1190.0018041000003,q,14.0,3.4785737000056542,0,+0,334,7.329652141948877,1.3866845647974868,0.4889474415008459,1173171.0,40.07322968918796,0.12600377065245505,0.3045309244509351,1176705.0,,,,,1178.971393464486,1175.4373934644861,
75,28,21,F,1,1,67.0,29,2,high,6 + 1 + 1 + 8 - 9,7,7,5,9,1191.5186326999683,1193.5435350000043,1195.058782999986,1200.0769530999823,1200.7156892999774,1200.715694399958,1202.232015699963,1203.2489774000132,q,7.0,0.6387361999950372,1,+10,344,3.0554513758309447,0.7284201756905122,0.08424515744293304,1189260.0,-35.85638885472085,0.08812365683543222,0.04767782387798558,1192793.0,,,,,1195.059393464486,1191.526393464486,
76,28,21,F,1,1,68.0,30,4,high,4 + 8 + 9 - 3 + 7,25,25,26,24,1204.7658153999946,1206.7910607999656,1208.3062745999778,1213.3247077999986,1215.1958882999606,1215.1958939000033,1216.7125072999625,1217.7299704999896,q,25.0,1.8711804999620651,1,+10,354,22.940630778899205,0.7193036824780901,0.24532813656116614,1202507.0,0.5198861855083972,-0.735929224352545,-2.103678550069099,1206041.0,,,,,1208.307393464486,1204.7733934644862,
77,28,21,F,1,1,69.0,31,1,high,4 + 8 + 1 - 1 - 1,11,11,13,9,1219.2468343999935,1221.2687700999668,1222.7839814999606,1227.8021373999654,1228.3078209999949,1228.3078257999732,1229.8243264000048,1230.841430599976,e,9.0,0.5056836000294425,0,+0,354,-8.750305758415807,-0.21366217242546837,0.25247910768733606,1216985.0,21.596968324959878,0.13361333676739529,-0.11901965521176416,1220518.0,,,,,1222.7843934644861,1219.251393464486,
78,28,21,F,1,1,70.0,32,4,low,6 + 9 - 7 + 8 - 5,11,12,13,11,1232.3581829000032,1234.381346799957,1235.8962989999563,1240.914906699967,1243.5957756999996,1243.5957814999856,1245.1124597999733,1246.129607599985,q,12.0,2.680869000032544,0,+0,354,11.447626742176995,0.654862965078193,1.0362724682900457,1230097.0,-11.798370999305387,-0.13711142114833175,0.16422919898326338,1233631.0,,,,,1235.8973934644862,1232.363393464486,
79,28,21,F,1,1,71.0,33,3,low,5 + 7 + 1 - 4 + 6,15,13,15,17,1247.6461778999656,1249.6735478999908,1251.1894440999604,1256.207571099978,1256.97971829999,1256.9797238999745,1258.496381999983,1259.513371500012,w,15.0,0.7721472000121139,1,+1,355,10.39216705278169,-1.1518560618451898,0.07359877571336915,1245389.0,53.23879489950447,1.3422011852753273,12.273196078171672,1248924.0,,,,,1251.190393464486,1247.655393464486,
80,28,21,F,1,1,72.0,34,2,high,9 + 5 - 6 + 1 - 1,8,9,8,7,1261.030232499994,1263.0550831999865,1264.5703716999851,1269.5902957000071,1270.2518118000007,1270.2518171999836,1271.768261899997,1272.785420299973,w,8.0,0.6615160999936052,1,+10,365,7.471063333913801,-1.093768636995196,-0.17237186814662175,1258771.0,62.59866144814078,0.7757542581455619,-0.9229775134442835,1262306.0,,,,,1264.5723934644861,1261.037393464486,
81,28,21,F,1,1,73.0,35,3,high,3 + 1 + 8 - 5 + 6,13,13,14,15,1274.302185699984,1276.3293975999695,1277.844484100002,1282.8634735000087,1285.5238240999752,1285.5238296999596,1287.039990499965,1288.0580135000057,e,15.0,2.6603505999664776,0,+0,365,29.04079369007843,-0.8322965834241143,1.4791864730039186,1272045.0,-8.512225821690166,0.23423229775415422,0.29955220418813644,1275579.0,,,,,1277.845393464486,1274.3113934644862,
82,28,21,F,1,1,74.0,36,3,low,6 - 1 + 7 - 8 + 9,13,13,12,11,1289.5753419999965,1291.5988960000104,1293.1141545000137,1298.1327694999636,1298.907761599985,1298.9077667999663,1300.4245327999815,1301.4413353999844,q,13.0,0.7749921000213362,1,+1,366,-18.15670711277361,-3.295327033133548,12.685488080008241,1287314.0,24.859458558841013,-0.7552318285160204,-1.125437272222126,1290848.0,,,,,1293.114393464486,1289.5803934644862,
83,28,21,F,1,1,75.0,37,3,low,7 - 6 + 8 + 1 + 7,17,16,15,17,1302.9580125999637,1304.9804635999608,1306.4958330999943,1311.5141698999796,1312.0917970999726,1312.0918025000135,1313.608453999972,1314.625677599979,w,15.0,0.5776271999930032,0,+0,366,14.663647794144882,5.6696052850033265,4.261809637496265,1300696.0,-43.42033106681147,-5.318239482056812,-7.986531618702632,1304230.0,,,,,1306.4963934644861,1302.962393464486,
84,28,21,F,1,2,76.0,0,4,low,6 + 9 + 7 - 3 - 5,14,14,13,15,1337.1760513999616,1339.2023659999832,1340.7174710999825,1345.7375229999889,1346.31586480001,1346.3158709999989,1347.8323698999593,1348.8492585999777,q,14.0,0.5783418000210077,1,+1,367,-25.134737200306105,0.9420150325014536,2.391735062158933,1334918.0,21.381777103676402,-1.5716438973676108,3.4952470019284556,1338453.0,,,,,1340.719393464486,1337.184393464486,
85,28,21,F,1,2,77.0,1,1,low,6 + 1 + 1 + 9 - 1,16,15,14,16,1350.366237499984,1352.3925312999636,1353.9078724999565,1358.9265573999728,1359.691752899962,1359.6917580000008,1361.2082294999857,1362.22470359999,e,16.0,0.7651954999892041,1,+1,368,2.64365138445154,-0.041501341533851654,-0.2878910713780958,1348108.0,6.512151663844012,-0.004477588986546266,0.3086842073479177,1351642.0,,,,,1353.9083934644862,1350.374393464486,
86,28,21,F,1,2,78.0,2,3,high,5 + 6 - 4 - 1 + 7,13,15,13,14,1363.741394200013,1365.769201999996,1367.2844620000103,1372.3031713999808,1374.0199875999824,1374.0199928999646,1375.5360870999866,1376.5529421999818,w,13.0,1.716816200001631,1,+10,378,25.641827322232377,0.41782248273440237,3.835234539041922,1361484.0,0.9784241370052129,0.10641566461923402,1.2013550146898808,1365018.0,,,,,1367.2843934644861,1363.750393464486,
87,28,21,F,1,2,79.0,3,3,low,4 + 1 + 8 + 9 - 5,17,19,18,17,1378.0697785000084,1380.0945048999856,1381.6095382999629,1386.6275652999757,1387.132112399966,1387.1321181000094,1388.6481467999984,1389.6660839999677,e,17.0,0.5045470999903046,1,+1,379,13.92187865504912,0.13666758046551797,0.7602416614214982,1375809.0,-11.434271849594456,0.22577012007620123,-2.382667660657379,1379343.0,,,,,1381.6093934644862,1378.075393464486,
88,28,21,F,1,2,80.0,4,2,low,4 + 8 + 1 + 1 - 6,8,7,8,9,1391.182662700012,1393.209052799968,1394.724074399972,1399.742351299967,1400.227832500008,1400.2278375999886,1401.7448805999593,1402.7617567999987,w,8.0,0.4854812000412494,1,+1,380,-14.55632127766018,0.2640780654234969,1.0157575257640048,1388924.0,-15.85301999368875,-0.1064528016981301,-0.21878539372020311,1392457.0,,,,,1394.7233934644862,1391.190393464486,
89,28,21,F,1,2,81.0,5,3,high,4 + 8 - 9 + 1 + 7,11,11,13,9,1404.27851199999,1406.3058457999723,1407.820901200001,1412.838914199965,1413.5959480999736,1413.5959535999573,1415.1127596999868,1416.1299188999692,q,11.0,0.7570339000085369,1,+10,390,-1.0063165678191641,0.3070637422980491,-0.01366996562731737,1402021.0,-44.1112104653713,-0.08283667467344324,0.20081997867255286,1405554.0,,,,,1407.8203934644862,1404.287393464486,
90,28,21,F,1,2,82.0,6,3,high,5 + 6 - 4 - 1 + 8,14,15,14,16,1417.646665600012,1419.670519599982,1421.1861389999976,1426.2042668999638,1427.4599966999958,1427.4600022999805,1428.976364000002,1429.9935735999609,w,14.0,1.255729800031986,1,+10,400,-8.38078523669823,2.3391706439384237,3.7952928422770076,1415385.0,-16.083790367779184,0.15714656759810852,0.1651198972437422,1418919.0,,,,,1421.1853934644862,1417.651393464486,
91,28,21,F,1,2,83.0,7,3,low,5 + 6 + 7 - 1 - 9,8,7,9,8,1431.5104943999904,1433.5352021,1435.0503842000037,1440.0687122999807,1442.77185119997,1442.7718568000128,1444.2883071000106,1445.3052163000102,e,8.0,2.703138899989426,1,+1,401,-28.7675893768484,-0.5665449995261218,-0.040569706045595844,1429250.0,-59.90847086528663,-0.20829778545339428,0.2845789934022058,1432784.0,,,,,1435.0503934644862,1431.516393464486,
92,28,21,F,1,2,84.0,8,2,high,3 - 1 + 9 - 5 + 1,7,6,5,7,1446.8219614999834,1448.849258799979,1450.364074299985,1455.382375999994,1455.9398950999605,1455.9399004000006,1457.4566026999964,1458.4738229999784,e,7.0,0.5575190999661572,1,+10,411,1.9390325204426286,-0.3567798507229565,-0.07160721738015163,1444564.0,-2.3782440760855934,-1.6656901621833167,-0.19773876424992864,1448097.0,,,,,1450.363393464486,1446.8303934644862,
93,28,21,F,1,2,85.0,9,1,low,7 + 1 + 6 + 1 + 1,16,16,17,18,1459.9909893999577,1462.016167099995,1463.531360999972,1468.5504503999837,1469.1560048999963,1469.1560102999792,1470.6726862000069,1471.689439699985,q,16.0,0.6055545000126585,1,+1,412,19.99026167962495,0.008275222738667765,-0.014391372556231685,1457731.0,0.6064888497589003,0.04740061221476566,-0.053163461548309865,1461265.0,,,,,1463.5313934644862,1459.997393464486,
94,28,21,F,1,2,86.0,10,4,high,5 + 7 - 4 - 6 + 9,11,13,11,12,1473.2065035999983,1475.2342730999808,1476.7491446000058,1481.767391100002,1482.5479204999865,1482.547926099971,1484.064583499974,1485.0818769999896,w,11.0,0.7805293999845162,1,+10,422,-17.128714889796125,-0.10942355523943403,0.16628953857732864,1470949.0,54.90393995230151,1.9825385580366075,3.12996832193231,1474482.0,,,,,1476.748393464486,1473.2153934644862,
95,28,21,F,1,2,87.0,11,3,low,4 + 7 + 1 + 9 - 5,16,17,18,16,1486.5984596000053,1488.621666899999,1490.1368045000129,1495.1551999999792,1496.4999396000055,1496.4999450999894,1498.016484099964,1499.033810599998,q,17.0,1.3447396000265144,0,+0,422,-10.824219689330636,0.6229115803316319,-0.42257231184457833,1484336.0,-2.669021148781539,0.2457839124020227,-0.24494065625645378,1487870.0,,,,,1490.136393464486,1486.602393464486,
96,28,21,F,1,2,88.0,12,3,low,8 + 3 + 1 - 7 + 9,14,15,12,14,1500.5505603000056,1502.5726131999982,1504.08776819997,1509.1059433000046,1509.676022699976,1509.676027999958,1511.1925986999995,1512.2095206999802,e,14.0,0.5700793999712914,1,+1,423,37.848231923677794,-0.5834323949246061,-10.337844104529287,1498287.0,-14.763462084749502,1.4663547135214734,8.419837370186155,1501821.0,,,,,1504.087393464486,1500.5533934644861,
97,28,21,F,1,2,89.0,13,2,high,9 + 4 - 6 + 1 - 1,7,9,7,8,1513.7259708999773,1515.753620399977,1517.268849199987,1522.2871589999995,1523.0527384000015,1523.052744399989,1524.569319000002,1525.5856534999912,w,7.0,0.7655794000020251,1,+10,433,5.3326970884672384,-1.3280779790265624,0.3326067663188885,1511468.0,-20.82621608535831,0.02210935429735006,-0.2994064475008593,1515001.0,,,,,1517.267393464486,1513.7343934644862,
98,28,21,F,1,2,90.0,14,4,low,9 + 4 - 6 + 8 + 7,22,22,24,21,1527.10267990001,1529.1275691000046,1530.6428795999964,1535.661847899959,1539.0840384999756,1539.0840437999575,1540.6002760999836,1541.6174745999742,q,22.0,3.42219060001662,1,+1,434,-1.6044632862558643,0.26356902043621133,-1.339167272210426,1524842.0,-20.25029040373741,-0.39378540917522553,0.15913032221412626,1528376.0,,,,,1530.642393464486,1527.1083934644862,
99,28,21,F,1,2,91.0,15,3,low,8 + 4 + 1 - 7 + 9,15,13,16,15,1543.1341888000024,1545.1601347000103,1546.6752553000117,1551.695327399997,1552.1801320000086,1552.1801376999938,1553.6967057999573,1554.7136925999655,e,15.0,0.4848046000115573,1,+1,435,-8.958269190997413,0.5534425897861994,0.12712872789284413,1540874.0,-35.25696821807611,0.27256256546441504,0.25632658949916065,1544409.0,,,,,1546.6753934644862,1543.1403934644861,
100,28,21,F,1,2,92.0,16,3,high,6 + 1 + 8 + 7 - 9,13,15,13,14,1556.230433299963,1558.256177800009,1559.77110969997,1564.7894624999608,1565.3959699000116,1565.3959751999937,1566.912419100001,1567.9296491999994,w,13.0,0.6065074000507593,1,+10,445,21.29025061378757,-0.5242458595160375,0.15922533498317382,1553970.0,5.879694868304302,0.7648158043185207,-0.04706665663021581,1557504.0,,,,,1559.770393464486,1556.2363934644861,
101,28,21,F,1,2,93.0,17,4,high,8 + 4 - 5 + 7 - 6,8,6,7,8,1569.4465906000114,1571.473435299995,1572.9886443999712,1578.0087567999726,1579.6440951999975,1579.6441005999804,1581.1607426999835,1582.1781110999873,e,8.0,1.6353384000249207,1,+10,455,74.37220273758004,0.10733295418279054,0.09771904831531475,1567188.0,0.12013745036503387,-0.6219672003098187,0.05597367173922918,1570723.0,,,,,1572.989393464486,1569.4543934644862,
102,28,21,F,1,2,94.0,18,4,low,8 + 4 + 7 - 5 - 6,8,6,9,8,1583.6950305000064,1585.7217985999887,1587.237135400006,1592.255763299996,1592.9960680999793,1592.996073599963,1594.5128924999735,1595.5304561000085,e,8.0,0.7403047999832779,1,+1,456,-23.074506491630252,2.2293073585055225,0.3725494630673969,1581436.0,15.233206085409881,0.13238185423683868,0.09258310128732772,1584970.0,,,,,1587.2363934644861,1583.702393464486,
103,28,21,F,1,2,95.0,19,4,high,5 + 6 - 4 + 7 + 9,23,24,23,25,1597.0478086000076,1599.0727713999804,1600.588104299968,1605.6080569999758,1606.4440104999812,1606.444015599962,1607.960361299978,1608.977558100014,w,23.0,0.8359535000054166,1,+10,466,-5.846213104023388,2.4472985353212486,-0.042534438872146474,1594786.0,-10.965092553071193,0.011266780579995306,0.23396733124748081,1598322.0,,,,,1600.588393464486,1597.0523934644862,
104,28,21,F,1,2,96.0,20,2,high,8 + 1 + 7 + 1 - 4,13,13,12,14,1610.494493999984,1612.5214267999982,1614.0371887999936,1619.0559148999746,1622.4841116999742,1622.4841171999578,1624.0005995999672,1625.0177121000015,w,12.0,3.4281967999995686,0,+0,466,-48.8690297091803,0.33957033187638697,-0.3410127274961985,1608236.0,9.842102311643947,0.004062963842741407,-0.009205094822082316,1611770.0,,,,,1614.036393464486,1610.5023934644862,
105,28,21,F,1,2,97.0,21,3,low,2 + 9 - 3 + 4 + 1,13,13,11,14,1626.5509797999985,1628.576877799991,1630.092195299978,1635.1100955999573,1635.812090999971,1635.812096300011,1637.3285433999845,1638.3450975999583,q,13.0,0.7019954000134021,1,+1,467,-7.753700726585343,0.32750963982345516,-0.1274189912974255,1624291.0,-38.66378174267204,-0.5437451781208025,0.13958142679400476,1627824.0,,,,,1630.0903934644862,1626.557393464486,
106,28,21,F,1,2,98.0,22,4,low,7 + 6 - 4 + 9 - 5,13,12,13,14,1639.862335599959,1641.8905431999592,1643.4061789999832,1648.4245181999868,1650.7320815999992,1650.7320875999867,1652.248705599981,1653.265464199998,w,13.0,2.307563400012441,1,+1,468,25.2473897827501,-0.7893194509324952,-1.4328451701524259,1637604.0,-25.87601838319521,0.15290402477355025,0.1649325735914009,1641138.0,,,,,1643.404393464486,1639.8703934644861,
107,28,21,F,1,2,99.0,23,4,high,9 + 7 - 5 + 8 + 6,25,27,24,25,1654.7822959999903,1656.8103667999967,1658.325527100009,1663.3441963999649,1665.268204299966,1665.2682098000078,1666.7846129999962,1667.801841699984,e,25.0,1.9240079000010155,1,+10,478,20.6080789643509,0.3231383813207547,-0.32736151825579896,1652524.0,-35.55337181715907,-1.0835277315905332,-5.303340227154141,1656058.0,,,,,1658.324393464486,1654.790393464486,
108,28,21,F,1,2,100.0,24,2,high,5 + 9 - 8 + 1 + 1,8,8,9,7,1669.318625899963,1671.3459053999975,1672.861617699964,1677.8797222999856,1678.7640860999818,1678.764093099977,1680.280699199997,1681.298011499981,q,8.0,0.8843637999962084,1,+10,488,9.64666662233336,0.06975540448384487,-1.2891060919686508,1667060.0,20.302563830082626,-2.366385352288605,-1.992665169384789,1670593.0,,,,,1672.8593934644862,1669.326393464486,
109,28,21,F,1,2,101.0,25,3,low,6 - 1 + 7 - 8 + 9,13,12,11,13,1682.8143891000072,1684.8414963000105,1686.3566160000046,1691.375256099971,1694.0522326999926,1694.052238299977,1695.5686394000077,1696.5857112999656,e,13.0,2.676976600021589,1,+1,489,-30.99470748331099,0.4672977039423123,4.7492972237977735,1680555.0,-34.97211624665084,0.030758280879761735,-2.1402119424642776,1684089.0,,,,,1686.355393464486,1682.8213934644862,
110,28,21,F,1,2,102.0,26,3,low,9 + 3 - 4 + 6 + 7,21,23,22,21,1698.1025467999862,1700.1264434999905,1701.6416144999675,1706.6601842999808,1708.4281404999783,1708.4281462999645,1709.944497999968,1710.961347799981,e,21.0,1.7679561999975704,1,+1,490,3.7876443662772648,-0.5879661298165506,-1.8473261145211275,1695840.0,16.48701930403231,0.1492210341880842,2.657269695894763,1699374.0,,,,,1701.6403934644861,1698.106393464486,
111,28,21,F,1,2,103.0,27,2,low,2 + 9 + 1 + 1 - 5,8,7,8,6,1712.478156099969,1714.505918699957,1716.0211692999585,1721.039336499991,1723.68424589996,1723.684251600003,1725.2006528999773,1726.218062100001,w,8.0,2.6449093999690376,1,+1,491,-53.388672114746676,0.2505609746344062,0.4085996172094828,1710219.0,-26.880335467631575,0.026272688649325637,0.9636453761901596,1713753.0,,,,,1716.019393464486,1712.4853934644862,
112,28,21,F,1,2,104.0,28,3,low,4 + 5 - 3 + 7 - 1,12,11,12,13,1727.734898799972,1729.7621895999764,1731.277682099957,1736.2970741000026,1736.8121484000003,1736.8121536999824,1738.3285393000117,1739.3454062999808,w,12.0,0.5150742999976501,1,+1,492,20.731029614835588,0.35894464705975926,5.040615140154133,1725475.0,-30.628967689573557,-2.441061002818686,-1.7570571494302927,1729010.0,,,,,1731.276393464486,1727.741393464486,
113,28,21,F,1,2,105.0,29,3,low,8 + 6 - 7 + 1 - 4,4,4,5,3,1740.8623122000135,1742.8879130000132,1744.4032220999943,1749.421790399996,1750.004152300011,1750.004157899995,1751.5213042999967,1752.5386155999731,q,4.0,0.5823619000148028,1,+1,493,12.505376632211057,0.22371142233041796,0.7398330156046469,1738600.0,2.127795058278526,-0.06438740002300358,0.2647048631257931,1742135.0,,,,,1744.401393464486,1740.866393464486,
114,28,21,F,1,2,106.0,30,4,high,3 + 9 - 4 + 7 + 6,21,21,20,19,1754.055374699994,1756.080203999998,1757.5954354999703,1762.61398059997,1763.3401540999766,1763.3401591999573,1764.8563431999646,1765.8737390000024,q,21.0,0.7261735000065528,1,+10,503,14.618970934941714,0.09351015556439357,3.2341428024404673,1751793.0,0.5690862808084116,0.36527449674992774,0.8637676407181063,1755327.0,,,,,1757.593393464486,1754.059393464486,
115,28,21,F,1,2,107.0,31,2,low,2 + 9 - 4 + 1 + 1,9,8,9,11,1767.3905932999917,1769.4167421999737,1770.932010599994,1775.9496704000048,1778.3322426999805,1778.3322483999657,1779.8486947999918,1780.8657542999715,w,9.0,2.382572299975436,1,+1,504,10.504838803277183,0.7061734853276302,0.3634267962994251,1765130.0,-6.683613734397573,-0.1702464532085144,0.06481705248018943,1768663.0,,,,,1770.929393464486,1767.3963934644862,
116,28,21,F,1,2,108.0,32,2,high,6 + 1 + 8 + 7 - 1,21,21,19,23,1782.382328799984,1784.408614999964,1785.92441529996,1790.944599599985,1791.6202256999677,1791.6202311000088,1793.136681700009,1794.1535916999565,q,21.0,0.6756260999827646,1,+10,514,15.687871341769553,-0.5637474635012167,-0.2790489821226494,1780122.0,15.826668594784113,0.07422489322530978,0.422111186075812,1783658.0,,,,,1785.924393464486,1782.3883934644862,
117,28,21,F,1,2,109.0,33,1,high,8 + 1 + 1 + 1 - 4,7,7,5,8,1795.6703081000014,1797.6974727999768,1799.2129246999975,1804.2306369,1805.0201648999937,1805.0201705999789,1806.53628499998,1807.5536569000103,q,7.0,0.7895279999938793,1,+10,524,-4.743635721147902,-0.08515246841632518,0.11650872770119758,1793411.0,-47.108906300640896,-0.17437556146525246,0.2725336785758854,1796944.0,,,,,1799.210393464486,1795.6773934644862,
118,28,21,F,1,2,110.0,34,3,high,6 + 8 + 7 + 1 - 9,13,13,15,14,1809.0703164999725,1811.0921253999693,1812.6072078999716,1817.6258789999997,1819.644277399988,1819.644283099973,1821.160865999991,1822.1783252999885,q,13.0,2.018398399988655,1,+10,534,-18.32338997087995,1.595643724385969,0.661018680822766,1806806.0,-17.451184173223048,-0.23332851365943075,-0.06880541287817343,1810339.0,,,,,1812.605393464486,1809.0723934644861,
119,28,21,F,1,2,111.0,35,4,high,3 + 8 - 4 + 9 + 6,22,21,22,23,1823.6950656999836,1825.7183087999583,1827.233516699984,1832.2517260999884,1833.4362189999665,1833.4362243000069,1834.9528068999643,1835.9702746999685,w,22.0,1.1844928999780675,1,+10,544,-48.26400565078623,-0.012873122091876965,2.621398368680473,1821431.0,-14.470292674936275,0.4343399384283311,0.09300619543019728,1824964.0,,,,,1827.230393464486,1823.6973934644861,
120,28,21,F,1,2,112.0,36,2,high,6 + 1 + 7 - 8 - 1,5,5,4,7,1837.487100899976,1839.515075800009,1841.030524300004,1846.049224899965,1847.6203447000007,1847.6203502999847,1849.1366834999644,1850.1538210000144,q,5.0,1.571119800035376,1,+10,554,10.580828817097395,-0.14290573601274614,2.4705676188723635,1835228.0,-20.953614321747814,-0.16058797445241968,0.38213512794929283,1838762.0,,,,,1841.028393464486,1837.4943934644862,
121,28,21,F,1,2,113.0,37,1,high,6 + 9 + 1 + 1 - 1,16,16,14,15,1851.6707571999868,1853.6984325000085,1855.213527699991,1860.2315732999705,1861.0442332999664,1861.0442392000116,1862.5606709999847,1863.5778651,q,16.0,0.8126599999959581,1,+10,564,-0.4778555514457281,0.13589754596723624,-0.11306769611727763,1849411.0,5.037897308348871,0.041170579187845835,-0.17868634312557408,1852944.0,,,,,1855.210393464486,1851.6773934644862,
122,28,21,F,1,3,114.0,0,2,low,7 + 5 + 1 - 1 - 8,4,3,4,2,1868.9677210999653,1870.994400799973,1872.5097164000035,1877.5285457000136,1878.2923349000048,1878.292340199987,1879.808583599981,1880.8259345999688,w,4.0,0.7637891999911517,1,+1,565,-21.323635292241185,0.09799346980146595,-0.5098292388799344,1866707.0,17.74647182720988,0.4207824755613947,-0.017111403048455376,1870241.0,,,,,1872.507393464486,1868.9733934644862,
123,28,21,F,1,3,115.0,1,3,high,9 - 5 - 1 - 6 + 8,5,4,7,5,1882.3426419000025,1884.369009099959,1885.8843080999795,1890.902359300002,1893.5642634999824,1893.5642687999643,1895.0803951999987,1896.097840900009,e,5.0,2.6619041999802,1,+10,575,15.579626586328112,-0.14371211778259418,0.11239401284113715,1880081.0,-29.176867180640116,-0.18560920444243934,-0.6608486260042419,1883615.0,,,,,1885.881393464486,1882.347393464486,
124,28,21,F,1,3,116.0,2,4,high,6 + 5 - 7 + 8 - 9,3,5,4,3,1897.614931499993,1899.638896799996,1901.1538677999636,1906.1731534000137,1906.8043227999588,1906.8043284000012,1908.320923499996,1909.338464099972,e,3.0,0.6311693999450654,1,+10,585,-3.937511410904598,0.12465404734757968,1.2071221068808304,1895351.0,16.126613267996234,-0.1447295527925494,-4.481841613626592,1898886.0,,,,,1901.152393464486,1897.6173934644862,
125,28,21,F,1,3,117.0,3,1,low,3 + 1 + 9 + 1 + 1,15,17,14,15,1910.8550924999872,1912.8800712999653,1914.39540639997,1919.4130807999757,1919.884296900011,1919.8843018999903,1921.4006676999848,1922.4177005999957,e,15.0,0.4712161000352353,1,+1,586,19.155158604591605,-0.3900841297096491,-0.04123626273650127,1908593.0,1.7697815776361798,0.1701068862328241,0.20453712441762462,1912126.0,,,,,1914.392393464486,1910.8593934644862,
126,28,21,F,1,3,118.0,4,4,low,5 + 9 - 4 + 7 + 6,23,24,23,25,1923.9345420000027,1925.9601822000116,1927.475463300012,1932.493793300004,1933.236252099974,1933.236257200013,1934.7537958999744,1935.7708799999675,w,23.0,0.7424587999703363,1,+1,587,-18.143762387157437,0.27149443941679596,0.047073588864595894,1921673.0,6.713669291443344,-0.23471870796159067,0.09118572813368342,1925206.0,,,,,1927.472393464486,1923.939393464486,
127,28,21,F,1,3,119.0,5,2,high,3 + 9 + 1 - 5 + 1,9,7,8,9,1937.287934699969,1939.3114857999608,1940.8264157999656,1945.8445094999624,1946.4042760999876,1946.404281199968,1947.9211876000045,1948.93858289998,e,9.0,0.5597666000248864,1,+10,597,10.247902176993547,0.19745591033168042,-0.38632777693777776,1935024.0,28.88936719490989,0.042264223464848705,-0.6405675278999583,1938557.0,,,,,1940.8233934644861,1937.290393464486,
128,28,21,F,1,3,120.0,6,2,high,8 + 1 + 4 - 7 + 1,7,6,5,7,1950.4553928999808,1952.478843399964,1953.994060900004,1959.0124600999989,1959.4844064000065,1959.4844117999887,1961.0012355999788,1962.018560900004,e,7.0,0.4719463000074029,1,+10,607,4.687129097547469,-0.1343156539364112,-0.15347385001798441,1948191.0,-3.715282737385687,0.4328362889217878,0.3637719705727809,1951725.0,,,,,1953.991393464486,1950.4573934644861,
129,28,21,F,1,3,121.0,7,2,high,7 + 6 + 1 - 1 - 8,5,4,5,3,1963.535018299997,1965.5621005999856,1967.0769643000092,1972.0955434999776,1972.620267599996,1972.620272599976,1974.1363666999969,1975.1532076000003,w,5.0,0.5247241000179201,1,+10,617,13.019825776191306,0.42684179569636793,0.48215569940801073,1961274.0,18.415795947552684,1.5226324664200632,0.1457073334495742,1964808.0,,,,,1967.074393464486,1963.540393464486,
130,28,21,F,1,3,122.0,8,4,high,4 + 7 + 8 - 3 + 9,25,26,24,25,1976.669908299984,1978.697587499977,1980.212492199964,1985.232787499961,1986.8044081999687,1986.8044137000104,1988.321049399965,1989.338471299969,w,24.0,1.5716207000077702,0,+0,617,-6.996006166511481,0.40607117826839545,-4.458927828781037,1974410.0,26.62943608192485,0.7824738769464532,0.7080193353390523,1977945.0,,,,,1980.211393464486,1976.6763934644862,
131,28,21,F,1,3,123.0,9,2,high,9 + 6 + 1 + 7 + 1,24,25,24,23,1990.855337599991,1992.8831785999937,1994.3984453000007,1999.4167733999784,2000.2283580999936,2000.228363399976,2001.744744099968,2002.7622678999903,w,24.0,0.8115847000153735,1,+10,627,40.54031692844258,0.12197836145766594,0.3899812148384063,1988595.0,32.71205662934954,-0.29253783886862994,0.20506236824031832,1992128.0,,,,,1994.394393464486,1990.8613934644861,
132,28,21,F,1,3,124.0,10,2,low,4 + 1 + 9 + 1 - 6,9,9,8,7,2004.2790866,2006.304122200003,2007.8200813999863,2012.8389510000125,2013.8523746999565,2013.8523801999984,2015.3687329000093,2016.3855597999643,q,9.0,1.0134236999438144,1,+1,628,-25.406117354215304,-0.13179596922735382,-5.41772771766823,2002016.0,-3.7902732459557296,-0.17228659305851934,17.02186249461531,2005551.0,,,,,2007.817393464486,2004.2823934644862,
133,28,21,F,1,3,125.0,11,3,high,3 + 8 - 7 + 1 + 9,14,14,13,12,2017.902287699981,2019.9292875999815,2021.4444578000112,2026.463046299992,2027.3243986999728,2027.3244044999592,2028.8410332999772,2029.858217499976,q,14.0,0.861352399981115,1,+10,638,-27.85592779528058,-0.18386788577274826,-0.0409049465346043,2015641.0,9.20430826068944,-0.21814484493976583,0.06189297656685122,2019175.0,,,,,2021.441393464486,2017.9073934644862,
134,28,21,F,1,3,126.0,12,4,high,4 + 7 - 8 + 9 - 4,8,7,9,8,2031.3750414999668,2033.399199799984,2034.9144100999688,2039.9329031999805,2040.668333599984,2040.6683396999724,2042.1847671999712,2043.2019175000023,e,8.0,0.7354304000036791,1,+10,648,44.84557932737827,3.8150223953344935,-0.6842622761385488,2029111.0,-24.572818222765456,-2.5389112972913397,-0.14019166698452912,2032645.0,,,,,2034.911393464486,2031.3773934644862,
135,28,21,F,1,3,127.0,13,3,high,8 - 1 + 6 - 7 + 5,11,12,11,13,2044.7189452999737,2046.7455561999811,2048.2604855999816,2053.2790884000133,2054.8684754999704,2054.8684809000115,2056.385062699963,2057.402658200008,w,11.0,1.5893870999570936,1,+10,658,-10.704033336529712,2.0090458212147406,0.2180316165426106,2042457.0,25.923039141187374,-0.42859207772397,0.29040643880657213,2045991.0,,,,,2048.257393464486,2044.7233934644862,
136,28,21,F,1,3,128.0,14,1,low,2 + 1 + 1 + 9 - 1,12,11,12,13,2058.9194141000044,2060.946994800004,2062.462502099981,2067.481371700007,2067.9803865999565,2067.980391799996,2069.4967875999864,2070.513518599968,w,12.0,0.4990148999495432,1,+1,659,-33.13610331877836,-0.10121599620776145,-0.04024141373152723,2056658.0,-19.25554698156033,0.10028542153231834,-0.19305196189545093,2060193.0,,,,,2062.4593934644863,2058.924393464486,
137,28,21,F,1,3,129.0,15,2,high,6 + 1 + 7 + 5 - 1,18,18,16,17,2072.0302471999894,2074.056072700012,2075.571832099988,2080.5919074999983,2081.38047569996,2081.3805160999764,2082.8968444999773,2083.9140185999568,q,18.0,0.7885681999614462,1,+10,669,7.866598061630848,0.28783023764884463,-0.14634825141769703,2069768.0,9.426185876857083,0.03185909702939416,0.6239259962291044,2073303.0,,,,,2075.569393464486,2072.034393464486,
138,28,21,F,1,3,130.0,16,3,low,3 + 1 + 8 - 5 + 9,16,15,16,17,2085.430843000009,2087.4591914999764,2088.9749127000105,2093.993129999959,2094.5804361999617,2094.580441500002,2096.0970006000134,2097.1137848999933,w,16.0,0.5873062000027858,1,+1,670,5.802408353009241,1.0689447531022962,0.18767540496785795,2083169.0,-29.233890529834653,-3.6183185863692966,-0.14935809944678424,2086705.0,,,,,2088.971393464486,2085.435393464486,
139,28,21,F,1,3,131.0,17,3,low,7 - 1 + 8 - 6 + 4,12,12,13,11,2098.630500399973,2100.653797200008,2102.1686633999925,2107.187256400008,2107.876403599977,2107.8764085999574,2109.3926845999667,2110.409470399958,q,12.0,0.6891471999697387,1,+1,671,-12.091411126365333,-6.177363461618002,1.7353353616964582,2096365.0,17.37647667493234,-0.3124035584190432,-0.899503483165061,2099899.0,,,,,2102.165393464486,2098.631393464486,
140,28,21,F,1,3,132.0,18,3,high,6 + 7 + 8 + 1 - 9,13,13,15,14,2111.927146099973,2113.949852299993,2115.465789299982,2120.484690000012,2122.0765059000114,2122.076511399995,2123.5931993999984,2124.6108976000105,q,13.0,1.5918158999993466,1,+10,681,15.594078455715472,0.2017436802361079,0.04847150498979769,2109661.0,-12.58907309474016,-0.6483980411876509,0.43201262874629065,2113196.0,,,,,2115.462393464486,2111.927393464486,
141,28,21,F,1,3,133.0,19,2,low,3 + 8 + 1 - 5 + 1,8,8,9,6,2126.127021499968,2128.154351299978,2129.669621000008,2134.6879928999697,2135.3484460999607,2135.348452500009,2136.8649672999745,2137.881938899984,q,8.0,0.660453199991025,1,+1,682,-2.0593435969671052,-0.7306325727238026,-0.16931218294987538,2123866.0,-6.430003119633074,-1.768973321632962,-0.39179050576943064,2127399.0,,,,,2129.665393464486,2126.132393464486,
142,28,21,F,1,3,134.0,20,4,high,3 + 8 - 4 + 9 + 7,23,22,24,23,2139.399036399962,2141.4269703999744,2142.9421463999897,2147.960638299992,2148.9964891999844,2148.996494899969,2150.513370600005,2151.5312195000006,e,23.0,1.035850899992511,1,+10,692,-39.83478531167928,2.9182348714391297,0.09490352077060216,2137138.0,-18.456865552082,-0.4720000512621807,0.20669626989559475,2140672.0,,,,,2142.938393464486,2139.404393464486,
143,28,21,F,1,3,135.0,21,1,high,5 + 1 + 1 + 9 + 1,17,17,19,16,2153.048081999994,2155.070659399964,2156.586044800002,2161.603586399986,2162.284545100003,2162.284550499986,2163.8008295999607,2164.8180379999685,q,17.0,0.6809587000170723,1,+10,702,-9.106798577311023,-0.08115314977189758,0.09612355489754609,2150782.0,15.160216146357719,0.4644447062083952,1.5529265886247239,2154315.0,,,,,2156.581393464486,2153.0483934644863,
144,28,21,F,1,3,136.0,22,4,low,8 + 4 + 7 - 5 - 6,8,9,6,8,2166.334982100001,2168.362044700014,2169.8773242000025,2174.9056081000017,2175.6124836999807,2175.612489699968,2177.1290023999754,2178.146135899995,w,6.0,0.7068755999789573,0,+0,702,-37.97296257976754,0.7179327702769003,0.1481830457070219,2164073.0,8.511510443894274,-1.181086024011889,-0.6828859452316078,2167617.0,,,,,2169.8833934644863,2166.339393464486,
145,28,21,F,1,3,137.0,23,1,low,5 + 6 + 1 + 1 + 1,14,14,13,16,2179.663139100012,2181.6887563999626,2183.204670400009,2188.222740600002,2189.068520299974,2189.0685256000143,2190.5849411999807,2191.601887199969,q,14.0,0.8457796999718994,1,+1,703,51.34289026418014,18.899909057667717,-0.608422349867551,2177400.0,23.989110098654447,-0.7816750155204399,-0.6292853267139864,2180934.0,,,,,2183.2003934644863,2179.666393464486,
146,28,21,F,1,3,138.0,24,4,low,7 + 8 - 4 + 6 + 5,22,21,23,22,2193.1186549999984,2195.1458901999868,2196.6607812999864,2201.6791495999787,2203.004508599988,2203.004514499975,2204.5208384,2205.5376418000087,w,23.0,1.3253590000094846,0,+0,703,9.816300012375514,0.733350732299308,-2.9506915463778522,2190857.0,30.022630905538364,-0.09221123595957526,0.6469296846841601,2194390.0,,,,,2196.656393464486,2193.123393464486,
147,28,21,F,1,3,139.0,25,4,high,2 + 9 - 4 + 8 + 7,22,22,23,21,2207.0546505000093,2209.0805733999587,2210.596064399986,2215.616187800013,2217.748579200008,2217.7485847999924,2219.2655886999564,2220.2830867999583,e,21.0,2.132391399994958,0,+0,703,2.0627804902422833,0.7757895051947328,13.359694197632209,2204791.0,-10.9655840586999,-0.7041290209976756,4.435267235032142,2208327.0,,,,,2210.5933934644863,2207.0573934644863,
148,28,21,F,1,3,140.0,26,1,low,7 + 1 + 4 + 1 - 1,12,12,11,13,2221.799583999964,2223.826495599991,2225.341666499968,2230.3602177999564,2231.252903399989,2231.252910399984,2232.7691899999627,2233.786072999996,q,12.0,0.8926856000325643,1,+1,704,-13.634226017463906,0.5008935847694138,-4.6529638690707475,2219537.0,-15.61189636179065,-0.2621474105201287,-2.509528673811465,2223071.0,,,,,2225.337393464486,2221.803393464486,
149,28,21,F,1,3,141.0,27,4,high,8 + 3 - 4 + 5 + 9,21,23,22,21,2235.3028159000096,2237.327664499986,2238.8430339999613,2243.862284999981,2247.844492400007,2247.8444978999905,2249.3611641000025,2250.3783523999737,e,21.0,3.9822074000258,1,+10,714,6.169498925974576,-0.07709266335696174,1.0445996853601809,2233039.0,-15.642580309391121,0.10109820010068171,0.35331958616521497,2236573.0,,,,,2238.839393464486,2235.3053934644863,
150,28,21,F,1,3,142.0,28,3,high,9 - 1 + 5 - 6 + 8,15,17,14,15,2251.8951124000014,2253.9186584000126,2255.434438599972,2260.452655499976,2263.068521699985,2263.0685269999667,2264.584936600004,2265.6021358,e,15.0,2.6158662000088952,1,+10,724,13.977092236463822,1.2160361679795013,-0.15345160598342944,2249629.0,11.09262735566407,-0.4827134989250368,0.12413863546425885,2253163.0,,,,,2255.429393464486,2251.895393464486,
151,28,21,F,1,3,143.0,29,2,low,5 - 1 + 1 + 8 + 9,22,23,22,21,2267.1187195999664,2269.14195879997,2270.6573221000144,2275.6754441999947,2277.612538299989,2277.612543699972,2279.129096699995,2280.1460137999966,w,22.0,1.9370940999942832,1,+1,725,14.067959058673647,0.12985345576426832,0.06591416531684446,2264853.0,36.612705947841974,0.1639288395425207,0.0457997388638649,2268386.0,,,,,2270.652393464486,2267.119393464486,
152,28,21,F,1,3,144.0,30,3,high,8 + 5 + 1 - 7 + 9,16,16,17,14,2281.6628576999647,2283.692128199968,2285.2075129000004,2290.22587819997,2293.3406567999627,2293.3406631000107,2294.8573041000054,2295.8750275999773,q,16.0,3.11477859999286,1,+10,735,1.9204053899101314,0.7013201495278008,-0.017986738467397956,2279402.0,-23.586046962604378,-0.9436262796528347,0.22533839207303208,2282936.0,,,,,2285.2023934644862,2281.668393464486,
153,28,21,F,1,3,145.0,31,2,high,8 + 1 + 9 + 1 - 4,15,14,15,16,2297.392099799996,2299.4195166999707,2300.934756500006,2305.9529373999685,2306.484546999971,2306.4845522000105,2308.001016199996,2309.0181877999566,w,15.0,0.5316096000024118,1,+10,745,-31.948890054443776,-0.724270950009914,0.4384541062225855,2295130.0,6.004094754617952,0.9943231876274989,-1.9389010776522868,2298663.0,,,,,2300.929393464486,2297.396393464486,
154,28,21,F,1,3,146.0,32,4,low,8 + 4 + 7 - 5 - 6,8,8,9,7,2310.5351098999963,2312.5586644999566,2314.0739182999823,2319.092636199959,2322.9166577999717,2322.916664499964,2324.433156599989,2325.450330499967,e,7.0,3.824021600012202,0,+0,745,4.821187372807827,0.33054056574268476,-6.7267779757972,2308269.0,-1.3772502432535134,-0.9719797774133538,-0.01934526083289967,2311803.0,,,,,2314.069393464486,2310.535393464486,
155,28,21,F,1,3,147.0,33,4,low,5 + 7 - 4 + 6 + 9,23,23,24,25,2326.96706429997,2328.99130970001,2330.506951199961,2335.524998999957,2336.2366387000075,2336.236643799988,2337.753293499991,2338.7714912999654,w,24.0,0.7116397000500001,0,+0,745,-1.2927293745188546,-0.7106626146818291,-0.23275584922591497,2324702.0,-4.355156677293461,0.2604337500376124,1.2710274099906105,2328236.0,,,,,2330.502393464486,2326.9683934644863,
156,28,21,F,1,3,148.0,34,1,high,2 + 1 + 9 + 1 + 1,14,13,14,12,2340.288191600004,2342.314782499976,2343.8299010999617,2348.8477366999723,2349.3166391999694,2349.3166445000097,2350.833148400008,2351.8504203999764,w,14.0,0.468902499997057,1,+10,755,17.85809893730606,0.5792209550781928,0.2142650198586109,2338025.0,11.446517921137605,0.39399198820564685,-0.041736181145006324,2341558.0,,,,,2343.824393464486,2340.291393464486,
157,28,21,F,1,3,149.0,35,2,low,5 - 8 + 7 + 1 + 1,6,6,7,8,2353.367037899967,2355.393601399963,2356.908566700004,2361.928547599993,2362.76462729997,2362.7646329000127,2364.281154999975,2365.297975900001,q,6.0,0.8360796999768354,1,+1,756,-0.47626352490724955,-1.321101642149955,-3.0609056022537215,2351104.0,5.832313068987373,-3.0495834651477356,-1.0523690771971648,2354639.0,,,,,2356.905393464486,2353.370393464486,
158,28,21,F,1,3,150.0,36,1,low,9 + 7 + 1 + 1 + 1,19,18,20,19,2366.8156286999583,2368.843345400004,2370.3585234999773,2375.376719199994,2376.2687104999786,2376.2687159999623,2377.785315699992,2378.802844699996,e,19.0,0.891991299984511,1,+1,757,-5.580510733736951,-0.514478735738991,0.07215755895148179,2364553.0,-15.9643230124925,-0.022242745660699725,0.2859575881643748,2368087.0,,,,,2370.353393464486,2366.819393464486,
159,28,21,F,1,3,151.0,37,4,low,2 + 9 - 3 + 5 + 8,21,23,22,21,2380.319869400002,2382.3449878999963,2383.860596399987,2388.8794952000026,2390.436682700005,2390.4366889999947,2391.9531963999616,2392.9699002999696,e,21.0,1.5571875000023283,1,+1,758,3.1878306495460755,0.6110955570507572,3.5194353697185674,2378055.0,17.052703199359087,0.35991701621449135,-11.751818879231397,2381590.0,,,,,2383.8563934644862,2380.321393464486,
160,28,21,F,1,4,152.0,0,2,low,4 + 8 + 1 + 1 - 5,9,8,9,11,2398.432050800009,2400.4583625000087,2401.973523999972,2406.9915675999946,2407.6287591999862,2407.628764599969,2409.145316999988,2410.1621648999862,w,9.0,0.6371915999916382,1,+1,759,-3.7647537972674883,1.171605299577494,5.977022529047765,2396168.0,28.458184562768896,0.5850689273347962,-0.7747724014063602,2399702.0,,,,,2401.9683934644863,2398.434393464486,
161,28,21,F,1,4,153.0,1,1,high,5 + 9 - 1 + 1 + 1,15,17,15,13,2411.678534700012,2413.7042029000004,2415.2193996999995,2420.237991300004,2421.1087635000004,2421.108768999984,2422.625413800008,2423.642985399987,w,15.0,0.8707721999962814,1,+10,769,17.765323995969226,0.9369648336891201,-0.18898917869038723,2409414.0,-1.2300861294866223,-0.45773518601997676,0.5095531608532538,2412947.0,,,,,2415.213393464486,2411.6803934644863,
162,28,21,F,1,4,154.0,2,3,low,7 - 5 + 9 + 1 - 4,8,7,9,8,2425.160862699966,2427.185513200005,2428.7005992999766,2433.720433899958,2434.4046584999887,2434.404663799971,2435.921134000004,2436.938100199972,e,8.0,0.684224600030575,1,+1,770,6.673209962352315,0.1764324993556663,2.5549787040156096,2422895.0,-16.637938153577313,0.353772524928047,5.376767026705304,2426430.0,,,,,2428.696393464486,2425.161393464486,
163,28,21,F,1,4,155.0,3,4,high,4 + 7 - 8 + 9 - 3,9,9,8,11,2438.455432399991,2440.4824474999914,2441.9983962000115,2447.016743599961,2447.740959399962,2447.740964800003,2449.2575459000072,2450.2748564999783,q,9.0,0.7242158000008203,1,+10,780,3.7823487017818618,-4.010391398252451,-3.1739044614439917,2436192.0,9.803244656171689,0.28660010007092795,-4.7635073386723565,2439727.0,,,,,2441.993393464486,2438.458393464486,
164,28,21,F,1,4,156.0,4,4,high,5 + 8 - 6 + 7 + 4,18,17,18,19,2451.791294399998,2453.8183339000097,2455.33355380001,2460.352468499972,2461.076832599996,2461.07683809998,2462.593361200008,2463.610459699994,w,18.0,0.7243641000241041,1,+10,790,-9.099727949041188,1.527790970665599,6.016708297205507,2449528.0,-3.203653679388916,-0.21078948882488557,-1.5941073298375406,2453062.0,,,,,2455.328393464486,2451.794393464486,
165,28,21,F,1,4,157.0,5,1,high,3 + 1 + 1 + 9 - 1,13,13,14,12,2465.127922000014,2467.1546750999987,2468.669655399979,2473.68793049996,2474.484739799984,2474.484745099966,2476.001361100003,2477.018646200013,q,13.0,0.7968093000235967,1,+10,800,29.37540803803794,8.05379826924349,0.867087748446306,2462864.0,12.32527063534231,-1.5406727687887471,0.15017359950499576,2466398.0,,,,,2468.6643934644862,2465.130393464486,
166,28,21,F,1,4,158.0,6,2,low,2 + 1 + 9 - 4 + 1,9,8,11,9,2478.5359126999974,2480.5638740999857,2482.07888549997,2487.096842399973,2487.9886998999864,2487.9887056999723,2489.5051923999563,2490.522367700003,e,9.0,0.8918575000134297,1,+1,801,19.04976122304701,-0.694446993418036,-0.05346002636748959,2476273.0,-5.7377676228822665,0.6420382546541248,0.16758399993816497,2479806.0,,,,,2482.072393464486,2478.5393934644862,
167,28,21,F,1,4,159.0,7,2,low,6 + 8 + 1 + 1 - 7,9,11,8,9,2492.0395048999926,2494.062439000001,2495.5776161999675,2500.5968017000123,2501.220819699985,2501.22082539997,2502.7369731999934,2503.7538510999875,e,9.0,0.6240179999731481,1,+1,802,-34.07740524581469,0.29298018520772384,-0.15160497435927311,2489772.0,7.07973826885897,-0.2030155329558312,-0.030963894764788114,2493306.0,,,,,2495.572393464486,2492.038393464486,
168,28,21,F,1,4,160.0,8,3,high,8 - 7 + 9 + 1 + 4,15,16,14,15,2505.2708621000056,2507.2948800000013,2508.809941399959,2513.8279967000126,2514.420763399976,2514.420769199962,2515.937485900009,2516.954651999986,e,15.0,0.5927666999632493,1,+10,812,14.032972395238051,-0.9422435990807232,0.4327462234530519,2503004.0,-41.36714970959577,0.4186996463461119,0.1475906717432065,2506538.0,,,,,2508.804393464486,2505.270393464486,
169,28,21,F,1,4,161.0,9,3,high,3 + 8 + 1 + 5 - 9,8,9,8,7,2518.4718508999795,2520.49837679998,2522.013568399998,2527.0316248000017,2530.716761699994,2530.716766999976,2532.233267200005,2533.25038089999,q,9.0,3.685136899992358,0,+0,812,26.297571849838896,0.20996591684600308,0.11905604314567952,2516208.0,2.022483806711734,0.23730309187549015,0.060625667584122134,2519741.0,,,,,2522.007393464486,2518.474393464486,
170,28,21,F,1,4,162.0,10,2,high,5 + 1 + 7 - 6 + 1,8,7,6,8,2534.767035799974,2536.792772899964,2538.3080412999843,2543.328190799977,2544.0048629000084,2544.0048685999936,2545.5214065999608,2546.538710599998,e,8.0,0.6766721000312828,1,+10,822,1.5662579706199855,1.2427148033766184,-0.10668012870142896,2532502.0,27.21996194126161,1.0045182877540775,-0.4638043255186135,2536038.0,,,,,2538.304393464486,2534.768393464486,
171,28,21,F,1,4,163.0,11,3,high,2 + 1 + 9 - 5 + 6,13,11,14,13,2548.05536519998,2550.0833517999854,2551.5994724999764,2556.617589899979,2557.260788299958,2557.2607938,2558.777818900009,2559.7952732999693,e,13.0,0.6431983999791555,1,+10,832,-7.851266409341541,1.627027783600922,5.788327721828388,2545792.0,5.71770122073724,-0.9350696484299625,-0.9987154849807673,2549327.0,,,,,2551.5933934644863,2548.058393464486,
172,28,21,F,1,4,164.0,12,1,low,4 + 9 + 1 - 1 - 1,12,12,13,11,2561.3122998999897,2563.3373191999854,2564.85254230001,2569.871852400014,2570.6688798000105,2570.6688855999964,2572.1853309000144,2573.201891299977,q,12.0,0.7970273999962956,1,+1,833,1.1822220290708412,-1.1384421523572854,-0.9831383313618005,2559046.0,-7.688084124462151,0.13048090407716106,3.543605605145562,2562581.0,,,,,2564.8473934644862,2561.312393464486,
173,28,21,F,1,4,165.0,13,1,low,9 + 1 + 1 + 7 - 1,17,16,19,17,2574.718625199981,2576.7432756999624,2578.258526599966,2583.2766887999605,2583.8528718999587,2583.852877700003,2585.369564599998,2586.386441299983,e,17.0,0.5761830999981612,1,+1,834,32.179619253586765,-0.320634520594405,1.3129737463993352,2572452.0,-65.48756749595029,0.47254827053725634,-9.520539977735815,2575986.0,,,,,2578.252393464486,2574.7183934644863,
174,28,21,F,1,4,166.0,14,2,low,4 + 9 - 7 + 1 - 1,6,5,6,8,2587.90307890001,2589.9315454000025,2591.4465953999897,2596.465236999968,2598.932954399963,2598.9329600000056,2600.4497341999668,2601.4668811999727,q,5.0,2.4677173999953084,0,+0,834,13.583358453075846,0.20078055308263387,-0.7216210855925711,2585641.0,30.5791249585231,0.486289056735254,1.1545873854533637,2589174.0,,,,,2591.440393464486,2587.907393464486,
175,28,21,F,1,4,167.0,15,4,low,8 + 7 - 4 + 5 + 9,25,26,24,25,2602.983870099997,2605.011712000007,2606.526803899964,2611.545662599965,2612.2128745999653,2612.212880100007,2613.7292128999834,2614.7458009999827,e,25.0,0.6672120000002906,1,+1,835,18.19971819898287,0.37324203748633655,-0.2941622317951258,2600721.0,-0.6680247895754063,0.03925267723178427,0.2746499004820582,2604255.0,,,,,2606.521393464486,2602.987393464486,
176,28,21,F,1,4,168.0,16,2,high,5 + 7 - 8 + 1 + 1,6,8,7,6,2616.2624966999865,2618.287570999993,2619.802734899975,2624.8209115999634,2625.420824599976,2625.4208298999583,2626.9368776999763,2627.953301200003,e,6.0,0.5999130000127479,1,+10,845,-9.296194827143866,0.7714825522426678,0.5431339652220455,2613997.0,9.378200714536597,-1.086825723714965,0.06090345208718584,2617530.0,,,,,2619.7963934644863,2616.263393464486,
177,28,21,F,1,4,169.0,17,2,low,8 + 1 + 1 + 9 - 4,15,15,14,16,2629.4699969000067,2631.4956191999954,2633.010758099961,2638.0286968,2638.620976199978,2638.62098149996,2640.1374739999883,2641.1543128999765,q,15.0,0.592279399977997,1,+1,846,-13.528422205877755,-0.14280366942767397,2.2352262204648685,2627204.0,40.170459419261334,0.9787980279583026,4.294611664459398,2630738.0,,,,,2633.004393464486,2629.4703934644863,
178,28,21,F,1,4,170.0,18,4,low,2 + 9 - 6 + 8 - 4,9,11,9,7,2642.670904300001,2644.698345599987,2646.2140965000144,2651.232403400005,2651.924944599974,2651.924949999957,2653.4416717999848,2654.458332899958,w,9.0,0.6925411999691278,1,+1,847,-6.766890384627886,0.5440808824590491,0.15627702504678775,2640407.0,-34.384540952821666,0.3356219897226964,-2.296409573762028,2643941.0,,,,,2646.207393464486,2642.6733934644863,
179,28,21,F,1,4,171.0,19,2,high,7 + 5 + 1 + 9 + 1,23,23,22,21,2655.9750816999585,2657.9996120999567,2659.5145367999794,2664.532019299979,2665.692976099963,2665.6929812000017,2667.2096695000077,2668.227054599964,q,23.0,1.1609567999839785,1,+10,857,2.2222528149835297,-1.1763934775408291,-0.3979547779548471,2653707.0,-88.97503623046222,0.032642320277479264,0.4974645634939385,2657241.0,,,,,2659.507393464486,2655.973393464486,
180,28,21,F,1,4,172.0,20,2,low,3 + 8 - 5 + 1 + 1,8,6,8,9,2669.744111799984,2671.771022300003,2673.2869513999904,2678.305748399988,2679.572984499973,2679.572990599961,2681.0893967999727,2682.1062572000083,w,8.0,1.2672360999858938,1,+1,858,-4.467544002519617,0.12339839399808561,-0.18208381194496104,2667479.0,-40.67805232131718,-0.22433496226205873,0.2947901182829593,2671014.0,,,,,2673.280393464486,2669.745393464486,
181,28,21,F,1,4,173.0,21,3,low,3 - 7 + 5 + 1 + 9,11,12,13,11,2683.622980999993,2685.6487125999997,2687.16393889999,2692.1838049999787,2692.7249159999774,2692.7249212999595,2694.241269099992,2695.2585946999607,e,11.0,0.5411109999986365,1,+1,859,-40.82860396361722,-0.4247541575295557,-0.180245357448086,2681357.0,20.773951505422993,0.26828384133445526,-1.8396599450367042,2684892.0,,,,,2687.158393464486,2683.623393464486,
182,28,21,F,1,4,174.0,22,1,high,3 + 1 + 1 + 8 - 1,12,12,14,13,2696.775267299963,2698.797476399981,2700.3127483999706,2705.331287399982,2706.501003999961,2706.501010100008,2708.017463099968,2709.0353298999835,q,12.0,1.169716599979438,1,+10,869,7.939898390570142,-0.49196111669321674,-0.4783217807966671,2694506.0,-18.63012530769386,0.007787094322555532,8.345477741452935,2698039.0,,,,,2700.3053934644863,2696.772393464486,
183,28,21,F,1,4,175.0,23,2,high,7 + 6 + 1 + 8 + 1,23,22,21,23,2710.5520254999865,2712.574907000002,2714.090238499979,2719.1088934,2720.349021399976,2720.3490268999594,2721.865527099988,2722.882791300013,e,23.0,1.2401279999758117,1,+10,879,-2.1986654964061785,-0.6148339041247999,0.5221484081875352,2708283.0,-18.72893154948497,0.3507732547222844,0.8984828646003569,2711817.0,,,,,2714.083393464486,2710.549393464486,
184,28,21,F,1,4,176.0,24,1,low,7 - 1 + 8 + 1 - 1,14,12,13,14,2724.399326399958,2726.425501699967,2727.9406874999986,2732.958818999992,2734.3809099000064,2734.380915899994,2735.8976691999706,2736.914518299978,e,14.0,1.4220909000141546,1,+1,880,15.90239616639909,-0.5299741976952852,0.6954623966182991,2722134.0,5.156478692151012,0.07160989557277109,0.26712520195902245,2725667.0,,,,,2727.933393464486,2724.400393464486,
185,28,21,F,1,4,177.0,25,2,high,4 + 7 + 1 + 1 - 8,5,7,5,4,2738.4311931999982,2740.45826699998,2741.973318399978,2746.991694699973,2748.140908600006,2748.140914399992,2749.657508299977,2750.67468940001,w,5.0,1.149213900032919,1,+10,890,-3.2911965594379513,0.29280619039042577,0.10862954607284636,2736167.0,-22.700247231746925,1.2874527278135002,-0.026592592255411107,2739700.0,,,,,2741.966393464486,2738.433393464486,
186,28,21,F,1,4,178.0,26,1,low,5 + 8 - 1 + 1 + 1,14,14,12,16,2752.1913428999837,2754.217178099964,2755.7324693999835,2760.750483200012,2763.8210263999645,2763.82103240001,2765.3376448999625,2766.354331300012,q,14.0,3.070543199952226,1,+1,891,5.695939507363159,-0.39810685893529163,-0.7592091661791991,2749925.0,-14.12785140571738,0.6430864166531167,-0.5646549073300862,2753459.0,,,,,2755.725393464486,2752.1913934644863,
187,28,21,F,1,4,179.0,27,2,low,9 + 1 + 6 + 7 + 1,24,23,25,24,2767.871015599987,2769.898324899957,2771.413596300001,2776.4321221999708,2778.685058299976,2778.685064099962,2780.2016155999736,2781.2185168999717,e,24.0,2.252936100005172,1,+1,892,-12.502876909091826,-0.3585457469816338,-0.3199517496722386,2765606.0,19.09903210242151,0.5326581989266206,1.1663033928040192,2769140.0,,,,,2771.406393464486,2767.8723934644863,
188,28,21,F,1,4,180.0,28,1,low,6 + 9 + 1 + 1 - 1,16,14,16,15,2782.735313699988,2784.7617578000063,2786.2770510999835,2791.295769599965,2792.3650319000008,2792.3650376999867,2793.881452300004,2794.898135299969,w,16.0,1.0692623000359165,1,+1,893,-5.332932874965206,-0.9761775324074371,-0.15241536582980575,2780469.0,-8.674565528688339,0.5354477380346419,0.21278263293827782,2784004.0,,,,,2786.270393464486,2782.735393464486,
189,28,21,F,1,4,181.0,29,4,high,8 + 5 - 4 + 7 + 9,25,26,25,24,2796.4149014999857,2798.441134499968,2799.9561366999988,2804.975302000006,2806.117077399977,2806.1170832999637,2807.6336314000077,2808.6509100999683,w,25.0,1.1417753999703564,1,+10,903,13.187331460958548,-7.292650073685422,1.2155910061981783,2794149.0,-4.759172440868607,-0.18617763266761544,-1.3649416190981478,2797683.0,,,,,2799.949393464486,2796.415393464486,
190,28,21,F,1,4,182.0,30,3,low,7 + 1 + 9 + 5 - 6,16,15,16,14,2810.167369999981,2812.1920051999623,2813.707702899992,2818.726206099964,2823.4130329999607,2823.4130389000056,2824.929606799968,2825.9464570999844,w,16.0,4.686826899996959,1,+1,904,6.357289140550812,0.47498967637663014,0.8852816081150312,2807900.0,11.25248938340477,-0.40052816522107726,7.851595165438633,2811434.0,,,,,2813.7003934644863,2810.166393464486,
191,28,21,F,1,4,183.0,31,1,high,7 + 1 + 5 + 1 - 1,13,14,13,12,2827.463213299983,2829.488403399999,2831.003622999997,2836.023875000013,2836.5092823999585,2836.509288200002,2838.025639300002,2839.0430876999744,w,13.0,0.485407399944961,1,+10,914,-25.62875319261839,-4.898398761418994,-2.4903952926237967,2825196.0,-24.724361527088952,-0.3058083545001544,1.9798892382272513,2828732.0,,,,,2830.998393464486,2827.462393464486,
192,28,21,F,1,4,184.0,32,2,high,9 + 6 + 1 + 7 + 1,24,25,24,23,2840.559724499996,2842.587458199996,2844.102643499966,2849.1217453000136,2852.221008999972,2852.221014699957,2853.7376274999697,2854.755067399994,w,24.0,3.099263699958101,1,+10,924,-7.572670231173962,0.37672418893497017,0.1036219884487044,2838295.0,-22.371937550834843,0.9698468434836491,2.3270729094509623,2841829.0,,,,,2844.0953934644863,2840.561393464486,
193,28,21,F,1,4,185.0,33,1,low,7 + 1 + 4 + 1 - 1,12,14,13,12,2856.272179099964,2858.298681599961,2859.813707399997,2864.8343455999857,2865.621119799965,2865.6211253000074,2867.1374141999986,2868.1543697000016,e,12.0,0.7867741999798454,1,+1,925,4.9114560509706795,0.8015028035188325,-0.12664107276949288,2854006.0,-2.2702580463028923,0.5897429726414813,0.027065489786842534,2857541.0,,,,,2859.8073934644863,2856.272393464486,
194,28,21,F,1,4,186.0,34,4,low,4 + 7 + 9 - 5 + 7,22,24,22,23,2869.6711303999764,2871.699272800004,2873.214487299964,2878.233139699965,2882.2530858999817,2882.2530912999646,2883.7695789000136,2884.7865053999703,w,22.0,4.01994620001642,1,+1,926,-3.874655149405191,-9.10444283596803,0.2573716124059744,2867407.0,19.71960616674034,0.31895114394294133,0.15121508757176305,2870941.0,,,,,2873.207393464486,2869.6733934644863,
195,28,21,F,1,4,187.0,35,2,low,8 + 1 + 9 + 1 - 5,14,14,13,15,2886.303216899978,2888.329504299967,2889.844817999983,2894.8626462999964,2897.557062399981,2897.5570678999647,2899.0735692000017,2900.090344799973,q,14.0,2.6944160999846645,1,+1,927,-28.524441289406127,0.2870764555951357,-50.823520472854774,2884037.0,0.6094098833421882,0.3071179505235566,0.14739603544765068,2887570.0,,,,,2889.8363934644863,2886.303393464486,
196,28,21,F,1,4,188.0,36,4,high,6 + 7 + 9 - 3 + 5,24,24,23,22,2901.607305899961,2903.633942799992,2905.149077399983,2910.167783899989,2912.509182400012,2912.509188099997,2914.0258184999693,2915.043264799984,e,22.0,2.3413985000224784,0,+0,927,-42.087393513484,0.8647484574075341,6.589886555927343,2899341.0,1.8897659967269291,0.12755979495763992,-0.4150226471903413,2902875.0,,,,,2905.141393464486,2901.607393464486,
197,28,21,F,1,4,189.0,37,4,low,5 + 7 - 4 + 8 + 6,22,23,22,24,2916.559968099988,2918.586162499967,2920.101072199992,2925.1193627999746,2927.5170998999965,2927.517105499981,2929.0337246999843,2930.050697400002,w,22.0,2.3977371000219136,1,+1,928,26.534810633832738,-0.09328871266524352,3.3724295080094997,2914293.0,23.03720420937533,0.33551252801340015,0.16889604823775128,2917827.0,,,,,2920.0933934644863,2916.559393464486,
198,28,21,F,1,5,190.0,0,2,low,4 + 9 - 7 + 1 - 1,6,6,8,5,2941.106403200014,2943.132945099962,2944.648233999964,2949.6684259999893,2950.3171836999827,2950.317188999965,2951.833803099988,2952.8507054999936,q,6.0,0.648757699993439,1,+1,929,-12.715100354582779,11.008990025692924,5.096804038884626,2938841.0,-2.446616762862682,-0.19729950304811927,-0.43421163082721526,2942376.0,,,,,2944.6423934644863,2941.107393464486,
199,28,21,F,1,5,191.0,1,1,low,7 - 1 + 1 + 9 - 1,15,15,13,14,2954.367502000008,2956.394511199964,2957.9094756999984,2962.928203299991,2964.885120399995,2964.8851261999807,2966.4015790999983,2967.4188106000074,e,14.0,1.9569171000039205,0,+0,929,-30.16753367230164,-2.156129499752143,0.16550791459405767,2952102.0,5.248258484367008,2.383501715649026,0.357355877756365,2955635.0,,,,,2957.9013934644863,2954.368393464486,
