,id,age,sex,cued,block,trial,trialinblock,efflev,rewlev,calc,corAns,option1,option2,option3,tstart,ITI1Time,probTime,respTime,selectTime,ITI2Time,fbTime,ITI3Time,key_press,chosenAns,RT,acc,feedback,total_points,cuescr,cuecor,cuezyg,cuetime,probscr,probcor,probzyg,probtime,fbscr,fbcor,fbzyg,fbtime,probtime_c,cuetime_c,fbtime_c
0,29,19,M,0,Practice,,0,1,0,4 + 1 + 9 + 1 + 1,16,15,14,16,72.3897284999839,,72.3897311000037,77.4176750999759,80.8092459999607,80.80925230000867,82.32652169995708,83.34717099997215,e,16,3.3915708999847998,1,Correct,0,,,,,-0.8466755521488558,0.10581643540045782,0.26274863503785806,55559.0,2.779548173274115,-0.1666386283602348,-0.715270992314263,65488.0,72.40820230498267,,82.33720230498267
1,29,19,M,0,Practice,,1,1,0,3 + 1 + 1 + 8 - 1,12,12,11,10,84.8640449999948,,84.8640480999602,89.8849870999693,91.34528909996152,91.34529530000871,92.86211270000786,93.8795540999854,q,12,1.460301999992225,1,Correct,0,,,,,24.90303154637423,0.04695469830562171,-0.015763422270522298,68026.0,26.915987803250033,0.028263410367817876,-0.18463948226759808,76020.0,84.87520230498266,,92.86920230498266
2,29,19,M,0,Practice,,2,2,0,8 + 1 + 6 + 1 - 4,12,12,10,11,95.39717730000848,,95.39718969998648,100.41676120000191,101.433074200002,101.433080399991,102.94980679999571,103.9681372999912,q,12,1.016313000000082,1,Correct,0,,,,,-41.52643943424781,0.010558936692324439,-0.16340585254883733,78557.0,-14.122334111430861,0.08806727462404362,2.064275645829091,86109.0,95.40620230498267,,102.95820230498266
3,29,19,M,0,Practice,,3,2,0,9 + 4 - 6 + 1 - 1,7,5,7,6,105.48589339997852,,105.48589650000211,110.50589589995798,111.90534779999872,111.90535419998923,113.42197530000703,114.43887319997884,w,7,1.3994519000407308,1,Correct,0,,,,,-54.30759826687179,0.1425556074660157,0.3064688568976246,88646.0,-24.291931302745994,-0.012433702822431947,0.3299761063741804,96580.0,105.49520230498267,,113.42920230498267
4,29,19,M,0,Practice,,4,3,0,9 + 3 - 5 + 6 + 7,20,20,21,22,115.95565650000935,,115.955659499974,120.97490520001156,122.10528719995636,122.1052936000051,123.62193829996976,124.63885129999836,q,20,1.1303819999448024,1,Correct,0,,,,,-27.70976290730915,0.17812440904256532,0.23793011070682635,99115.0,6.354976887064776,0.11830188765172167,-0.18230538536961038,106780.0,115.96420230498266,,123.62920230498267
5,29,19,M,0,Practice,,5,3,0,2 + 1 + 9 - 7 + 6,11,11,10,9,126.15567429998192,,126.15567730000475,131.17500759998802,132.1692150000017,132.16922209999757,133.6852222000016,134.70336499996483,q,11,0.9942074000136928,1,Correct,0,,,,,-24.4831869525538,-0.03516571026400972,-0.023233461067797556,109315.0,-22.190929449224704,0.05819290765442564,0.07117914845208384,116844.0,126.16420230498267,,133.69320230498266
6,29,19,M,0,Practice,,6,4,0,4 + 8 + 5 - 3 + 7,21,21,22,23,136.22040569997623,,136.2204086999991,141.24113749997923,143.3693180999835,143.3693242999725,144.8862871999736,145.9044109999668,q,21,2.1281806000042707,1,Correct,0,,,,,5.444606107828177,0.2428113464287538,-0.2783491694720217,119381.0,-27.7556205725336,0.18329293961120596,0.16255671340315425,128045.0,136.23020230498267,,144.89420230498266
7,29,19,M,0,Practice,,7,4,0,5 + 8 - 4 + 6 + 9,24,23,24,22,147.42120549996616,,147.42120839998825,152.44095249997918,153.57732949999627,153.57733629998984,155.09431259997655,156.1125943000079,w,24,1.1363770000170916,1,Correct,0,,,,,30.456339028064093,0.22726304318334956,0.1751559967934928,130582.0,-1.614393568246097,-0.09088075583498423,-0.33827771423613884,138253.0,147.43120230498266,,155.10220230498265
8,29,19,M,1,0,0.0,0,4,low,3 + 8 - 7 + 9 - 5,8,9,7,8,289.35903489997145,291.3862526000012,292.9017543999944,297.92067799996585,301.2549810999772,301.254986099957,302.77151789999334,303.78884479997214,w,7,3.3343031000113115,0,+0,0,4.955194378222833,-0.2183867969953348,0.5327039641494569,272526.0,-20.02141367380542,0.07636237491989695,-0.1816166034640414,276060.0,16.493009804107846,-0.9304493048616518,0.3638731264601023,329016.0,292.90920230498267,289.3752023049827,345.8652023049827
9,29,19,M,1,0,1.0,1,2,high,3 + 9 - 1 - 5 + 1,7,6,5,7,305.30612639995525,307.33117269998183,308.8463794999989,313.864502499986,314.97510519996285,314.97511040000245,316.4920599999605,317.509176499967,e,7,1.11060269997688,1,+10,10,-4.405276655302465,-0.23197260468531367,-0.21269480920050654,288471.0,-3.7613771546759427,0.12094472311632565,-0.27511210993587154,292004.0,4.215167016168985,0.1154002470014377,-2.33771841965566,299649.0,308.8532023049827,305.3202023049827,316.49820230498267
10,29,19,M,1,0,2.0,2,1,low,2 + 1 + 9 + 1 - 1,12,13,12,11,319.02613559999736,321.053114899958,322.5694191000075,327.58755359996576,330.5670610999805,330.567067499971,332.08378399995854,333.10055279999506,e,11,2.979507500014733,0,+0,10,32.5519031207655,0.29754180502841976,-0.15720120604955445,302192.0,-22.463225518982732,0.09537823157289838,-0.5611958659766603,305727.0,-4.512418072828433,0.5793095949924254,-0.17008268625147505,356528.0,322.57620230498264,319.0412023049827,373.3772023049827
11,29,19,M,1,0,3.0,3,4,low,3 + 9 - 5 + 8 - 7,8,9,8,7,334.61797209997894,336.64353860000847,338.1588376999716,343.17752570001176,344.34306529996684,344.343070700008,345.8598028999986,346.8767190999933,w,8,1.165539599955082,1,+1,11,19.46560311976532,-0.07046999607658044,-0.05447466957194802,317783.0,54.502437709756556,-0.01858066248914314,-0.04208775795828501,321317.0,1.4186211707781373,0.0394028310032839,-0.022167698986344853,493335.0,338.1662023049827,334.6322023049827,510.18420230498265
12,29,19,M,1,0,4.0,4,2,high,5 + 1 + 7 - 6 + 1,8,7,6,8,348.39358370000264,350.4181324999663,351.9335664999671,356.95266119996086,358.07130999997025,358.0713154000114,359.5873635999742,360.6047280000057,e,8,1.118648800009396,1,+10,21,19.841544598639153,0.48908660302382545,-0.08520181066462618,331556.0,7.244655865708175,-0.13021304760840513,0.07502312400250144,335092.0,3.44048007459923,-0.2793474676082983,0.0993014164604813,342744.0,351.94120230498265,348.40520230498265,359.5932023049827
13,29,19,M,1,0,5.0,5,1,high,3 + 1 + 1 + 8 - 1,12,14,13,12,362.1215751999989,364.1482878999668,365.6635802999954,370.6818745000055,371.8550033000065,371.8550083999871,373.3714849000098,374.38875320000807,e,12,1.1731288000009954,1,+10,31,1.569236622721001,-0.25745514570585204,0.1309341119917784,345288.0,22.908007063411926,-0.038387679172982025,0.029680858606093707,348821.0,-3.0894253956381252,-0.14827551954799034,0.007628832422490461,424776.0,365.6702023049827,362.1372023049827,441.6252023049827
14,29,19,M,1,0,6.0,6,2,low,7 + 6 + 1 - 1 - 8,5,4,3,5,375.9064983999706,377.9311015999992,379.4463004999561,384.4659864999703,385.5116119000013,385.5116174999857,387.0284786999691,388.0447107999935,e,5,1.0456254000309857,1,+1,32,-9.351979163512752,0.10638096565626043,0.05193245318085582,359070.0,-3.7486852903489822,0.21759122729839753,-0.18270315258091463,362605.0,-12.059881429820914,-0.21616717798157614,-0.41722764097405163,370184.0,379.4542023049827,375.91920230498266,387.0332023049827
15,29,19,M,1,0,7.0,7,2,high,5 - 8 + 7 + 1 + 1,6,6,7,8,389.5616874999832,391.587640599988,393.10283889999846,398.1219397999812,399.09508249996,399.0950876999996,400.6116386000067,401.6287309999461,q,6,0.97314269997878,1,+10,42,1.2520377975508588,0.2520815439837225,0.15056675855715795,372726.0,4.488515763030262,0.1819518781081806,-0.027976061753335557,376261.0,17.982806321148434,0.010404239161335482,-0.15414910359709788,383768.0,393.1102023049827,389.57520230498267,400.61720230498264
16,29,19,M,1,0,8.0,8,2,low,4 + 9 - 7 + 1 - 1,6,6,8,5,403.1454600999714,405.1724453999777,406.6877787999693,411.706499300024,412.7270290000015,412.7270339000388,414.2445354000083,415.2613623999641,q,6,1.020529699977487,1,+1,43,12.193975354638841,-0.41177294219822747,0.1536721298766186,386311.0,-7.268025153918636,-0.01770726226604946,-0.012243467145961251,389845.0,-21.50938320618409,-0.07525409301548391,-0.1044441580214146,397400.0,406.6942023049827,403.16020230498265,414.24920230498265
17,29,19,M,1,0,9.0,9,3,low,2 + 1 + 9 - 5 + 6,13,14,11,13,416.77855029999046,418.8053383000079,420.3206185999443,425.3384776999592,426.4150752999704,426.4150803000084,427.931776500016,428.9486844000057,e,13,1.076597600011155,1,+1,44,-24.438101364714,-0.24636298170106974,0.020947160126897124,399944.0,25.816212937846984,-0.14043256556365646,0.07058639245311049,403478.0,24.851717457298165,0.09507625278204523,-0.16291407252022383,411087.0,420.3272023049827,416.7932023049827,427.93620230498266
18,29,19,M,1,0,10.0,10,1,high,8 + 1 + 4 + 1 + 1,15,16,14,15,430.4654475999414,432.48971579998033,434.0053065999528,439.02358620002633,440.1032198999892,440.103225000028,441.6198301999248,442.6370352999657,e,15,1.0796336999628693,1,+10,54,43.231195722542665,0.30515087740040014,0.16964458523322046,413628.0,-13.86111834434527,0.11749044353929872,0.0441847024742108,417162.0,21.54927000861964,0.22157758963642493,0.07420740420642913,438440.0,434.01120230498265,430.47720230498265,455.28920230498267
19,29,19,M,1,0,11.0,11,1,high,9 + 8 + 1 + 1 - 1,18,18,19,17,444.15370610001264,446.1803357999888,447.69585700001335,452.714123999991,453.7672133999295,453.76721839996753,455.2838630999322,456.30136139999377,q,18,1.0530893999384716,1,+10,64,-8.05311638226097,-0.3557905775875754,-0.005002819471212838,427319.0,-1.615207900406574,0.00015580315922703036,0.035638718176422834,430853.0,14.840899371955274,0.021083382669078166,0.11947957660219988,507103.0,447.7022023049827,444.1682023049827,523.9522023049826
20,29,19,M,1,0,12.0,12,3,low,4 + 1 + 8 + 9 - 5,17,18,19,17,457.8182803999516,459.8449163999758,461.36015329993097,466.3782059000223,467.527113899996,467.52711880003335,469.0435204000096,470.0607284999569,e,17,1.1489079999737442,1,+1,65,17.79174810051659,0.17933659780625977,0.07535898971193333,440984.0,12.9950939108011,0.0031406644033307174,0.027676379225348935,444517.0,20.68491811537959,0.24609316223834732,-0.1277167143399005,452199.0,461.36620230498266,457.83320230498265,469.0482023049827
21,29,19,M,1,0,13.0,13,2,high,3 - 1 + 9 - 5 + 1,7,6,7,5,471.5773444999359,473.604898599966,475.1202627999592,480.138633900031,481.3271320999484,481.32713759999024,482.8445886000409,483.8707782999263,w,7,1.188498199917376,1,+10,75,26.48251367422305,-0.260559419670098,-0.06969733443023918,454743.0,40.53162915095941,0.1544325339070216,-0.08330831673792627,458277.0,-73.20031848369653,-0.12704862566208108,0.059770684813122976,466009.0,475.12620230498266,471.59220230498266,482.8582023049827
22,29,19,M,1,0,14.0,14,2,low,8 + 1 + 4 - 7 + 1,7,7,6,5,485.387600499962,487.4128421999631,488.9281467999681,493.94864190003136,494.9751485000015,494.9751534000388,496.4917228000122,497.5085795999621,q,7,1.026506599970162,1,+1,76,-20.829067953351327,-0.3580221913069255,0.16884646334904874,468552.0,-51.27393370261129,-0.09444062117735941,-0.015815946824978777,472087.0,-16.50849422064243,0.2199337823364358,-0.1725046574206437,479647.0,488.93620230498266,485.4012023049827,496.49620230498266
23,29,19,M,1,0,15.0,15,4,low,2 + 5 - 3 + 9 + 8,21,22,19,21,499.0252938999911,501.0526769999997,502.56788009993033,507.5862249000347,508.66317799995886,508.6631834,510.1797795999446,511.1971063999808,e,21,1.0769530999241397,1,+1,77,16.727950127568487,0.3153096024074533,0.14369226619159914,482191.0,-17.681010299174467,0.17208356621607113,0.10904288437260634,485724.0,-30.363337885051546,0.10510860096968688,0.5186940840212677,534559.0,502.57320230498266,499.04020230498264,551.4082023049826
24,29,19,M,1,0,16.0,16,1,high,8 - 1 + 1 + 6 + 1,15,16,15,14,512.7136018999736,514.7405126999947,516.2554816000047,521.2748225000105,522.4311750999768,522.4311800000141,523.947836599953,524.9651676000212,w,15,1.1563525999663398,1,+10,87,5.4423033279405075,0.021796135395858673,-0.05394402978211654,495879.0,-35.84914302330574,-0.19192959171629287,0.30335581012486634,499413.0,15.844479358677521,-0.38791601868602266,-0.25298512796735384,602558.0,516.2622023049827,512.7282023049827,619.4072023049827
25,29,19,M,1,0,17.0,17,3,low,2 - 4 + 9 + 7 + 1,15,16,15,13,526.4819934999687,528.5063601999427,530.0215626999852,535.0405471999547,536.1353462000261,536.1353512999485,537.6516773999319,538.6694070000085,w,15,1.0947990000713617,1,+1,88,-3.356989625581013,-0.6680213791838385,0.028806820639899033,509644.0,25.120391846185733,-2.6306868215290526,-0.0009709366971217825,513178.0,20.49803521382687,0.26637640627984993,0.20349724933123836,520807.0,530.0272023049827,526.4932023049827,537.6562023049827
26,29,19,M,1,0,18.0,18,4,high,8 + 3 - 4 + 5 + 9,21,22,21,23,540.1862105000182,542.2118527999264,543.7272520999541,548.745702999935,549.8871951000183,549.88720009994,551.4036363999476,552.4209836000227,w,21,1.1414921000832692,1,+10,98,-2.6433199101944567,0.1216112240974212,0.3662653514873724,523349.0,11.17983292967087,0.38521255192789594,0.09860233525824058,526884.0,-7.76236898640024,-0.1794297212488858,1.1768486352223109,548119.0,543.7332023049827,540.1982023049827,564.9682023049827
27,29,19,M,1,0,19.0,19,4,high,6 + 9 - 7 + 8 - 5,11,11,12,13,553.937788799929,555.962248100026,557.4779955000267,562.4962945000152,563.4472517000395,563.4472568999627,564.9640784999938,565.9811207999592,q,11,0.950957200024277,1,+10,108,-4.770180200015869,0.02797004758496424,0.12181446761291825,537100.0,2.6280080105527475,-0.1871347941679904,0.05865710491796006,540635.0,15.379480871201743,-0.06704844762122297,0.1398454881667166,575295.0,557.4842023049827,553.9492023049827,592.1442023049826
28,29,19,M,1,0,20.0,20,2,low,9 + 6 + 1 + 7 + 1,24,23,24,25,567.4978622999624,569.5252328999923,571.0404797000228,576.0586412000121,577.0233020999585,577.0233074999996,578.5398978000158,579.5568401000346,w,24,0.964660899946466,1,+1,109,27.736181001764194,0.22178740726808588,-2.8059895511535036,550663.0,-46.21237127129861,0.08920307921740234,-0.07340403319589228,554196.0,4.510807530032864,0.2820000500729569,-0.19460665965919777,561695.0,571.0452023049827,567.5122023049827,578.5442023049827
29,29,19,M,1,0,21.0,21,4,high,5 + 9 - 4 + 7 + 6,23,23,24,25,581.0736057999893,583.101650400029,584.617528999981,589.6361979999929,590.6232621999807,590.6232673000195,592.1398119000369,593.1571157000144,q,23,0.9870641999877988,1,+10,119,-14.634217135924324,-0.011421620970255564,0.28964361091530777,564239.0,-6.6355281101103,0.37708323340588956,-0.05086605274954392,567774.0,34.04198721033456,-0.016468524521463745,-0.06981958177131409,644038.0,584.6232023049827,581.0882023049827,660.8872023049827
30,29,19,M,1,0,22.0,22,3,high,2 + 1 + 9 - 7 + 6,11,12,11,13,594.6738797999569,596.697384500003,598.212782800023,603.2317705000169,604.1672450999613,604.1672498999978,605.6838101000176,606.7010428000358,w,11,0.9354745999444276,1,+10,129,2.87648192647943,0.2164679943585548,0.00778653591100964,577835.0,15.747539142801976,0.30765102619156215,0.056515579926806,581369.0,6.426907209713814,-0.2881292571713412,-0.1742503937393145,588839.0,598.2182023049827,594.6842023049827,605.6882023049827
31,29,19,M,1,0,23.0,23,1,low,3 + 1 + 9 + 1 - 1,13,14,13,12,608.2176784999319,610.2468567999895,611.7621777000022,616.7804613999906,617.8872504999745,617.8872557000141,619.4037185999914,620.4206458000117,w,13,1.106789099983871,1,+1,130,-26.224705099727547,0.11180889790411808,-0.1813309020919298,591384.0,25.250120263239594,0.3000392644543326,-0.025908654827824673,594918.0,-9.426167353906656,-0.26436888041031503,0.0007053996295995901,671247.0,611.7672023049827,608.2332023049827,688.0962023049826
32,29,19,M,1,0,24.0,24,2,low,5 + 8 + 1 - 1 + 9,22,22,23,21,621.9383175999974,623.965721699933,625.4815938999527,630.4998238999979,631.9513072999544,631.9513123999932,633.4680965999723,634.4850018999423,q,22,1.4514833999564871,1,+1,131,24.276952038179445,0.24212178144773633,0.07485050599779353,605103.0,-4.5836050318532315,-0.2621142623201682,-0.1134523851836009,608637.0,-12.015569632667821,0.5467510997699976,-0.1255356795931435,616622.0,625.4862023049826,621.9522023049826,633.4712023049826
33,29,19,M,1,0,25.0,25,2,high,3 + 9 + 1 - 5 + 1,9,7,8,9,636.0017111999332,638.0269806000288,639.5423944999347,644.5625572000281,645.7033124999725,645.7033177000121,647.2196047999314,648.2366944000241,e,9,1.1407552999444306,1,+10,141,-12.203036765798682,-0.13043439658324862,0.023806453063431876,619165.0,9.924078244922343,0.297067006846071,0.1867078495176533,622700.0,-24.55432278360003,-0.15514696142138407,-0.1458568865208254,630374.0,639.5492023049827,636.0142023049826,647.2232023049827
34,29,19,M,1,0,26.0,26,4,low,3 + 8 - 5 + 9 - 7,8,7,8,6,649.7535423000227,651.7775426000007,653.2926917999866,658.3108671999653,659.3673178000026,659.3673228000407,660.8839697000221,661.9008553999593,w,8,1.0564506000373513,1,+1,142,-10.712818324965603,1.5810713053284071,0.0374084634393792,632915.0,-0.4970734256418865,0.0244652160802179,0.1027582680195045,636449.0,12.637973391257052,0.07913953055996403,-0.15001637252285027,685086.0,653.2982023049826,649.7642023049826,701.9352023049827
35,29,19,M,1,0,27.0,27,2,low,9 + 4 + 5 + 1 - 1,18,18,17,19,663.4180569999735,665.4438431999297,666.9592325999984,671.9774171999306,673.0072987999883,673.0073038000264,674.5237394000287,675.5405595999327,q,18,1.0298816000577062,1,+1,143,6.960485498603364,0.16250874288950712,0.16474700704431555,646581.0,-28.562848984768365,0.04184328577740226,0.11975415649488608,650115.0,30.86729621462968,0.0335943985240621,0.050378193683962236,657678.0,666.9642023049827,663.4302023049827,674.5272023049827
36,29,19,M,1,0,28.0,28,1,high,7 + 1 + 6 + 1 + 1,16,16,18,17,677.0570118999458,679.0828045999515,680.5980871000211,685.6161777999368,686.5753657000023,686.5753711999278,688.0925910999649,689.1099558999413,q,16,0.9591879000654444,1,+10,153,-9.799962029761875,-0.2675614014538752,0.03973540316173274,660221.0,5.277537781399678,0.15210294529124724,0.10719271304243683,663753.0,-5.397561806270547,-0.3242108087097568,0.21632555868506942,714760.0,680.6022023049827,677.0702023049827,731.6092023049827
37,29,19,M,1,0,29.0,29,4,high,8 + 4 + 7 - 5 - 6,8,8,6,9,690.6270980999689,692.6507855000091,694.1660964999464,699.1843266999931,700.4153853000025,700.415390799928,701.9319326000405,702.9492407999351,q,8,1.231058600009419,1,+10,163,-24.04701810864136,0.3660957919684189,-0.08215488895580458,673788.0,-6.301772150418454,-0.1130539666290673,0.060141305590556415,677322.0,-7.1216701904494855,0.12048762656763179,-0.06560430937679218,756141.0,694.1712023049827,690.6372023049827,772.9902023049826
38,29,19,M,1,0,30.0,30,3,low,8 + 5 + 1 - 7 + 9,16,14,16,17,704.4663095999858,706.493761599937,708.0090791000403,713.0272110000369,713.9513764000149,713.9513814999373,715.4678932999377,716.4847613999736,w,16,0.9241653999779372,1,+1,164,7.810846074917201,0.1720306144300845,-0.17853468600627753,687631.0,8.172175937847427,-0.1765511255283565,-0.03736626840816237,691165.0,-22.87056239710164,0.4923362500405748,-0.03886508018907042,698622.0,708.0142023049826,704.4802023049826,715.4712023049826
39,29,19,M,1,0,31.0,31,1,high,6 + 9 + 1 + 1 - 1,16,16,15,14,718.0009501999593,720.0268913999316,721.5421905000112,726.5602675999398,730.0714786999743,730.0714838000131,731.5872809999273,732.6229622000246,q,16,3.511211100034416,1,+10,174,10.57968000427017,-0.2674965551417543,0.2359658303657286,701165.0,24.298667893156278,-0.3180810070767097,0.13271436940033765,704697.0,-13.50874141625448,-0.6237238364866009,-0.3239919045269892,888429.0,721.5462023049827,718.0142023049826,905.2782023049826
40,29,19,M,1,0,32.0,32,2,high,4 + 9 + 1 - 7 - 1,6,5,6,8,734.1396310999407,736.1655841000029,737.6805166999693,742.7001172999735,743.7993502999307,743.7993558999733,745.3165869999793,746.3340431999532,w,6,1.0992329999571666,1,+10,184,9.370851620332818,0.18309086474791902,-0.08739552206434342,717303.0,-8.704256939262297,-0.43204630962255797,0.1169766324691126,720838.0,-12.695927024919719,0.014651035192788875,-0.29739757801128563,728471.0,737.6872023049826,734.1522023049827,745.3202023049827
41,29,19,M,1,0,33.0,33,3,low,5 + 6 - 4 - 1 + 8,14,15,14,16,747.8507985999458,749.877736699942,751.3929047999554,756.4116177999531,757.64738759998,757.6473929000203,759.1637904999661,760.180820199952,w,14,1.235769800026901,1,+1,185,-69.1030103688093,-0.16774433805956734,-0.03460054338783136,731015.0,-8.377339244422759,0.12392190396636771,0.13014449996818223,734548.0,-6.810848457315746,-0.7800974769509055,-0.007733840199780406,742318.0,751.3972023049827,747.8642023049827,759.1672023049827
42,29,19,M,1,0,34.0,34,4,low,4 + 7 - 8 + 9 - 3,9,11,8,9,761.6971333999536,763.7227242999361,765.2378491999698,770.2579231999698,771.4713601000258,771.4713655999512,772.9875383999315,774.0042699999758,e,9,1.2134369000559673,1,+1,186,14.708780869801922,0.19822713799267477,-0.11697686129923857,744860.0,-25.61124399078506,0.34225088744434506,0.06010489093023219,748395.0,20.897214369039375,0.3278169657642924,0.03889478580434047,769966.0,765.2442023049827,761.7092023049827,786.8152023049827
43,29,19,M,1,0,35.0,35,4,high,9 + 7 - 5 + 8 + 6,25,27,25,24,775.5211075000116,777.548429300019,779.0634667999693,784.0821422000299,785.2953635999584,785.2953691000002,786.8120038000052,787.8295095000067,w,25,1.2132213999284431,1,+10,196,-25.99033519870587,-0.07698887831927914,0.11620022049095513,758685.0,12.890792381767586,0.002213894913983605,0.14216816281951594,762219.0,3.42002418317551,-0.144950090554822,-0.11105875053794789,874893.0,779.0682023049827,775.5342023049826,891.7422023049827
44,29,19,M,1,0,36.0,36,2,high,7 + 5 + 1 + 9 + 1,23,22,23,21,789.3465430000215,791.3721709999372,792.8873887999798,797.9051510999561,798.8953667999594,798.8953720999998,800.4119822999346,801.4292960999883,w,23,0.9902157000033184,1,+10,206,26.355884965161483,-0.07688418370835493,-0.016209778992054558,772509.0,11.004312216120328,0.4730376687634168,0.008042713118796563,776042.0,31.261303932695924,-0.7247388205841885,0.8189729636912855,783566.0,792.8912023049827,789.3582023049827,800.4152023049827
45,29,19,M,1,0,37.0,37,3,high,8 - 7 + 9 + 1 + 4,15,14,15,16,802.9462472999585,804.9724935999257,806.4875946000102,811.5066070999601,812.4795500999899,812.4795563000371,813.9962250999524,815.013498199929,w,15,0.9729430000297724,1,+10,216,13.223992594456888,-0.046607537903723184,0.10435410944179235,786109.0,52.936230191588095,-0.4686868227629857,-0.07063811264736719,789643.0,23.18949674544374,-0.09865462125041091,0.07224088404268447,797150.0,806.4922023049827,802.9582023049827,813.9992023049826
46,29,19,M,1,1,38.0,0,3,low,3 + 8 - 7 + 1 + 9,14,14,12,13,838.0997642999864,840.1267984000151,841.6426925999695,846.6628471000004,847.5435284999548,847.5435337999952,849.060369600018,850.0778837999678,q,14,0.8806813999544829,1,+1,217,17.228322909720717,-0.17593661686751272,0.39527425731462973,821264.0,-25.884847795010455,0.4875338745382085,-0.10325257006386579,824799.0,24.395081948052066,0.2884907984640437,-0.10311891339872448,832214.0,841.6482023049826,838.1132023049827,849.0632023049827
47,29,19,M,1,1,39.0,1,3,high,8 + 4 + 1 - 7 + 9,15,16,15,13,851.5945319999591,853.6160596999689,855.1311585000367,860.1502580999513,861.1274903999292,861.127496799978,862.6447527999408,863.6632825999404,w,15,0.9772322999779136,1,+10,227,14.174196577242519,0.005252047328180964,-0.03264539457573501,834752.0,26.570693678208134,-1.0043687558334873,-0.09476013820491347,838287.0,-14.132131202696138,-0.2829802310380791,0.0699309546839808,845799.0,855.1362023049827,851.6012023049826,862.6482023049826
48,29,19,M,1,1,40.0,2,3,high,5 + 6 + 7 - 1 - 9,8,7,9,8,865.1800833999296,867.2015060999547,868.7174408999854,873.7360586999566,876.7355187000358,876.7355237999582,878.2521838000393,879.2698740999331,e,8,2.999460000079125,1,+10,237,-16.895713313178106,-0.38520708675418547,-0.10738617544773454,848338.0,7.145832844177597,0.25403271750436796,-0.07948966612086306,851872.0,-13.772771627759273,-0.053132204578473896,0.09051100551365909,861406.0,868.7212023049826,865.1872023049826,878.2552023049826
49,29,19,M,1,1,41.0,3,4,high,3 + 9 - 4 + 7 + 6,21,19,20,21,880.7868987999973,882.8088008999475,884.3247317999485,889.3446667999378,890.2234997000196,890.2235048999428,891.7401123999734,892.7571028000093,e,21,0.8788329000817612,1,+10,247,11.703502145328402,0.017178175975019805,-0.04652185248460339,863945.0,-14.82626110875768,0.5893030146604472,0.08040680525416888,867481.0,18.332353950691832,0.22119929884514677,0.12103119925494643,915525.0,884.3302023049827,880.7942023049827,932.3742023049826
50,29,19,M,1,1,42.0,4,1,low,7 + 1 + 4 + 1 - 1,12,13,11,12,894.3317552999943,896.3575063000317,897.8732375000254,902.8911440999364,903.759439699992,903.7594445000286,905.2758930000128,906.2932178000336,e,12,0.8682956000557169,1,+1,248,0.551398995373889,0.19346522420789158,0.07319102498941055,877493.0,-7.592826714871184,0.6902287990677909,0.10632485341900666,881028.0,-31.21541035776864,-0.19192726310232944,-0.012926010457620096,969885.0,897.8772023049827,894.3422023049827,986.7342023049827
51,29,19,M,1,1,43.0,5,3,high,9 + 3 - 4 + 6 + 7,21,21,22,23,907.8100050000356,909.837141200027,911.3527454999858,916.3711917999316,917.255618299998,917.255623300036,918.77192020003,919.7888322999352,q,21,0.8844265000661835,1,+10,258,27.15774670349643,-0.3774600677929696,-0.053927977910590785,890973.0,-14.66693559359018,0.0013635166593108927,0.0243235699120512,894507.0,7.341376979261284,0.2084060217144934,-0.11813685549687247,901925.0,911.3562023049826,907.8222023049826,918.7742023049826
52,29,19,M,1,1,44.0,6,4,low,6 + 9 + 7 - 3 - 5,14,12,13,14,921.3059451999724,923.3325380000168,924.8477930999944,929.8663324999508,930.8555109999724,930.8555166000152,932.37215869996,933.3888161000214,e,14,0.9891785000218078,1,+1,259,-24.32766703952258,0.22726097848661286,0.17575240061940733,904469.0,-2.3754451306112907,-0.2785756607373351,0.050027321690730986,908002.0,46.134159404795184,-0.814521696132088,0.03073411229613554,942757.0,924.8512023049826,921.3182023049827,959.6062023049826
53,29,19,M,1,1,45.0,7,3,low,5 + 7 + 1 - 4 + 6,15,13,17,15,934.9060558999772,936.9327912999432,938.4480072999722,943.4679322000012,944.487518400012,944.4875233999336,946.0040405999752,947.0206606999856,e,15,1.0195862000109628,1,+1,260,3.5175971496093092,-0.25217444981853543,-0.0703175797181117,918068.0,6.400628276799225,-0.01162954451569087,0.07889186646747182,921604.0,1.2455159226307586,-0.4494279996852404,0.11467700952471982,929157.0,938.4532023049827,934.9172023049827,946.0062023049827
54,29,19,M,1,1,46.0,8,4,low,5 + 7 - 4 - 6 + 9,11,12,13,11,948.5377738000244,950.5642412999296,952.0797962999786,957.0984510999988,958.0875098000396,958.0875149999628,959.6039818999708,960.6207868999918,e,11,0.989058700040914,1,+1,261,-12.442211835825628,-0.3133174167149808,0.18977924625389275,931700.0,-9.700433605037595,-0.18459042625474886,0.14228633321406248,935234.0,-30.646948965724253,-0.010081795267704585,-0.1943227902012623,1095116.0,952.0832023049827,948.5492023049827,1111.9652023049825
55,29,19,M,1,1,47.0,9,2,high,9 + 1 + 6 + 7 + 1,24,24,23,25,962.1379666999565,964.159853500023,965.6751440000372,970.693877499958,971.703577600012,971.7035829999368,973.2201248999336,974.2375592999742,q,24,1.009700100054033,1,+10,271,2.233324116878391,0.3418721397007456,0.07943847355606781,945296.0,42.55268133769533,0.1353077373189322,-0.05931508791525886,948829.0,-19.09639205969138,0.059752428923499856,0.12416241876966505,956373.0,965.6782023049826,962.1452023049827,973.2222023049827
56,29,19,M,1,1,48.0,10,1,high,6 + 1 + 8 + 1 - 1,15,14,13,15,975.7544975999626,977.7808341000346,979.2960292000208,984.3146822000272,985.2155594999786,985.2155648000188,986.7318333000294,987.7479125999962,e,15,0.9008772999513894,1,+10,281,0.8411519995996031,0.14171113597198026,-0.04388035471874607,958916.0,9.511359151636112,0.13942136518417803,0.15276583024445167,962450.0,10.226478501164861,-0.09760322745623551,0.07915048787525936,1038300.0,979.2992023049827,975.7652023049827,1055.1492023049825
57,29,19,M,1,1,49.0,11,2,low,8 + 1 + 9 + 1 - 4,15,14,15,16,989.2648291999358,991.291953399952,992.8072342000088,997.826410599926,998.8155950999936,998.8156003000332,1000.3330900000292,1001.3501777999918,w,15,0.9891845000674948,1,+1,282,23.623458831939665,0.11555427452530243,-0.16867777051777377,972428.0,18.328230372977117,0.014296005084340813,0.04105083154673461,975962.0,19.849804641802105,-0.3043249459146429,0.13956571631928716,983486.0,992.8112023049827,989.2772023049827,1000.3352023049827
58,29,19,M,1,1,50.0,12,2,low,9 + 6 + 1 + 7 + 1,24,24,23,25,1002.8667247000268,1004.8888297000084,1006.404208699998,1011.4223307000356,1012.4236481999396,1012.423653099977,1013.9401696000132,1014.9568747999728,q,24,1.001317499903962,1,+1,283,-15.007117233789565,0.051361757457886625,0.02776049030348826,986024.0,-1.9236715802571744,0.12749342705095268,0.052567713155053264,989558.0,2.8844303699015725,0.7667145766164869,-0.06634389923371797,997092.0,1006.4072023049827,1002.8732023049827,1013.9412023049827
59,29,19,M,1,1,51.0,13,3,high,8 + 6 - 7 + 1 - 4,4,3,5,4,1016.4733396999654,1018.4971974000218,1020.0125451000058,1025.0311511000036,1025.999569699925,1025.999574699963,1027.5159993999987,1028.533354300016,e,4,0.9684185999212788,1,+10,293,-35.297474333025214,0.15152214612918424,0.1281323472850613,999632.0,17.828026703484863,-0.18622059543998093,0.02380947106475828,1003167.0,2.539717702791627,-0.5287772373279589,0.06959789567530628,1010668.0,1020.0162023049827,1016.4812023049826,1027.5172023049827
60,29,19,M,1,1,52.0,14,2,low,7 + 6 + 1 + 8 + 1,23,21,23,22,1030.05035580002,1032.0777583999443,1033.592929299979,1038.6113147999276,1039.567628699995,1039.5676337000332,1041.08428739995,1042.101002899988,w,23,0.956313900067471,1,+1,294,16.8345525767118,-0.3551618015503104,-0.026736634389239233,1013213.0,10.964105378143541,0.31580788546260763,0.10500391945997811,1016747.0,12.299535283876196,0.026876512971756306,-0.021235124399015204,1024236.0,1033.5962023049826,1030.0622023049825,1041.0852023049827
61,29,19,M,1,1,53.0,15,1,low,2 + 1 + 9 + 1 - 1,12,13,11,12,1043.617192899983,1045.6431445000344,1047.1584806999308,1052.1782539999697,1053.6315475999727,1053.6315530000138,1055.1479590000235,1056.1654672999284,e,12,1.453293600003235,1,+1,295,-10.91426484561025,-0.13948166247289384,-0.034949880732488614,1026778.0,5.327343295071911,1.0221375476290429,0.09555215523474869,1030313.0,-1.8530822431798235,0.13754063056289656,-0.03700771821060678,1122140.0,1047.1622023049827,1043.6272023049826,1138.9892023049827
62,29,19,M,1,1,54.0,16,3,low,4 + 8 - 3 + 5 - 1,13,14,13,12,1057.6823364999727,1059.709727499925,1061.225040499994,1066.243501299934,1067.2235893000034,1067.2235944999263,1068.7401174000115,1069.7569902999676,w,13,0.9800880000693724,1,+1,296,23.748320688483258,0.168519342405264,-0.021991074820056244,1040845.0,37.418742740009826,0.37342369706303646,-0.017638306708700924,1044379.0,25.795911751120823,-0.6686786851771438,0.03544984100182158,1051892.0,1061.2282023049825,1057.6942023049826,1068.7412023049826
63,29,19,M,1,1,55.0,17,3,low,5 + 6 - 4 - 1 + 7,13,13,15,14,1071.2737592999474,1073.2970036999905,1074.8122386999312,1079.8309399999562,1080.7676068000146,1080.767611499934,1082.2841163999983,1083.3009456999716,q,13,0.9366668000584468,1,+1,297,-18.01087962280509,-0.3052054879647046,0.4978162833019426,1054432.0,26.86206802409503,0.0010446326496591496,-0.09239536664233672,1057966.0,-25.361214316796335,-0.03833424877624747,-0.1825590742959624,1065436.0,1074.8152023049824,1071.2812023049826,1082.2852023049825
64,29,19,M,1,1,56.0,18,3,high,4 + 7 + 1 + 9 - 5,16,18,17,16,1084.8177166999667,1086.839729099942,1088.3547282999498,1093.373033299984,1095.6396983999875,1095.6397038000289,1097.1569531999412,1098.1751204999746,e,16,2.2666651000035927,1,+10,307,17.203319328071778,0.10303188716912048,-0.0798071680280994,1067975.0,-26.037684959140137,0.1920397017405282,-0.02084523979562869,1071508.0,2.0790418311620984,-0.30513671495922967,0.13379149490033315,1080309.0,1088.3572023049826,1084.8242023049825,1097.1582023049825
65,29,19,M,1,1,57.0,19,4,low,2 + 9 - 3 + 5 + 8,21,22,23,21,1099.6923623999464,1101.7180924999411,1103.2334478999835,1108.2514962999269,1110.4476696999627,1110.4476749000023,1111.9641880000129,1112.981139099982,e,21,2.1961734000360598,1,+1,308,-34.32361097375008,0.008867312230815383,-0.11687411408441184,1082853.0,27.80861373395129,-0.1496182154717034,-0.043595003722946224,1086386.0,-8.594625321300558,-0.7188940073183088,0.0137803370637406,1149244.0,1103.2352023049825,1099.7022023049826,1166.0932023049825
66,29,19,M,1,1,58.0,20,2,high,2 + 9 - 4 + 1 + 1,9,8,11,9,1114.497782999941,1116.5230216000346,1118.038218200032,1123.0559448999702,1123.9757522999423,1123.9757581999877,1125.492297299963,1126.5101362999412,e,9,0.919807399972342,1,+10,318,4.002060824046309,0.33432622516652355,-0.17429046564666706,1097658.0,26.77674062098093,-0.8999726056329247,0.00034145912002903067,1101191.0,-2.153391212111554,0.029093637190760635,0.07959005949858322,1108644.0,1118.0402023049826,1114.5072023049825,1125.4932023049826
67,29,19,M,1,1,59.0,21,1,low,2 + 9 + 1 + 1 + 1,14,13,12,14,1128.0267953000148,1130.0519669999485,1131.5671766999294,1136.585606299981,1137.4716628000024,1137.4716680999263,1138.988077099959,1140.004789699975,e,14,0.8860565000213683,1,+1,319,-42.13806948170753,-0.7296357303642744,0.024393674977213564,1111187.0,13.36404698101719,0.291118436449763,-0.0751291734572137,1114720.0,0.11359124139035259,0.33360927752671765,0.04676313912639518,1135748.0,1131.5692023049826,1128.0362023049825,1152.5972023049826
68,29,19,M,1,1,60.0,22,1,high,8 + 1 + 5 + 1 + 1,16,15,16,17,1141.5214684999664,1143.5501002999372,1145.0654272999964,1150.0835741999908,1151.0797594999312,1151.07976459997,1152.5961596000125,1153.6133881999997,w,16,0.9961852999404072,1,+10,329,7.58266501680998,-0.15392837403460824,0.05691900659608451,1124685.0,-9.922808152470992,-0.24961627839575495,0.1945319812242874,1128218.0,21.417133264671506,-0.11149580497641898,0.009476767255446328,1162692.0,1145.0672023049826,1141.5342023049825,1179.5412023049826
69,29,19,M,1,1,61.0,23,4,high,4 + 8 + 9 - 3 + 7,25,24,25,26,1155.1301395999617,1157.1527320999303,1158.668055099959,1163.6864579000394,1164.575765000016,1164.5757704999414,1166.092330799962,1167.109331399959,w,25,0.8893070999765769,1,+10,339,-20.503524216273526,0.011855341334193081,-0.04501936371054449,1138287.0,23.02197408797121,0.34439231196229025,-0.009759856471226458,1141821.0,5.6753248471509945,0.1257663845022643,0.027383015255336263,1314715.0,1158.6702023049825,1155.1362023049826,1331.5642023049825
70,29,19,M,1,1,62.0,24,1,low,3 + 1 + 8 + 1 + 1,14,12,14,13,1168.625964399951,1170.6488380999654,1172.1638072999776,1177.1818797999877,1178.0237895999453,1178.0237944999826,1179.5404764999985,1180.557444599981,w,14,0.8419097999576479,1,+1,340,0.1635547884656532,-0.19032715461448024,0.09980462453175387,1151784.0,-5.411668978319501,-0.09864403678909861,-0.11502866906034614,1155316.0,24.396883193998164,0.4709030771250031,0.06131690150337743,1178492.0,1172.1652023049826,1168.6332023049827,1195.3412023049825
71,29,19,M,1,1,63.0,25,1,high,8 + 1 + 1 + 1 - 4,7,8,5,7,1182.0746367000393,1184.1029424999724,1185.6185717000044,1190.6363020999706,1193.8237679999438,1193.8237730999826,1195.3403240999323,1196.3575038000126,e,7,3.1874658999731764,1,+10,350,0.6634976252521412,-0.2748565076146252,0.08850107706520416,1165237.0,-55.932375428433225,0.5888706650994031,0.031711659629657385,1168771.0,-20.513179498628915,0.5173336904318355,0.10818087959950362,1219179.0,1185.6202023049825,1182.0862023049826,1236.0282023049826
72,29,19,M,1,1,64.0,26,2,low,6 + 1 + 1 + 7 - 9,6,4,8,6,1197.8741718000383,1199.8998799999829,1201.4151214999729,1206.4335205000243,1207.3837769999518,1207.38378199999,1208.9004137999727,1209.917191800021,e,6,0.950256499927491,1,+1,351,-2.463334162544953,0.4849749256588174,-0.4337021683321671,1181034.0,-17.143643685711815,-0.25609804673250736,0.02271278842238944,1184568.0,6.066688213817351,-0.023457115753513058,0.08314532127023444,1192052.0,1201.4172023049825,1197.8832023049827,1208.9012023049825
73,29,19,M,1,1,65.0,27,3,low,6 + 1 + 8 + 7 - 9,13,13,14,15,1211.4340748999384,1213.459840299969,1214.9750701999874,1219.995046499942,1220.9037469999748,1220.903751900012,1222.4201839999878,1223.4370505000115,q,13,0.9087005000328644,1,+1,352,18.67229490149068,-0.12468732824380702,0.07659246742104253,1194593.0,5.815845768504387,-0.8258653186424891,0.11865412518780794,1198129.0,22.696424359919977,-0.11192087285284691,-0.9367230759452316,1205571.0,1214.9782023049825,1211.4422023049826,1222.4202023049825
74,29,19,M,1,1,66.0,28,1,low,7 - 1 + 8 + 1 - 1,14,14,13,12,1224.953858099936,1226.980852400011,1228.496112700028,1233.5149238999584,1234.5118975999649,1234.5119028000045,1236.0284383999533,1237.045346299943,q,14,0.9969737000064924,1,+1,353,10.170893394290138,0.3897013827256215,-0.05464474311283074,1208115.0,16.250533437460888,-2.0926999691270325,0.09551819731459266,1211649.0,1.0590980317445045,-0.1200017211565898,-0.11921128976863549,1246716.0,1228.4982023049824,1224.9642023049826,1263.5652023049824
75,29,19,M,1,1,67.0,29,2,low,4 + 8 + 1 + 1 - 6,8,7,9,8,1238.562186199997,1240.5874787000355,1242.1024487999384,1247.1224407000118,1248.3917080000392,1248.3917132999632,1249.9081431000377,1250.9247180999373,e,8,1.2692673000274226,1,+1,354,-7.992175512577833,-0.04371457890183983,-0.11346762741945415,1221722.0,-22.871276810540476,-0.029783455784722523,-0.11743779860132464,1225256.0,13.071483413965955,0.13439230352281406,-0.009244435711373677,1233059.0,1242.1052023049826,1238.5712023049825,1249.9082023049825
76,29,19,M,1,1,68.0,30,1,high,7 + 1 + 4 + 1 - 1,12,14,13,12,1252.4417498999392,1254.4696806999273,1255.984926599951,1261.0031647999422,1262.0478212999296,1262.0478266999708,1263.564394499932,1264.581776899926,e,12,1.044656499987468,1,+10,364,-13.72628316842597,0.12542518682352455,0.16476827267126914,1235603.0,-28.584966045927217,-0.34945041068982574,0.020385793215350834,1239137.0,15.698322695737819,0.32051556313776164,-0.049913892394487736,1287427.0,1255.9862023049825,1252.4522023049826,1304.2762023049825
77,29,19,M,1,1,69.0,31,3,high,6 - 1 + 7 - 8 + 9,13,11,13,12,1266.098348300031,1268.1223287999746,1269.6372372999904,1274.6558328000249,1275.591776599933,1275.5917817999723,1277.1083180999267,1278.125511399994,w,13,0.9359437999082728,1,+10,374,2.559397793642417,-0.32157746832952805,-0.05246475098789882,1249256.0,9.810926688093222,-0.09207025036101602,-0.003620542394479287,1252790.0,8.414728548693398,0.0944133479542213,0.2249240231682308,1260259.0,1269.6392023049825,1266.1052023049826,1277.1082023049826
78,29,19,M,1,1,70.0,32,2,low,7 + 8 + 1 + 9 + 1,26,26,25,24,1279.6423040000373,1281.6677780999453,1283.1830797999282,1288.2019083999912,1289.1677401000052,1289.167744999926,1290.6843028999283,1291.7012518999982,q,26,0.9658317000139504,1,+1,375,11.343959528688632,0.2675889310605788,0.087680078992731,1262802.0,-37.85367460837512,-0.14785223830383476,-0.06418699882823886,1266335.0,-43.74632216176169,-0.6008615165182727,-0.1925585287228393,1273835.0,1283.1842023049826,1279.6512023049825,1290.6842023049826
79,29,19,M,1,1,71.0,33,1,low,8 + 1 + 1 + 1 - 3,8,9,8,6,1293.2180516999797,1295.2436209000298,1296.7589224000112,1301.7774246000336,1302.7598936999566,1302.759898699995,1304.276293700037,1305.293107000005,w,8,0.982469099923037,1,+1,376,2.595756100156345,1.0787545937637053,-0.10710625839320675,1276378.0,-16.87210007874053,-0.3573254487471007,0.21192088955232502,1279911.0,-27.388101135543074,-0.39910418616522714,-0.07787989921957084,1328395.0,1296.7602023049826,1293.2272023049825,1345.2442023049825
80,29,19,M,1,1,72.0,34,2,high,3 + 1 + 8 - 5 - 1,6,5,6,7,1306.809651800024,1308.835415999929,1310.3506119000376,1315.3700569000212,1316.495810399938,1316.4958155999775,1318.0125165000209,1319.029451599985,w,6,1.1257534999167549,1,+10,386,-18.759213264456786,0.10214223334091566,-0.03900646613286285,1289969.0,0.6724770726048988,0.3694482777937389,0.04332573992333599,1293503.0,36.07775364258196,0.03471110314493986,0.03882266532193679,1301163.0,1310.3522023049825,1306.8182023049826,1318.0122023049826
81,29,19,M,1,1,73.0,35,4,high,5 + 8 - 6 + 7 + 4,18,18,19,17,1320.5472619999782,1322.5750951000373,1324.0902220999706,1329.109172300028,1330.0479066999978,1330.047911800037,1331.5643337999354,1332.5818466999915,q,18,0.9387343999696895,1,+10,396,2.6709014080275146,0.7325798971726285,-0.06822553257608077,1303709.0,-45.18910639548355,0.0450333541865664,-0.15852046753961568,1307243.0,20.082880680652995,0.44464372053840107,0.8901513500780744,1378787.0,1324.0922023049825,1320.5582023049826,1395.6362023049826
82,29,19,M,1,1,74.0,36,1,low,3 + 1 + 9 + 1 + 1,15,14,15,17,1334.0995478999685,1336.1273915999918,1337.6433843999985,1342.6612868999946,1343.7279406999587,1343.7279462000006,1345.2446247999906,1346.261765000003,w,15,1.066653799964115,1,+1,397,2.749448596425392,0.2958023399127443,0.11368115907378762,1317261.0,2.8985330568928163,0.08336944620733666,-0.021687153297835104,1320795.0,12.556912206026658,-0.16675450816486936,-0.0009620664696732284,1341995.0,1337.6442023049826,1334.1102023049825,1358.8442023049824
83,29,19,M,1,1,75.0,37,1,low,7 - 1 + 1 + 9 - 1,15,13,15,14,1347.7784425999853,1349.8021966999513,1351.3178713999805,1356.3364929999807,1357.3279394999263,1357.3279444999644,1358.8444418999716,1359.8623669000226,w,15,0.991446499945596,1,+1,398,28.7015953442243,-0.14912819939649236,-0.006197421879439391,1330936.0,-19.031966074854964,-0.13388656390256415,-0.07226541296030375,1334470.0,37.4003814201951,0.04518026070397907,0.08990474356843237,1447755.0,1351.3192023049826,1347.7852023049825,1464.6042023049827
84,29,19,M,1,2,76.0,0,4,high,4 + 9 - 7 + 8 + 5,19,19,21,20,1384.64398350002,1386.6711138999672,1388.1861044000252,1393.206545700028,1394.119889500027,1394.119894799951,1395.6364557999768,1396.653762699978,q,19,0.9133437999989836,1,+10,408,-2.0824024405016797,-0.45013508399762303,-0.04920156081855276,1367804.0,7.170253940026157,1.8543656279805205,5.031324415651513,1371340.0,-2.337621764642943,0.0661899787115523,0.051369580229430056,1475058.0,1388.1892023049825,1384.6532023049826,1491.9072023049825
85,29,19,M,1,2,77.0,1,2,high,6 + 1 + 8 + 5 - 1,19,17,18,19,1398.1705551000196,1400.1975079000113,1401.7124758000136,1406.7304261000245,1407.703917799925,1407.703923099965,1409.220729099994,1410.2380133999395,e,19,0.973491699900478,1,+10,418,19.90942096220555,3.6940209945585734,8.45876280723904,1381331.0,10.34423931877306,-1.5653777532881614,-4.948586840599272,1384864.0,0.43273056200870386,0.27488844311832805,-0.4247128649170726,1392371.0,1401.7132023049826,1398.1802023049825,1409.2202023049826
86,29,19,M,1,2,78.0,2,2,low,6 + 1 + 1 + 7 - 9,6,8,4,6,1411.754887100018,1413.7819448999944,1415.2969470000244,1420.315387499926,1421.2558877999545,1421.255892999994,1422.7722224000026,1423.7890441000343,e,6,0.9405003000283614,1,+1,419,-2.3522778171118617,-0.12123172200494192,0.0016919818785647855,1394915.0,3.9105049254354007,-0.1307790636188093,-0.2266001101070918,1398449.0,-5.010489864003241,-0.09281448625194555,0.24602609577431211,1405922.0,1415.2982023049826,1411.7642023049825,1422.7712023049826
87,29,19,M,1,2,79.0,3,3,high,2 + 1 + 9 - 4 + 6,14,15,14,16,1425.3065779000171,1427.3324759000095,1428.8476153000374,1433.8663575000246,1434.9119901999948,1434.9119952000328,1436.428503400006,1437.4457422999549,w,14,1.045632699970156,1,+10,429,-3.413485223245889,0.03565522951431266,0.12173115756911068,1408466.0,-24.576457413987033,-0.16959783557138275,-0.01306198550295834,1411999.0,0.8699213553563432,0.34218858127268925,-0.008071527067743833,1419579.0,1428.8482023049826,1425.3152023049824,1436.4282023049825
88,29,19,M,1,2,80.0,4,2,low,7 + 1 + 9 - 1 - 8,8,6,7,8,1438.9626306000282,1440.9878902999335,1442.5029366999515,1447.521226199984,1449.4399066999904,1449.4399124000338,1450.9565234999754,1451.973660699965,e,8,1.9186805000063032,1,+1,430,3.9980435159969474,-1.2664727851367301,0.05928323742181707,1422121.0,-6.512982251421779,0.01697677187799851,0.046988328749272945,1425654.0,-19.08553341139735,-0.37326837685831205,0.07422362078598299,1434107.0,1442.5032023049826,1438.9702023049826,1450.9562023049825
89,29,19,M,1,2,81.0,5,1,high,4 + 9 + 1 - 1 - 1,12,13,11,12,1453.4904709000257,1455.5166069999686,1457.0317956000215,1462.049521799956,1463.087982300029,1463.087987799954,1464.6045532000137,1465.6217016999726,e,12,1.038460500072688,1,+10,440,-71.35477969297794,-0.1491255502882165,0.16184492112168058,1436649.0,1.2019453575072383,0.029060562043000893,-0.028771985446119697,1440183.0,-27.337010986707615,-0.11197889658916305,-0.18631139582750045,1631498.0,1457.0322023049825,1453.4982023049824,1648.3472023049826
90,29,19,M,1,2,82.0,6,2,low,4 + 8 + 1 + 1 - 5,9,8,11,9,1467.1390130000073,1469.166057399998,1470.6811559999478,1475.699273199949,1476.695988099964,1476.6959936000055,1478.2128430000157,1479.229890800023,e,9,0.996714900014922,1,+1,441,-23.169203400560278,-0.13696066028363596,0.09502734353918862,1450299.0,15.287167794282068,-0.07565479978208378,0.14901689838624277,1453832.0,18.614447459460568,-0.11592372129150474,0.06457145558120514,1461362.0,1470.6812023049827,1467.1482023049825,1478.2112023049826
91,29,19,M,1,2,83.0,7,4,low,8 + 4 + 7 - 5 - 6,8,9,8,7,1480.746514599945,1482.7733356999815,1484.2883268999285,1489.3065633000224,1490.3919385999325,1490.3919436999713,1491.9081302999402,1492.924833099998,w,8,1.0853752999100834,1,+1,442,18.81418852632545,0.8210185015516278,0.05246493191955226,1463906.0,-25.018846458701105,0.14949523409814613,-0.026006324894992883,1467440.0,-0.49868462787232914,0.15191479469586966,0.14674595526079104,1489067.0,1484.2892023049826,1480.7552023049825,1505.9162023049826
92,29,19,M,1,2,84.0,8,4,high,7 + 8 - 4 + 6 + 5,22,23,22,21,1494.4415635000332,1496.468478899973,1497.9837513999664,1503.00187810004,1504.400031999976,1504.4000371000147,1505.9166285000392,1506.9339355999257,w,22,1.3981538999360057,1,+10,452,-41.14058315112679,-0.5656630399787579,-0.04846920709482916,1477601.0,2.576935710591776,0.024242296408884645,-0.04497206582560387,1481135.0,16.601892850921192,-3.42992675779404,0.16956299915311646,1503946.0,1497.9842023049825,1494.4502023049827,1520.7952023049825
93,29,19,M,1,2,85.0,9,4,low,4 + 7 + 8 - 3 + 9,25,25,24,26,1508.450727199961,1510.4781416999758,1511.9931908000144,1517.0117278999533,1519.279919399938,1519.2799243999762,1520.7964531999896,1521.8134814999648,q,25,2.268191499984823,1,+1,453,1.0463532805629416,0.8335336701544476,0.029347053919341226,1491611.0,5.905273669317033,0.8538383479370109,0.18668317615122243,1495145.0,20.348715741327286,-0.245607664348932,0.0869073382774499,1590442.0,1511.9942023049825,1508.4602023049827,1607.2912023049826
94,29,19,M,1,2,86.0,10,2,high,5 + 9 - 8 + 1 + 1,8,7,9,8,1523.3302792999311,1525.355443599925,1526.870397999941,1531.888377599942,1536.31206560001,1536.312071299937,1537.8287281999949,1538.846644699981,w,9,4.4236880000680685,0,+0,453,-31.184836453370153,0.36405326572797536,0.18447811512416523,1506488.0,11.36848459492574,0.042490371001027594,-0.18271428574840165,1510021.0,-4.979969871774475,-0.5472423304577538,0.07842567122817012,1534507.0,1526.8702023049825,1523.3372023049826,1551.3562023049826
95,29,19,M,1,2,87.0,11,2,high,9 + 5 - 6 + 1 - 1,8,9,8,7,1540.3636192000122,1542.3900310999595,1543.9046785999672,1548.9234816999524,1549.840024499979,1549.840029700019,1551.3569581999327,1552.3748058999772,w,8,0.9165428000269458,1,+10,463,18.765519175805935,0.4060101418488622,0.06782388997822197,1523522.0,-16.229925330264514,-0.2865290541465937,0.03854968736704256,1527056.0,-29.238232722754862,0.6646155258359667,0.15769717067567424,1548370.0,1543.9052023049826,1540.3712023049825,1565.2192023049824
96,29,19,M,1,2,88.0,12,2,low,6 + 8 + 1 + 1 - 7,9,8,11,9,1553.8912160000182,1555.9169192000409,1557.4327073000022,1562.4508006999386,1563.7040000999696,1563.7040065000183,1565.2211413999903,1566.238518899947,e,9,1.2531994000310078,1,+1,464,6.871149922041786,-0.026308742700499543,-0.06997857564830712,1537050.0,0.471476741062709,-0.09801179521318781,0.04928591681118011,1540583.0,34.53837512087852,-0.04982563992122513,0.27488944161011664,1645033.0,1557.4322023049826,1553.8992023049825,1661.8822023049825
97,29,19,M,1,2,89.0,13,3,low,7 - 1 + 9 - 5 + 4,14,14,13,15,1567.7550222999998,1569.7815692999284,1571.2969620000222,1576.3179037999944,1577.2000807999284,1577.2000856999657,1578.7166394999367,1579.73339629994,q,14,0.8821769999340177,1,+1,465,-7.925652226018283,-0.41118738657118703,-0.012710051817213852,1550914.0,13.558884851406436,0.2400674084562091,0.06470748420168371,1554450.0,3.1354288300526054,-0.12397976280094669,-0.11083843696989071,1561866.0,1571.2992023049826,1567.7632023049825,1578.7152023049825
98,29,19,M,1,2,90.0,14,3,low,9 - 5 - 1 - 6 + 8,5,5,4,7,1581.2498798999586,1583.2727693999768,1584.7881325999624,1589.807503399963,1592.2561092000103,1592.2561143999335,1593.77341850003,1594.7910772000323,w,4,2.448605800047517,0,+0,465,8.078552813651836,0.0574412696470068,-0.10177491080465484,1564405.0,8.266644611693113,0.12839853800183487,0.05827162016264342,1567940.0,-18.432254564246932,-0.019837521293298188,-0.08430421895719742,1604434.0,1584.7892023049826,1581.2542023049825,1621.2832023049825
99,29,19,M,1,2,91.0,15,4,high,7 + 6 - 4 + 9 - 5,13,13,12,14,1596.3076690999442,1598.332040899957,1599.84723949997,1604.8655118999886,1605.7761419999297,1605.7761470999685,1607.2927511999733,1608.309996099968,q,13,0.910630099941045,1,+10,475,-1.0499361196640429,-1.1255602915238212,0.011819249856391822,1579464.0,-20.129126558458093,0.5411557455172891,-0.1997256225159021,1582998.0,-36.68012649070538,-0.7995643849215575,-0.029701957876487883,1700457.0,1599.8472023049826,1596.3132023049825,1717.3062023049827
100,29,19,M,1,2,92.0,16,3,high,7 + 5 + 9 + 1 - 6,16,16,15,14,1609.826891099976,1611.8530411000247,1613.3680343999877,1618.3865463999682,1619.7680897999671,1619.7680951000077,1621.2848333999864,1622.3020149999647,q,16,1.3815433999989182,1,+10,485,-49.54536854435884,-0.6361652428069364,0.07292630587465165,1592985.0,12.653788568689075,0.25332656216170024,0.0045296302750277295,1596518.0,22.551972055856208,-0.6199620793237663,-0.24201400372684145,1617834.0,1613.3672023049826,1609.8342023049825,1634.6832023049826
101,29,19,M,1,2,93.0,17,3,high,8 - 1 + 6 - 7 + 5,11,11,13,12,1623.8189024000312,1625.8417292000377,1627.3571730999392,1632.377379100013,1633.1680875999737,1633.1680928000133,1634.684283700015,1635.7018326999969,q,11,0.7907084999606013,1,+10,495,-10.512689859657897,0.25407217697246764,-0.09259897164283482,1606974.0,8.47620157595913,1.0065511554173963,-0.1694821666478823,1610509.0,47.656150276968454,0.9371698852132604,-1.434012251887844,1756041.0,1627.3582023049826,1623.8232023049825,1772.8902023049825
102,29,19,M,1,2,94.0,18,1,high,7 - 1 + 9 + 1 - 1,15,14,15,13,1637.218458999938,1639.243187199987,1640.7584605999873,1645.7782455999986,1646.832227899984,1646.8322336000274,1648.3489155999268,1649.3660663000192,w,15,1.053982299985364,1,+10,505,4.061039995389358,-0.1605385302386626,0.15499982932446077,1620375.0,13.171261416687948,3.872206405192367,10.665006505765371,1623910.0,33.50493993943118,-0.50864070588004,0.023537261529403386,1658753.0,1640.7592023049826,1637.2242023049826,1675.6022023049825
103,29,19,M,1,2,95.0,19,2,high,7 + 5 + 1 - 1 - 8,4,2,3,4,1650.882753299957,1652.9095742999923,1654.4247660999536,1659.443555499951,1660.368167299952,1660.3681724999915,1661.8845620999928,1662.9015139999683,e,4,0.9246118000010028,1,+10,515,7.555576105281601,0.08261285061881152,-0.1439467039648239,1634041.0,14.802742666003901,0.11840877333012934,0.13051547617493986,1637575.0,-17.021163174673596,0.06662465297781894,0.15982000772516902,1672401.0,1654.4242023049826,1650.8902023049825,1689.2502023049826
104,29,19,M,1,2,96.0,20,1,low,6 + 1 + 1 + 7 - 1,14,12,14,13,1664.4181536000106,1666.4449444999336,1667.9601567999343,1672.9798534999718,1674.0882106000208,1674.0882158999448,1675.6047789999866,1676.621635999938,w,14,1.1083571000490338,1,+1,516,-6.0105085403455405,-0.33049950881861356,0.011153003077659651,1647577.0,7.316158538244036,0.44749617120800256,0.050682492371282306,1651112.0,35.79650875530389,0.39961795125807686,0.014139170375335741,1714089.0,1667.9612023049826,1664.4262023049826,1730.9382023049825
105,29,19,M,1,2,97.0,21,2,low,3 + 8 - 5 + 1 + 1,8,6,8,9,1678.1386537999497,1680.1667623000103,1681.682600500004,1686.7003177999868,1687.7360761999737,1687.73608100001,1689.2525578999775,1690.2694257000112,w,8,1.035758399986662,1,+1,517,-20.89072879319221,-0.21386466207922306,-0.04297784264565574,1661298.0,49.07573870539749,-0.5867040798703793,0.061884127170736214,1664832.0,0.948754348719766,-0.7814002524047456,-0.062061628559298754,1686953.0,1681.6812023049827,1678.1472023049826,1703.8022023049825
106,29,19,M,1,2,98.0,22,2,low,6 + 1 + 7 + 5 - 1,18,17,18,16,1691.78630420001,1693.8096588999615,1695.3249097000223,1700.342925099947,1702.2882065999438,1702.2882118999842,1703.8049116000184,1704.821548100037,w,18,1.9452814999967811,1,+1,518,-13.188550705692956,-0.5751743716658213,0.21733451646115398,1674941.0,-37.8855728290148,-0.06977829721507778,0.07523095369615529,1678475.0,-19.738460560561048,-0.1363604054224936,-0.026099718730773436,1853265.0,1695.3242023049825,1691.7902023049826,1870.1142023049827
107,29,19,M,1,2,99.0,23,4,high,6 + 5 - 7 + 8 - 9,3,5,3,4,1706.3382580000325,1708.3630130999372,1709.8782542999252,1714.8967601999757,1715.7921665999456,1715.792171899986,1717.308719200024,1718.3262769999565,w,3,0.8954063999699429,1,+10,528,-36.36815647673876,0.2734895440354066,0.055260964836779,1689494.0,-1.4431435975104172,-0.047939282972138564,0.0818259302470763,1693028.0,8.380642496846828,-0.8893024372080873,0.1877105807254087,1742273.0,1709.8772023049826,1706.3432023049825,1759.1222023049825
108,29,19,M,1,2,100.0,24,1,low,5 + 1 + 1 + 6 + 1,14,13,14,16,1719.843112499977,1721.8702767999494,1723.385585299984,1728.4036709999782,1729.4241558999638,1729.4241612000042,1730.9407151999767,1731.9575178999803,w,14,1.020484899985604,1,+1,529,-25.365848254192485,-0.5518232400185408,-0.07317216013839922,1703001.0,-31.017140765555933,-0.16647506364570752,0.08837485028286562,1706535.0,9.76381356076059,-0.17169677263868666,-0.32153290190852735,1727625.0,1723.3842023049826,1719.8502023049825,1744.4742023049826
109,29,19,M,1,2,101.0,25,1,low,6 + 9 + 1 + 1 - 1,16,16,15,14,1733.4742109999645,1735.498473399959,1737.0136434999877,1742.031573699962,1742.9601991000236,1742.9602044999483,1744.4766590999789,1745.4934324999922,q,16,0.9286254000617192,1,+1,530,-6.107745195477694,-0.23572030952428635,0.01509470861783968,1716629.0,11.979238566738314,0.23672883428676972,0.05597010625714738,1720163.0,4.667546560117971,-0.08832971595169337,0.12512878715722286,1783361.0,1737.0122023049826,1733.4782023049825,1800.2102023049827
110,29,19,M,1,2,102.0,26,4,high,7 + 6 - 9 + 8 - 3,9,8,7,9,1747.010474599956,1749.0382853999618,1750.5535159999854,1755.5720816000248,1757.608204499993,1757.6082098000334,1759.1246791999438,1760.141330799961,e,9,2.036122899968177,1,+10,540,2.297134978721857,0.49732298477047765,0.040366903741412496,1730169.0,12.5482998882558,0.005983999880479374,0.011786034186785477,1733703.0,9.403413172014762,0.21892000484950636,0.352824318133945,1826193.0,1750.5522023049825,1747.0182023049827,1843.0422023049825
111,29,19,M,1,2,103.0,27,3,low,3 + 1 + 8 - 5 + 9,16,16,15,17,1761.658993699995,1763.683031100023,1765.1989032999263,1770.2186845000251,1771.3761497999658,1771.376154800004,1772.8927630000398,1773.9093357000384,q,16,1.157465299940668,1,+1,541,-8.658574142453286,0.5986252789953284,-0.07539448618169198,1744814.0,23.264700103772448,0.19410538923235654,0.022760608509887703,1748349.0,19.958979503687686,-0.6101991272943428,0.13276534589561217,1797320.0,1765.1982023049825,1761.6632023049826,1814.1692023049825
112,29,19,M,1,2,104.0,28,4,low,4 + 7 + 9 - 5 + 7,22,22,24,23,1775.4261264999514,1777.45350829995,1778.9684850000194,1783.9868592999992,1784.9443490999402,1784.9443542999798,1786.4610312999575,1787.4783002000186,w,24,0.9574897999409586,0,+0,541,26.179241417734914,0.23124322839218747,-0.2496151892534373,1758584.0,1.3097786530177054,-0.3799867830076318,0.12464025731167183,1762118.0,23.121861607142215,-0.5358577509427951,-0.18078133178758904,1839648.0,1778.9672023049825,1775.4332023049826,1856.4972023049825
113,29,19,M,1,2,105.0,29,1,high,9 + 7 + 1 + 1 + 1,19,19,18,20,1788.9952017999603,1791.0233360999846,1792.538298499945,1797.5561633000034,1798.696256300027,1798.6962616999515,1800.2127281999565,1801.2298578000043,q,19,1.1400930000236258,1,+10,551,23.784740443896943,-2.1956108512969283,0.0822097847986516,1772154.0,-69.10873229801906,-0.4706715524614724,-0.044184785950941,1775687.0,9.072359694050625,0.47369518662809007,0.001443797990643425,1866936.0,1792.5362023049825,1789.0032023049826,1883.7852023049825
114,29,19,M,1,2,106.0,30,3,low,8 + 3 + 1 - 7 + 9,14,14,15,12,1802.7463319999515,1804.7704518000248,1806.285677900014,1811.3039299999944,1812.6562321000383,1812.6562372999613,1814.172915999952,1815.1896782999972,q,14,1.3523021000437438,1,+1,552,30.365995681509915,0.4589377474397258,0.2824576165440451,1785901.0,-11.31513326582757,-3.2601817136027273,0.08409471605770813,1789435.0,2.9688387891267105,-0.9004565596789433,2.4716049070904766,2013768.0,1806.2842023049825,1802.7502023049826,2030.6172023049826
115,29,19,M,1,2,107.0,31,4,low,7 + 6 - 9 + 8 - 3,9,7,8,9,1816.7069926999395,1818.7324714999995,1820.2476710000192,1825.267896400008,1828.064300100028,1828.064306599961,1829.5808959999704,1830.5977288999711,w,8,2.7964037000201643,0,+0,552,10.412703938502581,-0.5983525880241993,0.6609390415404275,1799864.0,-48.36774981060562,-0.8309213125986625,0.019791394079115232,1803399.0,12.103250961061146,-0.4519364992147228,0.10139265539719977,1942824.0,1820.2482023049824,1816.7132023049826,1959.6732023049826
116,29,19,M,1,2,108.0,32,4,high,4 + 7 + 8 - 3 + 9,25,25,26,24,1832.1143186999836,1834.1392706999904,1835.654467299988,1840.6748141999703,1841.5282595999888,1841.528264700028,1843.0448037000024,1844.0620191000053,q,25,0.853445400018245,1,+10,562,-29.281195495104853,-2.2465745458258137,-0.7870362766960508,1815270.0,25.467847629945204,-0.26611269008822536,0.03286248919444845,1818805.0,-11.715905535174981,-0.3274160276577325,0.16228182409717884,2000232.0,1835.6542023049826,1832.1192023049825,2017.0812023049825
117,29,19,M,1,2,109.0,33,4,high,5 + 7 - 4 - 6 + 9,11,12,11,13,1845.5788906999517,1847.6036586999544,1849.119094600028,1854.1377131000045,1854.984245600004,1854.984250999929,1856.5006799999971,1857.5177006000304,w,11,0.8465324999997392,1,+10,572,27.491895564124572,-0.027082620738480223,0.06660057141893683,1828734.0,-4.023374029966867,-0.4380682488814722,-0.12364019802245729,1832268.0,-8.877018022908219,-0.9117470063535755,-0.009848735997379787,2082455.0,1849.1172023049826,1845.5832023049825,2099.3042023049825
118,29,19,M,1,2,110.0,34,2,high,9 + 4 - 6 + 1 - 1,7,9,7,8,1859.034879999992,1861.061366799928,1862.5768459999815,1867.5950664999543,1868.600256500009,1868.600261699932,1870.1170616000309,1871.1338410999745,w,7,1.0051900000544265,1,+10,582,21.15994199422667,-0.7212376567751475,0.0710583619493328,1842192.0,1.9878082105277475,0.8724403594303753,-0.020302634479143045,1845726.0,16.775143605547743,-0.8748428606254661,0.042986944874805255,1986656.0,1862.5752023049827,1859.0412023049826,2003.5052023049825
119,29,19,M,1,2,111.0,35,1,high,5 + 6 + 1 + 1 + 1,14,16,13,14,1872.650577399938,1874.6758809999449,1876.1910838999904,1881.209521199984,1882.27235179994,1882.2723566999773,1883.7886015999247,1884.805852899968,e,14,1.0628305999562144,1,+10,592,4.190273003714079,-1.302518517088954,0.08373419553384331,1855806.0,17.629887523224422,0.2536458159600947,-0.030805635694587608,1859340.0,-1.9608751376417928,-1.2267735559265152,2.127374275613624,1895056.0,1876.1892023049825,1872.6552023049826,1911.9052023049826
120,29,19,M,1,2,112.0,36,4,low,5 + 7 - 4 + 8 + 6,22,23,22,24,1886.3225155999532,1888.3483134999988,1889.8637160999351,1894.8838439999963,1896.712376899959,1896.7123820999984,1898.228933599952,1899.246097900032,q,23,1.8285328999627384,0,+0,592,-23.422966345519647,-0.050002505261369734,0.8069101478276719,1869479.0,-11.990989475508723,-3.1717119788047246,-0.39761910772480746,1873014.0,7.496626793679738,-0.8406392115573587,0.08799686648207294,2124559.0,1889.8632023049825,1886.3282023049826,2141.4082023049828
121,29,19,M,1,2,113.0,37,1,high,6 + 9 + 1 + 1 - 1,16,15,14,16,1900.7632333000076,1902.790347299946,1904.3056166000315,1909.3236576000345,1910.3922896999284,1910.392294499965,1911.9087630999857,1912.925803699938,e,16,1.0686320998938754,1,+10,602,36.424967436952414,-3.2735275141725246,-0.16001213597471287,1883921.0,19.147733716823396,-4.93218085897951,0.07233857953376721,1887454.0,14.019575986549304,-0.5156848551954729,-0.2960400303677051,1956416.0,1904.3032023049825,1900.7702023049826,1973.2652023049825
122,29,19,M,1,3,114.0,0,4,high,3 + 9 - 5 + 6 + 8,21,21,23,22,1946.9646437999909,1948.9914943000183,1950.50668089994,1955.52588339994,1958.160289499967,1958.1602960000164,1959.6773171999373,1960.694594099943,q,21,2.634406100027263,1,+10,612,19.99615463519641,0.7600971374187937,-1.7597299033625906,1930121.0,6.585035363511184,-0.5939706640002571,-0.1556705069880968,1933656.0,29.60236938683706,1.0032007414299526,0.1785892149661381,2153600.0,1950.5052023049825,1946.9702023049826,2170.4492023049825
123,29,19,M,1,3,115.0,1,1,low,5 + 1 + 1 + 9 + 1,17,17,19,16,1962.211530800036,1964.2348381999764,1965.7499529999327,1970.767650199996,1971.7523664000328,1971.7523714999552,1973.269428700034,1974.286243300012,q,17,0.984716200036928,1,+1,613,15.972718714291423,-0.40237775434559175,0.03814106314862942,1945365.0,0.37520230412667566,-0.3112631648218098,-0.05291455166073833,1948898.0,-24.209669896864852,0.4820745616361153,0.11874184717356284,2041576.0,1965.7472023049825,1962.2142023049826,2058.4252023049826
124,29,19,M,1,3,116.0,2,4,low,5 + 7 - 4 + 6 + 9,23,25,24,23,1975.8029953999796,1977.8291849999805,1979.3443382999976,1984.362719200028,1985.9603849999255,1985.9603897999625,1987.47723889997,1988.4948931999388,w,24,1.5976657998980954,0,+0,613,-8.71125093958075,-0.11028559516266867,0.4715893074470001,1958959.0,26.43587765301748,0.02900842641149204,0.12477836693741606,1962493.0,-8.109782517587663,0.692296569522572,2.726100690861564,2167166.0,1979.3422023049825,1975.8082023049826,2184.0152023049827
125,29,19,M,1,3,117.0,3,2,high,4 + 1 + 9 + 1 - 6,9,8,9,7,1990.0124349999824,1992.035619500035,1993.550867999962,1998.568541899964,2001.9924355999683,2001.992440800008,2003.509027399996,2004.5262870999868,w,9,3.4238937000045557,1,+10,623,0.2788857083864933,0.20394424889576346,-0.008634906222481753,1973165.0,15.2196550368855,0.1893930366877825,-0.06572466828130752,1976699.0,21.430831322366636,-1.0222206205679756,-0.020011008133906216,2096087.0,1993.5482023049826,1990.0142023049825,2112.9362023049825
126,29,19,M,1,3,118.0,4,4,high,8 + 5 - 4 + 7 + 9,25,25,24,26,2006.0430756999997,2008.0688409000288,2009.5837368999487,2014.6021219000104,2015.5684754000397,2015.5684805999624,2017.085135500005,2018.1024788999348,q,25,0.9663535000290722,1,+10,633,14.55870505898966,0.24421320479139208,0.010989663847818187,1989199.0,-0.08335517884763988,-0.3616471532303489,0.01341762380170386,1992732.0,9.534163481593605,-1.5399523526792134,0.19117244629422103,2180751.0,2009.5812023049825,2006.0482023049826,2197.6002023049828
127,29,19,M,1,3,119.0,5,3,high,3 - 7 + 5 + 1 + 9,11,12,13,11,2019.6191925999592,2021.6441577999503,2023.1594122000388,2028.1779459999525,2029.1044633000276,2029.1044685999516,2030.6209945999435,2031.638532599958,e,11,0.92651730007492,1,+10,643,-0.4792115770973169,-0.6102154604984982,-0.12948144536178496,2002773.0,-0.6926996388889854,-1.3004440086197464,0.10906712408881325,2006307.0,28.058697490667974,0.4551147197057652,11.104914486188074,2027384.0,2023.1562023049826,2019.6222023049825,2044.2332023049826
128,29,19,M,1,3,120.0,6,3,high,5 - 1 - 4 + 6 + 7,13,14,15,13,2033.155280200008,2035.179917499947,2036.6952063999488,2041.713707399962,2042.7205104999596,2042.7205160000008,2044.237053899968,2045.25437489996,e,13,1.0068030999973416,1,+10,653,-29.187292568862485,-1.4836000865359544,-0.352648269228528,2016310.0,6.343255914094808,-0.3584773429590946,-0.06660289097410899,2019843.0,-3.569540593506093,0.8914581086307098,-0.9254818327060148,2055160.0,2036.6922023049826,2033.1592023049825,2072.0092023049824
129,29,19,M,1,3,121.0,7,1,high,4 + 8 + 1 - 1 - 1,11,13,11,9,2046.7710671999373,2048.7967888999847,2050.311868800025,2055.329957499925,2056.912439400039,2056.912444699963,2058.4289866999607,2059.4464001999586,w,11,1.5824819001136348,1,+10,663,3.366266231099817,-0.7515979374641226,-0.9548364538727485,2029926.0,4.989349003292039,-0.26241225215098574,0.12186478828813652,2033459.0,16.33146094894527,0.14393980198960676,-0.17497290741375027,2194215.0,2050.308202304983,2046.7752023049825,2211.0642023049827
130,29,19,M,1,3,122.0,8,3,high,5 + 1 + 7 - 8 + 6,11,9,13,11,2060.963042600022,2062.9898435000214,2064.5048212999827,2069.523379399965,2070.4964737999835,2070.4964792000246,2072.012992700038,2073.030262299988,e,11,0.9730944000184536,1,+10,673,19.59449937463435,-0.18264322628536878,0.3681017013719312,2044119.0,4.453050719016657,1.3487026014045878,0.037105350062757836,2047653.0,3.9014382930591385,-0.5567485877912581,-0.07334904484495985,2068663.0,2064.502202304983,2060.9682023049827,2085.5122023049826
131,29,19,M,1,3,123.0,9,3,high,4 + 8 - 9 + 1 + 7,11,11,9,13,2074.5473006000398,2076.5704927000334,2078.0856700000004,2083.106205500022,2084.000485900033,2084.000491499959,2085.51703659998,2086.5343179000192,q,11,0.8942804000107571,1,+10,683,26.774127290296157,1.3665265873911396,-0.1200184826046855,2057700.0,0.898001135016937,-1.0636731360114116,0.08226748702906828,2061235.0,-2.4534350714727626,0.7694507137887046,0.055221179317817004,2140015.0,2078.0842023049827,2074.5492023049824,2156.8642023049824
132,29,19,M,1,3,124.0,10,4,low,5 + 8 - 4 - 6 + 9,12,14,12,13,2088.050990299962,2090.0780562,2091.593341299973,2096.612660099927,2097.792548199941,2097.7925546999904,2099.309200699965,2100.326012200036,w,12,1.1798881000140682,1,+1,684,0.11147191658937539,0.19804440757458774,0.03384786770479953,2071207.0,10.974073044699104,-6.818797309534457,-15.965480278128304,2074742.0,0.40153086829427664,0.16945305915826392,0.3231321695466063,2261926.0,2091.5912023049827,2088.0562023049824,2278.7752023049825
133,29,19,M,1,3,125.0,11,2,low,2 + 1 + 9 - 4 + 1,9,8,9,11,2101.8429359000293,2103.867326599953,2105.3828789999825,2110.4017409999506,2111.424534699938,2111.424539699976,2112.941081899975,2113.957858800015,w,9,1.022793699987233,1,+1,685,-19.672087400353405,-1.0813467276781061,-0.7906420280249085,2084996.0,7.899292823653601,-0.39278710646251636,-0.10821650036623365,2088531.0,32.28682835111499,0.40431786986097684,0.8210207999556554,2109783.0,2105.3802023049825,2101.8452023049826,2126.6322023049825
134,29,19,M,1,3,126.0,12,2,high,4 + 9 - 7 + 1 - 1,6,8,5,6,2115.4746442000032,2117.501535899996,2119.0165436999523,2124.034813999955,2125.1205450000125,2125.1205502999364,2126.6372709000134,2127.6544317999505,e,6,1.0857310000574216,1,+10,695,26.744859057162934,-0.5250141260002215,-1.8078589726374643,2098631.0,29.643603035913834,-0.8282457299635047,-4.2944844529264525,2102164.0,2.086118072803064,0.5236625141924272,-0.21702621205694794,2289046.0,2119.0132023049828,2115.4802023049824,2305.8952023049824
135,29,19,M,1,3,127.0,13,4,low,8 + 7 - 4 + 5 + 9,25,24,25,26,2129.1711146999733,2131.195661200036,2132.7109150000038,2137.729322300001,2139.8965413999395,2139.896546799981,2141.413118699973,2142.4299866000074,w,25,2.167219099937938,1,+1,696,-14.202402618381328,-1.2220278983916142,-6.040085566163567,2112325.0,6.106115845786812,1.2311862453208464,2.4786621115184446,2115858.0,18.10975825375559,-0.00016145858713390027,-0.08947041068180228,2275430.0,2132.7072023049827,2129.1742023049824,2292.2792023049824
136,29,19,M,1,3,128.0,14,3,low,7 + 1 + 9 + 5 - 6,16,15,16,14,2143.946954399988,2145.972756399948,2147.488050099986,2152.50634849997,2155.352524899936,2155.352530199976,2156.8690696999547,2157.8856955000083,w,16,2.8461763999657705,1,+1,697,-3.9437057743102617,0.9247214873113876,0.10351382216168292,2127102.0,-16.581328606524842,0.43312670716136736,0.14917671200485016,2130635.0,-4.990189194245623,0.9209287775132111,-0.002553211039261205,2248391.0,2147.484202304983,2143.9512023049824,2265.2402023049826
137,29,19,M,1,3,129.0,15,4,high,7 + 8 - 4 + 6 - 5,12,11,13,12,2159.403270199953,2161.4283094999264,2162.943596700032,2167.961884999939,2168.936466199986,2168.936471300025,2170.453221499978,2171.471191800025,e,12,0.974581200047396,1,+10,707,14.522279041807778,-0.8916984838270015,-4.76671552109161,2142557.0,-40.88682771180709,0.11465832172059365,-0.18310404424297433,2146091.0,-39.54397494946509,-0.35214943347293115,0.04766934734158634,2426662.0,2162.9402023049824,2159.4062023049823,2443.5112023049824
138,29,19,M,1,3,130.0,16,4,low,3 + 8 - 4 + 9 + 7,23,24,23,22,2172.988340499985,2175.016163499968,2176.5314115000074,2181.549414499954,2182.504477399925,2182.5044822999625,2184.02068529994,2185.0373396999785,w,23,0.9550628999713808,1,+1,708,16.648972800372604,-0.9623773773862485,4.108334021803542,2156145.0,-11.266405946736507,-2.2786165371149067,-6.015143996960919,2159679.0,15.575916199128727,-0.4774965477624473,0.019725612952499194,2638629.0,2176.5282023049826,2172.9942023049825,2655.4782023049825
139,29,19,M,1,3,131.0,17,4,low,9 + 8 - 5 - 7 + 6,11,13,10,11,2186.553800999944,2188.5786489999737,2190.0938314999803,2195.1125711999484,2196.088541199977,2196.088547000021,2197.605095099949,2198.6216586999944,e,11,0.9759700000286102,1,+1,709,18.286199136039233,0.452807005791124,-0.18796653835157962,2169707.0,5.634365108579331,0.0016168297230763073,-0.2191067262867863,2173241.0,14.076612444159041,-0.4076707403317501,0.16352815136390442,2681804.0,2190.0902023049825,2186.5562023049824,2698.6532023049826
140,29,19,M,1,3,132.0,18,1,high,4 + 1 + 1 + 7 - 1,12,12,14,13,2200.1382937000017,2202.1638561,2203.6792282999377,2208.697471399966,2209.552533799957,2209.5525386999943,2211.0690264999284,2212.086280699994,q,12,0.8550623999908566,1,+10,719,14.977457207242113,-0.18304849488862907,0.10288343101466779,2183293.0,4.45613968989322,-0.3796189965205379,0.15936256049114328,2186826.0,-21.36122991693395,2.147236732472809,-0.07084222358567183,2207710.0,2203.6752023049826,2200.1422023049827,2224.5592023049826
141,29,19,M,1,3,133.0,19,1,low,3 + 1 + 1 + 9 - 1,13,13,12,14,2213.603223400016,2215.630289899942,2217.1454801000077,2222.163436899951,2223.048634399951,2223.04863949999,2224.565173000039,2225.5824862999725,q,13,0.8851974999997765,1,+1,720,-27.235276147077933,-1.1513603382383106,-0.053444688711822064,2196759.0,7.455597844524709,-0.4595991358333311,0.3440234742099135,2200292.0,1.2110380022420166,-0.09136627796543273,-0.004691340118124332,2221439.0,2217.1412023049825,2213.6082023049826,2238.2882023049824
142,29,19,M,1,3,134.0,20,1,low,5 + 8 - 1 + 1 + 1,14,12,14,16,2227.099023299932,2229.1230629999773,2230.6382439999725,2235.656598700036,2236.7765360000194,2236.776540999941,2238.293168700009,2239.310276500008,w,14,1.119937299983576,1,+1,721,-11.88091285834598,-0.5889250356756435,0.05888884398510297,2210251.0,22.374200830375557,0.2519317061791355,0.14309087925875152,2213785.0,35.973317966265405,-0.09714304584588795,-0.05639030607462403,2235030.0,2230.6342023049824,2227.1002023049828,2251.8792023049828
143,29,19,M,1,3,135.0,21,1,low,6 + 1 + 8 + 1 + 1,17,16,17,15,2240.827020000026,2242.852108800027,2244.3675279999734,2249.386133699969,2250.368625399948,2250.3686307999888,2251.8850914999493,2252.9018675999832,w,17,0.9824916999787092,1,+1,722,14.398098588814934,0.1952062538106123,0.07137497580383534,2223980.0,21.017155992324497,-6.237889776354736,0.05085064562208497,2227515.0,0.2943329104151431,0.4740944987940354,0.72256632078913,2317446.0,2244.3642023049824,2240.8292023049826,2334.2952023049825
144,29,19,M,1,3,136.0,22,3,high,3 + 1 + 6 - 8 + 9,11,12,11,13,2254.4189124999684,2256.445756699948,2257.961101700028,2262.979256899969,2263.728668500029,2263.728673799953,2265.245189499983,2266.262310399965,w,11,0.7494116000598297,1,+10,732,16.932924672806326,-0.6908790982106616,-0.06913100671334282,2237574.0,1.2076445052441507,-0.4131118864989878,0.050622853828952374,2241108.0,35.98451124991254,-0.09540260328487449,-0.09037655028297453,2440502.0,2257.9572023049827,2254.4232023049826,2457.3512023049825
145,29,19,M,1,3,137.0,23,4,high,8 + 4 - 5 + 7 - 6,8,8,6,7,2267.779152000032,2269.80313039996,2271.3191081999685,2276.337724899932,2277.264674100036,2277.2646791999578,2278.7810698999674,2279.798142299929,q,8,0.9269492001039908,1,+10,742,34.29173385695636,-0.47678023352421484,0.031542690566013665,2250931.0,-3.238959767356244,-0.21546413712790358,-0.21178528694766197,2254466.0,-20.03345950097251,-0.13228497668635342,0.17456072294694436,2764540.0,2271.3152023049824,2267.7802023049826,2781.3892023049825
146,29,19,M,1,3,138.0,24,4,low,4 + 7 - 8 + 9 - 4,8,7,8,9,2281.3149282000377,2283.338197700039,2284.853232799971,2289.873230399972,2290.7685616999515,2290.768566999992,2292.285191500036,2293.3025227999897,w,8,0.895331299980171,1,+1,743,34.08630753881115,1.361887376934316,-0.21551418627341357,2264467.0,0.2604188164611845,-1.4897406756138638,0.022229400448045666,2268002.0,-17.414071048490197,0.05568645637490732,-0.09117578556112083,2806972.0,2284.8512023049825,2281.3162023049827,2823.8212023049828
147,29,19,M,1,3,139.0,25,2,high,5 - 1 + 1 + 8 + 9,22,22,23,21,2294.819224200037,2296.8455078999395,2298.3607024000376,2303.37897260004,2304.384706599929,2304.384712099971,2305.901001100021,2306.918505300011,q,22,1.005733999889344,1,+10,753,6.862912386036802,-0.3923856144610518,-0.06325140426556763,2277973.0,7.322716939688724,0.40057624267863723,0.051658327875459875,2281507.0,-21.16068815500843,-0.7918586469483664,0.057470932433573596,2358294.0,2298.3562023049826,2294.8222023049825,2375.1432023049824
148,29,19,M,1,3,140.0,26,3,high,9 - 1 + 5 - 6 + 8,15,15,14,17,2308.434991499933,2310.460482699971,2311.975724299962,2316.993657799961,2319.352719800023,2319.352724999946,2320.8692354999366,2321.886794299993,e,17,2.3590620000613853,0,+0,753,4.7564491608412816,-0.41927461880831096,-0.1379419997070308,2291588.0,6.72379055205257,-0.5354845472722118,0.12711217608106673,2295122.0,-50.335220817860964,-0.08834390367938205,0.024634937906062193,2454190.0,2311.9712023049824,2308.4372023049827,2471.0392023049826
149,29,19,M,1,3,141.0,27,1,high,7 + 1 + 4 + 1 - 1,12,12,11,13,2323.4034300000058,2325.4260223999736,2326.941275899939,2331.9596829999355,2332.7846604999504,2332.784665399988,2334.3011782999965,2335.318574099976,q,12,0.8249775000149384,1,+10,763,-24.822426870782596,-1.7556709343786068,0.90560735947534,2306554.0,40.222848592329,-3.109253749860814,-0.033175208510379806,2310088.0,7.934838403351705,0.916509094278048,-0.14380191900024508,2331014.0,2326.9372023049827,2323.4032023049826,2347.8632023049827
150,29,19,M,1,3,142.0,28,1,low,5 + 6 + 1 + 1 + 1,14,14,16,15,2336.83551439998,2338.8600267000147,2340.3751789000235,2345.3924152999534,2346.3527967000264,2346.352802099951,2347.869288899994,2348.886133199965,q,14,0.9603814000729471,1,+1,764,20.66376850374354,-1.263222525099878,0.1400514858209463,2319988.0,22.56792071288972,0.041843650297555435,0.1321576463088845,2323521.0,18.138684953660146,-0.20820936296881154,0.01604540050066361,2344638.0,2340.3702023049827,2336.8372023049824,2361.4872023049825
151,29,19,M,1,3,143.0,29,1,high,3 + 1 + 8 + 1 + 1,14,13,16,14,2350.402739099984,2352.4305116999312,2353.945645000029,2358.963674899948,2359.9766642000177,2359.976669999945,2361.4933945999364,2362.5105134000187,e,14,1.0129893000703305,1,+10,774,-23.068937813006087,-1.29000773019337,-0.13214957296959784,2333559.0,-19.058582578116173,0.5494250087138735,0.08628856850708133,2337092.0,-29.595092870574515,0.031814432981662755,0.056054262626586526,2372150.0,2353.9412023049827,2350.4082023049828,2388.9992023049826
152,29,19,M,1,3,144.0,30,2,high,4 + 7 + 1 + 1 - 8,5,7,4,5,2364.027909700002,2366.0535435999627,2367.5688295999425,2372.587501399976,2373.6327034999267,2373.6327086999663,2375.1491281999624,2376.1661019999883,e,5,1.045202099950984,1,+10,784,8.51272524204084,-0.9872933121478908,0.7030132081748015,2347181.0,-0.8787366697142271,-5.300724096347313,-12.294527270186627,2350715.0,8.187894432188394,0.032516980006382035,-0.03658283305687937,2399398.0,2367.5642023049827,2364.0302023049826,2416.2472023049827
153,29,19,M,1,3,145.0,31,1,low,7 + 1 + 5 + 1 - 1,13,12,14,13,2377.6834797999472,2379.709265600017,2381.224513299938,2386.2427158000064,2387.488782199973,2387.488788800023,2389.0056198000093,2390.0221934000147,e,13,1.2460663999663666,1,+1,785,-15.002091299855426,-0.22950456568312383,-0.0009436470999903968,2360837.0,-32.15001062331052,-0.10902282685878095,0.025840183555562612,2364370.0,6.328331489338927,0.3554834588953355,0.06891589952574062,2385711.0,2381.2192023049824,2377.6862023049825,2402.5602023049823
154,29,19,M,1,3,146.0,32,1,low,5 + 9 - 1 + 1 + 1,15,17,13,15,2391.5391472000047,2393.562476399995,2395.077143000032,2400.09521749994,2401.048775399977,2401.0487811000203,2402.566325099964,2403.5829817000194,e,15,0.9535579000366852,1,+1,786,-55.5427695285735,-0.24351018074783326,0.1305947458211063,2374690.0,4.323811921911982,0.8575088513181734,4.134472453408603,2378223.0,10.433416267419135,0.33056231358380117,-0.06106755324869284,2413045.0,2395.0722023049825,2391.5392023049826,2429.8942023049826
155,29,19,M,1,3,147.0,33,2,high,3 + 8 + 1 - 5 + 1,8,6,8,9,2405.0994860999635,2407.1245577999507,2408.639807200001,2413.657879300008,2414.7367266000365,2414.736731999961,2416.2532059000223,2417.270475999976,w,8,1.0788473000284284,1,+10,796,10.514142952390898,0.622049753549442,0.1013282256921515,2388252.0,-43.87507375631253,-0.6080000600539446,0.0016659813818196145,2391785.0,-30.611315912902636,-1.0808434206144923,-0.0005441675543305102,2528669.0,2408.6342023049824,2405.1012023049825,2545.5182023049824
156,29,19,M,1,3,148.0,34,1,low,6 + 1 + 1 + 9 - 1,16,14,16,15,2418.7873968999484,2420.8127155999537,2422.327701699978,2427.3458904999425,2428.384793400008,2428.38479849993,2429.901383700024,2430.918889100023,w,16,1.0389029000652954,1,+1,797,-4.065891846111009,0.14024269475697793,0.2263483904259711,2401940.0,62.15836791692027,0.03904476360935316,0.10973699904535161,2405473.0,-24.005629852369193,-0.23822111459335682,0.11241819608934334,2695453.0,2422.3222023049825,2418.7892023049826,2712.3022023049825
157,29,19,M,1,3,149.0,35,4,high,6 + 7 + 9 - 3 + 5,24,23,22,24,2432.436149700021,2434.46142909996,2435.9766276999726,2440.9968223999604,2442.000824799936,2442.000829899974,2443.517449899984,2444.534571799973,e,24,1.004002399975434,1,+10,807,-20.317172672304164,0.2649807274449234,0.09433651338580207,2415589.0,22.874032956976958,0.33376093015425656,0.14249860152756444,2419124.0,3.402970701014005,-0.0826835982845564,-0.06887988642314524,2863251.0,2435.9732023049824,2432.4382023049825,2880.1002023049828
158,29,19,M,1,3,150.0,36,3,low,6 + 7 + 8 + 1 - 9,13,14,15,13,2446.051328499976,2448.075532999996,2449.590819699981,2454.6092156000086,2455.8408363999915,2455.840841600031,2457.357683099981,2458.3745404999354,e,13,1.2316207999829203,1,+1,808,7.1779735730891225,-0.463712713811713,0.08931166123546719,2429203.0,-11.058667355110519,-0.2704501148946328,0.014743646654967968,2432737.0,5.731336828518735,-1.0752431444451345,-2.049153033734668,2501526.0,2449.5862023049826,2446.0522023049825,2518.3752023049824
159,29,19,M,1,3,151.0,37,3,low,6 + 8 + 7 + 1 - 9,13,14,13,15,2459.892013600038,2461.918892299931,2463.4350522999302,2468.453632599965,2469.5288217999623,2469.5288275000057,2471.045713599946,2472.063119600003,w,13,1.0751891999971122,1,+1,809,21.816199507916224,0.4732179139651045,0.018458140482834784,2443046.0,-32.95320064051029,0.3206941193067898,0.16251540096033157,2446581.0,3.485319479716167,0.14200305800377322,0.2344695876353895,2515197.0,2463.4302023049827,2459.8952023049824,2532.0462023049827
160,29,19,M,1,4,152.0,0,3,low,3 + 8 + 1 + 5 - 9,8,7,9,8,2507.236934799992,2509.2651102999807,2510.7801629999303,2515.7996828000178,2516.865627699939,2516.8656336999848,2518.3819510000176,2519.3987306999625,e,8,1.0659448999213057,1,+1,810,-49.14175243260463,9.07784664450508,12.890911962897539,2490392.0,24.510744739864272,-1.8488183587723377,-5.3766735844081595,2493927.0,-13.769353542474825,0.6834609016300477,-0.04017508678658066,2542182.0,2510.7762023049827,2507.2412023049824,2559.0312023049823
161,29,19,M,1,4,153.0,1,3,high,3 + 1 + 8 - 5 + 6,13,15,14,13,2520.916095899942,2522.9424023000174,2524.457614300016,2529.475859399943,2530.536759199982,2530.5367644000216,2532.053189999948,2533.0705783999874,e,13,1.0608998000388965,1,+10,820,-9.087263416629643,0.21427572628716085,-0.29437940697039977,2504069.0,-9.157125010267706,-1.2309411141119968,-1.5890524898831426,2507603.0,-25.414995312152758,-0.4577072448802322,0.40183953259107064,2555701.0,2524.4522023049826,2520.9182023049825,2572.5502023049826
162,29,19,M,1,4,154.0,2,2,high,8 + 1 + 1 + 9 - 4,15,15,14,16,2534.587270899967,2536.6144431,2538.12973049999,2543.14768679993,2544.008895100036,2544.008900499961,2545.5253528999747,2546.5422172999824,q,15,0.8612083001062274,1,+10,830,14.632123757662526,-0.025836120252539896,0.053275663008736984,2517741.0,2.028725779565943,0.2938265836946079,1.6575301825321236,2521274.0,-42.0756873021327,0.47319918187967636,0.10530566199189906,2569749.0,2538.1232023049824,2534.5902023049825,2586.5982023049824
163,29,19,M,1,4,155.0,3,3,low,3 + 8 - 7 - 1 + 9,12,14,13,12,2548.0588297999348,2550.0851213000133,2551.6008110999246,2556.620836600021,2557.520808299945,2557.520813899988,2559.038162599958,2560.0553874000325,e,12,0.8999716999242082,1,+1,831,-47.13132219922328,0.4070573862759663,-0.20019633209352783,2531212.0,4.937660549893824,0.12883428899314797,-0.15737659032508322,2534748.0,64.12155095009302,0.07920314660737127,0.023693370466590924,2583557.0,2551.5972023049826,2548.0612023049825,2600.4062023049823
164,29,19,M,1,4,156.0,4,3,low,7 - 5 + 9 + 1 - 4,8,7,8,9,2561.5718130999594,2563.5963300000294,2565.1116096999613,2570.129899599997,2571.040992799972,2571.0409983000136,2572.557757500035,2573.574378099933,w,8,0.9110931999748572,1,+1,832,-22.349434620998625,-0.6185647608939462,-0.1408703825844202,2544723.0,16.727902567987094,0.3873412136217653,-0.12103246526152844,2548256.0,5.949004035008349,0.339501363986483,-2.0313934760092147,2597285.0,2565.1052023049824,2561.5722023049825,2614.1342023049824
165,29,19,M,1,4,157.0,5,2,high,2 + 1 + 9 - 4 + 1,9,9,8,11,2575.09126299998,2577.117013800016,2578.6322837999905,2583.6505251000053,2585.0889997999766,2585.089005100017,2586.605712799996,2587.622649899975,q,9,1.438474699971266,1,+10,842,-6.992009917504856,0.03561892284592938,-0.1475732332243762,2558243.0,32.25361491921973,0.07861865384185318,-0.010476179195100244,2561777.0,-21.543205013274616,0.10939111513358135,0.10250469388403971,2611165.0,2578.6262023049826,2575.0922023049825,2628.0142023049825
166,29,19,M,1,4,158.0,6,3,low,7 - 1 + 8 - 6 + 4,12,13,11,12,2589.1389277999406,2591.1666451999336,2592.6824708999484,2597.7009697999456,2598.8970002999413,2598.8970055999816,2600.413510699931,2601.430384700012,e,12,1.196030499995686,1,+1,843,-37.109664371450634,-0.053712875604177146,-0.03740822392929566,2572293.0,-7.824046111536509,-0.20543652681725533,-0.00647532723676969,2575827.0,-31.794952313296502,0.4969678173369263,0.05728532449694557,2624796.0,2592.676202304983,2589.1422023049827,2641.6452023049824
167,29,19,M,1,4,159.0,7,3,high,4 + 7 - 3 + 5 - 1,12,12,13,11,2602.948048599937,2604.9715435000253,2606.486637199938,2611.5053662999417,2612.624936699925,2612.624941999966,2614.1416356999543,2615.158974399965,q,12,1.119570399983786,1,+10,853,5.497440815263557,3.900145839006395,-0.015088806965365187,2586098.0,-22.256886403512123,-0.7495659837690889,-0.33209564380038836,2589632.0,-55.85342811242128,0.032761641812435016,-0.11246358222462582,2652485.0,2606.4812023049826,2602.9472023049825,2669.3342023049827
168,29,19,M,1,4,160.0,8,2,low,8 + 1 + 9 + 1 - 5,14,14,13,15,2616.675407899951,2618.699357900012,2620.2145884000347,2625.232471199997,2626.50493799994,2626.504943399981,2628.0214577000006,2629.0383539000177,q,14,1.2724667999427766,1,+1,854,-9.4709190777904,-0.37204822846200836,-0.18271909673461328,2599826.0,-2.696283549139226,-0.1264238443385013,0.19736831338336414,2603359.0,-9.025513578208653,-0.5453354525700158,0.001535366023496021,2666012.0,2620.2082023049825,2616.6752023049826,2682.8612023049827
169,29,19,M,1,4,161.0,9,3,low,6 - 1 + 7 - 8 + 9,13,13,12,11,2630.555246600008,2632.5825979000074,2634.0979357000324,2639.11674909998,2640.136913699971,2640.1369190000114,2641.653340300021,2642.6703582000337,q,13,1.0201645999914035,1,+1,855,-37.67515198048491,-0.07072614053218107,-0.01683262436332278,2613709.0,14.383112163920643,0.2872375563591745,0.05271814509568573,2617243.0,-46.27944760298837,-0.2521202999183685,-0.13680206795382732,2723036.0,2634.0922023049825,2630.5582023049824,2739.8852023049826
170,29,19,M,1,4,162.0,10,4,low,5 + 6 - 4 + 7 + 9,23,25,23,24,2644.1869632999296,2646.21336949995,2647.7286530000274,2652.747000700037,2653.96887729998,2653.9688825000194,2655.48612159997,2656.5026835000026,w,23,1.221876599942334,1,+1,856,-9.43953834818403,0.4164089195788141,0.04200169516079888,2627339.0,24.415021765313615,0.03707707141518535,0.32252327103920453,2630873.0,24.46201823870197,-0.3721510650270776,6.410892447657407,2963339.0,2647.7222023049826,2644.1882023049825,2980.1882023049825
171,29,19,M,1,4,163.0,11,3,high,6 - 1 + 7 - 8 + 9,13,12,13,11,2658.019409200002,2660.0470990000176,2661.5619338999386,2666.581210800039,2667.824969100009,2667.824974099931,2669.341660099977,2670.358763499942,w,13,1.243758299970068,1,+10,866,-2.038179649927443,0.39371530384442943,-0.1933953597744913,2641173.0,20.002459124817797,-0.17804130730071455,-0.0005468256567406904,2644707.0,-10.477753866896489,-0.10030975401962117,-16.4277146649652,2750877.0,2661.5562023049824,2658.0222023049823,2767.7262023049825
172,29,19,M,1,4,164.0,12,2,high,2 + 9 + 1 + 1 - 5,8,6,8,7,2671.875379500037,2673.9022734999307,2675.4176395999384,2680.435405099939,2681.353036999993,2681.3530424000346,2682.869234099926,2683.886157800036,w,8,0.9176319000544026,1,+10,876,-87.2065076828204,-0.518707787142358,-0.03872458149061453,2655028.0,5.684817967928391,-0.055372111044920125,-0.12961619688591952,2658562.0,-32.507925504486316,0.4152503506521801,0.04350413109856288,2792380.0,2675.4112023049825,2671.8772023049823,2809.2292023049827
173,29,19,M,1,4,165.0,13,4,low,6 + 9 + 7 - 3 - 5,14,15,14,13,2685.403006999928,2687.4270230000257,2688.943059400015,2693.962138700008,2697.1450048999977,2697.14501040004,2698.661648499954,2699.67864759994,w,14,3.182866199989803,1,+1,877,36.626827053621106,0.3698563259357055,0.012671707009273447,2668553.0,-63.419528430382,-0.23583037462883638,-0.0486069389631536,2672088.0,-1.3096793395751223,-0.14402152714799143,0.06982514397542006,2976884.0,2688.9372023049827,2685.4022023049824,2993.7332023049826
174,29,19,M,1,4,166.0,14,1,high,9 + 1 + 1 + 7 - 1,17,17,19,16,2701.195327299938,2703.2230222999933,2704.7383166000363,2709.758303999959,2710.792939200008,2710.7929440999287,2712.309823599935,2713.3271545000025,q,17,1.0346352000487968,1,+10,887,-12.35091065824873,-0.12025731268473816,-0.007782931229415979,2684349.0,1.8194818926860705,0.09240316581678965,0.0312765785350666,2687884.0,-16.530828353417157,-0.3054049338150735,-0.11742340998347478,2709356.0,2704.7332023049826,2701.1982023049827,2726.205202304983
175,29,19,M,1,4,167.0,15,1,low,9 + 8 + 1 + 1 - 1,18,18,20,17,2714.844028099964,2716.870234799979,2718.385595299944,2723.4035933999694,2724.696958800021,2724.696964099945,2726.2134216999984,2727.2302753999247,q,18,1.293365400051698,1,+1,888,-40.2121226512759,0.5366243753081004,0.05033360715243984,2697996.0,53.77122274267274,0.17188849060730993,0.18649345964683794,2701529.0,-52.2394266393728,-2.4489207571624974,0.05431772682050395,2737172.0,2718.3782023049826,2714.8452023049826,2754.0212023049826
176,29,19,M,1,4,168.0,16,3,high,7 - 1 + 8 - 6 + 4,12,11,13,12,2728.74702369998,2730.772849900008,2732.287970900012,2737.306226400018,2738.377052799973,2738.377058100013,2739.893549499975,2740.910547999956,e,12,1.0708263999549672,1,+10,898,-31.993359470392075,-0.49300113565850356,-0.0862746759385451,2711898.0,52.73445128675296,-0.033947331452713225,-0.07782969607456369,2715432.0,-8.508142655735352,-0.47313508777214475,-0.11222714287297775,2820796.0,2732.2812023049823,2728.7472023049827,2837.6452023049824
177,29,19,M,1,4,169.0,17,1,low,3 + 1 + 8 - 1 + 1,12,10,13,12,2742.4271941999323,2744.45435049996,2745.9695812999853,2750.987656000012,2752.513129000028,2752.513133899949,2754.029843999946,2755.046853500011,e,12,1.5254730000160637,1,+1,899,-1.7160769357407588,0.022000882690477397,-0.01792932600518027,2725580.0,-22.643230048786144,0.35934659809401515,0.22707177010937607,2729113.0,-5.256747398671337,0.045253992194696835,0.08182902509439582,2778524.0,2745.9622023049824,2742.4292023049825,2795.3732023049824
178,29,19,M,1,4,170.0,18,3,high,4 + 5 - 3 + 7 - 1,12,13,11,12,2756.5637845999445,2758.5898740999983,2760.104769800033,2765.1234437999665,2766.217066199926,2766.217071399966,2767.734032600012,2768.7513027999667,e,12,1.0936223999597132,1,+10,909,49.91580163938505,-0.8495917183370518,-0.1977641902205245,2739715.0,31.10491150941346,-0.46991708743220917,-0.2639085958536618,2743249.0,-24.34236774100196,0.0002488230259767299,-0.06259825603418268,2849341.0,2760.0982023049824,2756.5642023049827,2866.1902023049824
179,29,19,M,1,4,171.0,19,4,low,9 + 3 - 5 + 8 + 6,21,19,23,21,2770.267505799944,2772.295498099935,2773.8108099999954,2778.8290200000047,2779.881091499992,2779.881097000034,2781.3976297999616,2782.4144843000104,e,21,1.0520714999875054,1,+1,910,-10.401025740323124,0.057430632395041314,-0.0019840761337790447,2753421.0,-6.466224500062472,-0.37559690450242966,0.1749650553833051,2756955.0,12.340222406355547,0.7932510129722199,0.08759367187528055,3079075.0,2773.8042023049825,2770.2702023049824,3095.9242023049824
180,29,19,M,1,4,172.0,20,1,high,8 + 1 + 1 - 1 - 4,5,3,5,6,2783.931301100005,2785.95691420004,2787.472156000033,2792.4908094999264,2793.8650500999647,2793.865056700015,2795.3814995999564,2796.3984485000256,w,5,1.3742406000383198,1,+10,920,-4.042910511831668,-0.422885472865306,-0.01972398699425737,2767082.0,-26.125554918793807,0.11269643760785808,0.18630158066916613,2770616.0,-5.177849403467992,-0.8432311676186672,-0.03372174080197654,2834604.0,2787.4652023049825,2783.9312023049824,2851.4532023049824
181,29,19,M,1,4,173.0,21,2,low,8 + 1 + 7 + 1 - 4,13,14,12,13,2797.9155698000104,2799.941090200038,2801.456426999939,2806.4749332999927,2807.7211706999806,2807.721175600018,2809.237827300036,2810.2544111000025,e,13,1.2462373999878764,1,+1,921,8.388749023406314,0.39713094697800333,-0.016580806835177153,2781066.0,-33.049992298584286,-0.21936656352333195,-0.05282492762199742,2784600.0,0.10555615429254672,0.2425809398981249,-0.01646387731520127,2892508.0,2801.4492023049825,2797.9152023049824,2909.3572023049824
182,29,19,M,1,4,174.0,22,4,low,8 + 4 + 7 - 5 - 6,8,9,6,8,2811.7712102999794,2813.796675499936,2815.3118613999686,2820.3299160999595,2822.313170599926,2822.3131761999684,2823.830411700008,2824.847172999929,e,8,1.983254499966279,1,+1,922,-48.77635844845769,-0.2646279604413726,0.1148640986244327,2794922.0,-45.15954965451846,-0.1437395720386081,0.08019772618741605,2798456.0,,,,,2815.3052023049827,2811.7712023049826,
183,29,19,M,1,4,175.0,23,3,low,2 + 9 + 1 - 5 + 7,14,12,14,15,2826.363874099974,2828.390452000021,2829.9064179999405,2834.924808799929,2836.1371732999687,2836.137178600009,2837.653791999968,2838.670657699986,w,14,1.212364500039257,1,+1,923,4.423918043112902,0.1900246215276975,0.07003302082526952,2809516.0,16.31885741891025,-0.22481917991128375,0.1409958011612089,2813050.0,4.387379481613387,-0.40623135523725606,-0.1372362869828132,2878052.0,2829.8992023049827,2826.3652023049826,2894.9012023049827
184,29,19,M,1,4,176.0,24,1,high,2 + 9 + 1 + 1 + 1,14,14,12,13,2840.187886599975,2842.212319699989,2843.727279199928,2848.7451313000056,2849.945075399999,2849.945080600038,2851.461670099932,2852.4792157000047,q,14,1.199944099993445,1,+10,933,2.780653896661951,0.15639212203822872,0.04398391045758099,2823337.0,-18.195200746319227,-1.4418689609378004,-0.047089060793399806,2826870.0,-1.3344401961121033,-0.04801811059147365,0.11195336296401703,2906084.0,2843.7192023049824,2840.1862023049825,2922.9332023049824
185,29,19,M,1,4,177.0,25,3,high,2 + 9 - 3 + 4 + 1,13,14,11,13,2853.996216600004,2856.022109499958,2857.5369719999726,2862.5549942999496,2864.681154399936,2864.6811597999767,2866.1984070999897,2867.2156586000347,e,13,2.1261600999860093,1,+10,943,20.516442210138138,0.1817065495100123,0.07689064068917362,2837147.0,14.739851249830203,1.6756569350146444,-0.1868704433069006,2840680.0,18.288230427323136,0.08752340273609605,0.18642252326866737,2935563.0,2857.5292023049824,2853.9962023049825,2952.4122023049827
186,29,19,M,1,4,178.0,26,4,high,2 + 9 - 6 + 8 - 4,9,11,9,7,2868.7324672999675,2870.759352700028,2872.2747453000047,2877.2929603999364,2878.593090300041,2878.593095899967,2880.10933149996,2881.126471099968,w,9,1.3001299001043662,1,+10,953,8.941322097549506,2.1790693397893057,10.152887774451363,2851884.0,-9.739046538516558,-0.1968565875335031,-0.913942100087827,2855418.0,,,,,2872.2672023049827,2868.7332023049826,
187,29,19,M,1,4,179.0,27,3,high,4 + 1 + 8 + 9 - 5,17,18,17,19,2882.643537900003,2884.6692175999638,2886.184461199969,2891.202506700007,2893.393174200028,2893.393179499952,2894.9095273999847,2895.9268249000306,w,17,2.190667500020936,1,+10,963,34.45400589400106,0.0780722109066656,0.05059808274946809,2865794.0,12.191398545689669,-0.4802037578468288,0.024040553843695855,2869328.0,,,,,2886.1772023049825,2882.6432023049824,
188,29,19,M,1,4,180.0,28,2,high,5 + 7 - 8 + 1 + 1,6,6,7,8,2897.443772199971,2899.46912189998,2900.984292500012,2906.0024569000234,2907.8492001999984,2907.8492053000373,2909.3661709000007,2910.3831366999657,q,6,1.84674329997506,1,+10,973,34.93617136622814,0.45891117376378743,0.17098988703856577,2880594.0,17.550275303874066,-0.4897015029511862,0.018406564963144856,2884128.0,-9.82740717903841,0.7605228816589773,-0.032314880796478374,2949187.0,2900.9772023049827,2897.4432023049826,2966.0362023049825
189,29,19,M,1,4,181.0,29,1,high,2 + 1 + 9 + 1 + 1,14,12,14,13,2911.9004194000154,2913.928200300026,2915.4430887000053,2920.461720399966,2921.425121399981,2921.425126600021,2922.9416196999955,2923.95867240004,w,14,0.9634010000154376,1,+10,983,-19.003481979712017,-0.6104274878841518,0.25107113993971897,2895053.0,-55.01323616417312,-0.31400019458499484,-0.03547391834145608,2898587.0,-3.5460190622836247,0.011097052841246846,-0.009819533169469707,2990443.0,2915.4362023049825,2911.9022023049824,3007.2922023049828
190,29,19,M,1,4,182.0,30,4,high,7 + 6 + 8 - 4 + 5,22,21,23,22,2925.475717600028,2927.4997543999343,2929.014927399985,2934.0331972999847,2937.1051906999783,2937.1051960000186,2938.622010499996,2939.639353000035,q,21,3.0719933999935165,0,+0,983,-0.35598182004317636,-0.308032088796407,0.010311731701504678,2908625.0,-30.087849853713145,-0.4291203895002669,-0.07267108083722018,2912158.0,,,,,2929.0072023049825,2925.4742023049826,
191,29,19,M,1,4,183.0,31,3,low,7 - 6 + 8 + 1 + 7,17,16,17,15,2941.1559764999547,2943.181416699954,2944.6966878999374,2949.714615200006,2950.9052081999253,2950.905213699967,2952.4217528999434,2953.438509499945,w,17,1.1905929999193177,1,+1,984,8.290368835128374,-7.511426193021454,-6.43174765329173,2924306.0,-8.47727330270249,0.19253858022848336,-0.37637561331874503,2927840.0,,,,,2944.6892023049827,2941.1552023049826,
192,29,19,M,1,4,184.0,32,2,low,6 + 1 + 7 - 8 - 1,5,5,7,4,2954.9552452000207,2956.982058199996,2958.4972001999267,2963.5157693999936,2964.5292396000004,2964.529245099926,2966.0457162999664,2967.062457299966,q,5,1.01347020000685,1,+1,985,-24.98863230114713,0.2841559612701259,0.16352692365576282,2938107.0,-8.204089125491393,0.23368074708795072,-0.02589513489469919,2941640.0,8.54487538818611,-0.04464995293791896,-0.03803712466621212,3017515.0,2958.4892023049824,2954.9562023049825,3034.3642023049824
193,29,19,M,1,4,185.0,33,4,high,3 + 8 - 4 + 9 + 6,22,23,22,21,2968.579874999996,2970.605725099973,2972.120989900024,2977.140562999936,2978.6812247000053,2978.6812298999284,2980.197817999928,2981.2151440999587,w,22,1.5406617000699043,1,+10,995,16.476479714639638,0.07329105947104386,0.9188767479788991,2951730.0,-45.478972628286996,-0.08741801685474249,0.16839635036477407,2955265.0,,,,,2972.1142023049824,2968.5792023049826,
194,29,19,M,1,4,186.0,34,4,low,2 + 9 - 4 + 8 + 7,22,21,22,23,2982.731977699965,2984.7586785000167,2986.274830899958,2991.292810499959,2992.225203299953,2992.225208299991,2993.741996800003,2994.7602540000225,w,22,0.932392799993977,1,+1,996,27.58753428060184,0.11978395261302577,-1.7286633388694783,2965883.0,4.92918781118853,0.46278470311733066,-0.48481382093112435,2969418.0,,,,,2986.2672023049827,2982.7322023049824,
195,29,19,M,1,4,187.0,35,1,low,4 + 7 + 1 - 1 - 1,10,11,9,10,2996.2778838000377,2998.304402499984,2999.819548099942,3004.839693600021,3005.785156900005,3005.785161999928,3007.3016321999603,3008.3182309000404,e,10,0.9454632999841124,1,+1,997,28.323516992259226,-0.3160787243137615,0.1127523272986557,2979429.0,18.72432790531921,-0.21182555067826092,0.061046990620428954,2982964.0,11.790888610480764,0.5402204897132128,-0.0023919093956270565,3003963.0,2999.8132023049825,2996.2782023049826,3020.8122023049827
196,29,19,M,1,4,188.0,36,1,high,2 + 1 + 1 + 9 - 1,12,13,11,12,3009.835007399961,3011.8616285999888,3013.37750100001,3018.395427699957,3019.30523759994,3019.3052425999776,3020.8215063999523,3021.838574499998,e,12,0.909809899982065,1,+10,1007,-26.584428640305738,-0.6662310136222289,0.1309499982026634,2992986.0,-85.79158077970189,-0.5892912592800261,0.03960361770435594,2996520.0,,,,,3013.3692023049825,3009.8352023049824,
197,29,19,M,1,4,189.0,37,2,low,6 + 1 + 8 + 7 - 1,21,23,19,21,3023.355345399992,3025.3819605999743,3026.897864900005,3031.916507399932,3032.857215700031,3032.857220799953,3034.3737678999896,3035.391276600014,e,21,0.9407083000987768,1,+1,1008,15.295422564775038,0.20434954395550298,0.04183258674218293,3006506.0,7.129429659130384,-0.05350729568118018,0.23837993931645807,3010041.0,-9.781843381707105,0.18187107336678876,-0.010310212039303046,3065666.0,3026.8902023049827,3023.3552023049824,3082.5152023049827
198,29,19,M,1,5,190.0,0,2,low,6 + 1 + 1 + 8 - 9,7,9,5,7,3071.429463999986,3073.45529969997,3074.970498299983,3079.9892829999444,3081.009204599948,3081.00921009999,3082.525754500006,3083.5422619999736,e,7,1.0199216000037268,1,+1,1009,-19.329639581903145,-0.4217895218620398,1.1113835092724211,3054579.0,-3.550237997751669,-0.16640703362782228,-0.020867563947975398,3058113.0,,,,,3074.9622023049824,3071.4282023049827,
199,29,19,M,1,5,191.0,1,4,high,9 + 4 - 6 + 8 + 7,22,21,22,24,3085.059057400038,3087.084174000018,3088.599345899944,3093.6177614000044,3094.41733929998,3094.41734450002,3095.934398299956,3096.951671799936,w,22,0.7995778999757022,1,+10,1019,18.80917315560867,-0.724809457470859,0.14434922527272254,3068208.0,36.9612510678063,-0.0028424655675838295,-0.08679310538602714,3071742.0,,,,,3088.5912023049827,3085.0572023049826,
