,id,age,sex,cued,block,trial,trialinblock,efflev,rewlev,calc,corAns,option1,option2,option3,tstart,ITI1Time,probTime,respTime,selectTime,ITI2Time,fbTime,ITI3Time,key_press,chosenAns,RT,acc,feedback,total_points,cuescr,cuecor,cuezyg,cuetime,probscr,probcor,probzyg,probtime,fbscr,fbcor,fbzyg,fbtime,probtime_c,cuetime_c,fbtime_c
0,2,20,F,0,Practice,,0,1,0,4 + 1 + 9 + 1 + 1,16,16,14,15,575.3370930999954,,575.3370954999991,580.6311612999998,592.7497870000079,592.7497937000007,594.2670156999957,595.289050899999,w,14.0,12.118625700008124,0,Incorrect,0,,,,,-2.2385076929651753,-0.2960014585275217,-0.12670464297314066,50923.0,-7.880136977170906,1.3778942007744592,9.193698809086367,69581.0,575.6135057320016,,594.2715057320016
1,2,20,F,0,Practice,,1,1,0,3 + 1 + 1 + 8 - 1,12,12,11,10,596.8062594000075,,596.806262500002,601.8282042000064,607.2056108999968,607.2056173000019,608.7224552999978,609.7403756999993,e,10.0,5.377406699990388,0,Incorrect,0,,,,,-34.47153757600906,-2.501612593068434,-66.77983329353309,72121.0,-2.485580775930888,0.1693453005947907,38.181583381758486,84032.0,596.8115057320016,,608.7225057320017
2,2,20,F,0,Practice,,2,2,0,8 + 1 + 6 + 1 - 4,12,11,10,12,611.2578397000034,,611.257843600004,616.277705600005,617.4377860999957,617.4377920999978,618.9547486000083,619.9738022999954,e,12.0,1.1600804999907268,1,Correct,0,,,,,19.030616210377755,-1.6762487981774856,-67.64091467357657,86570.0,-12.719624418349067,0.37357104464131474,2.673733986443579,94266.0,611.2605057320015,,618.9565057320016
3,2,20,F,0,Practice,,3,2,0,9 + 4 - 6 + 1 - 1,7,6,7,5,621.4906856000016,,621.4906886999961,626.5103359000059,629.7817123999994,629.7817191000067,631.2984372000064,632.3153591000009,w,7.0,3.271376499993494,1,Correct,0,,,,,15.154587200255948,-2.1408134811797312,-74.77746165800865,96802.0,-7.009562925255835,0.004047410732578527,-0.35536161120112286,106607.0,621.4925057320016,,631.2975057320016
4,2,20,F,0,Practice,,4,3,0,9 + 3 - 5 + 6 + 7,20,20,21,22,633.8320476000081,,633.8320505000011,638.8510528000043,642.0215735000093,642.021579799999,643.5384617000091,644.5553619999991,q,20.0,3.1705207000049995,1,Correct,0,,,,,11.244264862289336,0.28635827381678514,0.2840238808035149,109143.0,5.194931702109988,1.2512712158816712,0.9016071063678246,118848.0,633.8335057320016,,643.5385057320016
5,2,20,F,0,Practice,,5,3,0,2 + 1 + 9 - 7 + 6,11,9,11,10,646.072129799999,,646.0721328000072,651.0920556000056,652.5015153999993,652.5015209999983,654.0175927000091,655.0353507999971,w,11.0,1.4094597999937832,1,Correct,0,,,,,13.281365421638663,-0.28790141512997636,0.13995710589884558,121384.0,3.837489394946953,-1.2272324177566518,0.35830863975493843,129327.0,646.0745057320016,,654.0175057320016
6,2,20,F,0,Practice,,6,4,0,4 + 8 + 5 - 3 + 7,21,23,21,22,656.5522559999954,,656.5522589000029,661.572235700005,664.6536691000074,664.6536751999956,666.1705041999958,667.1884245999972,w,21.0,3.0814334000024246,1,Correct,0,,,,,4.599075332698705,3.249554460211596,1.6079247403705104,131865.0,-21.232623497940175,0.7664830986100504,0.24433496080877815,141481.0,656.5555057320016,,666.1715057320016
7,2,20,F,0,Practice,,7,4,0,5 + 8 - 4 + 6 + 9,24,24,23,22,668.7053832000092,,668.705386200003,673.724984600005,677.0377607999981,677.0377670000016,678.5545909000066,679.572530999998,q,24.0,3.312776199993096,1,Correct,0,,,,,-15.048741019381008,-8.173710596736083,-4.739612769435859,144017.0,-6.712458342671116,0.7393272440626224,0.3468890951845882,153865.0,668.7075057320017,,678.5555057320016
8,2,20,F,1,0,0.0,0,4,low,8 + 5 - 4 + 7 + 9,25,24,25,26,814.2914238000085,816.3243497000076,817.8394676000025,822.9058996999956,825.2273856999964,825.2273909000069,826.7437238999992,827.7605527999985,w,25.0,2.321486000000732,1,+1,1,23.39515523917604,0.7282864248797081,-2.788458882824292,289616.0,7.231783836371353,-0.9905817594099462,-0.7150541725884274,293198.0,8.373365560788875,-0.4557031947242711,-0.3039994060047895,302052.0,817.8885057320016,814.3065057320016,826.7425057320016
9,2,20,F,1,0,1.0,1,2,high,6 + 1 + 8 + 7 - 1,21,19,21,23,829.2780619999976,831.3078386999987,832.8226578000031,837.8413302999979,840.0114269000042,840.0114332000085,841.5280018000049,842.5458035000047,w,21.0,2.170096600006218,1,+10,11,0.3120149970139572,-0.5885988620568305,-0.0974191986584585,304600.0,-3.2377753179856263,-3.0734507407140965,-1.9076023553580135,308133.0,11.654118729124292,-1.3956039937732578,-0.029168018002883933,316837.0,832.8235057320016,829.2905057320016,841.5275057320016
10,2,20,F,1,0,2.0,2,3,low,3 + 8 - 7 + 1 + 9,14,12,13,14,844.0623629000038,846.0993490999972,847.6148547000048,852.633576399996,857.6273939999955,857.6273991000053,859.1437967000093,860.161104800005,w,13.0,4.993817599999602,0,+0,11,-13.525975464281203,-7.608591705077311,-7.342756818947286,319391.0,-1.8529924420754362,0.16734595593610502,0.14935678068752534,322925.0,21.725141965264196,0.3773330447618597,0.049035885672408686,367718.0,847.6155057320016,844.0815057320017,892.4085057320017
11,2,20,F,1,0,3.0,3,4,low,5 + 8 - 6 + 7 + 4,18,17,19,18,861.6777487000072,863.7060944999976,865.2216745000042,870.2412156000064,875.2589683999977,875.2589711000037,876.7762225000042,877.7982265000028,,,,0,Too Slow!,11,-20.46988018506947,-0.13173316672110014,-42.54994377264461,336998.0,-3.0231572428263274,0.4652863310021047,-0.13170097485091636,340533.0,-2.8128046413758305,0.19117148300464626,0.05946379093494292,352090.0,865.2235057320016,861.6885057320017,876.7805057320015
12,2,20,F,1,0,4.0,4,3,high,6 + 8 + 7 + 1 - 9,13,15,13,14,879.3149314000038,881.3504319000058,882.8656447999965,887.8846510000003,890.8914317000017,890.8914415000036,892.4082987000002,893.4261929000058,w,13.0,3.0067807000014,1,+10,21,3.0761247382612247,0.2535552025368091,-3.694840281332485,354642.0,12.796913095914373,0.0877070747254054,-0.27369011070033444,358176.0,-8.33491762524144,-0.08436525302365494,21.893861156847613,400543.0,882.8665057320015,879.3325057320017,925.2335057320016
13,2,20,F,1,0,5.0,5,1,high,5 + 6 + 1 + 1 + 1,14,14,16,15,894.9431369000085,896.973914999995,898.4885847999976,903.5067083000032,906.0915605000046,906.0915670999966,907.608029199997,908.6252679000028,q,14.0,2.584852200001478,1,+10,31,-0.5316265992811928,1.6584880601261527,0.7734529108110886,370266.0,9.759503283238352,-0.16493406281657874,-0.03714345426013388,373798.0,1.006349275614923,0.027259357636118864,4.6250153655821125,1559376.0,898.4885057320016,894.9565057320017,2084.0665057320016
14,2,20,F,1,0,6.0,6,3,high,6 - 1 + 7 - 8 + 9,13,12,11,13,910.1422233000048,912.1657956999989,913.6801848000032,918.6989124999964,923.716817499997,923.7168200000016,925.2333878000064,926.2516280999988,,,,0,Too Slow!,31,-17.33758429132968,0.13979694697367018,0.31548936781344494,385458.0,20.545739295914636,-0.40486422001878797,0.14543707302343112,388991.0,-2.6044920825145432,0.16044135225817913,0.24494619199561107,2247533.0,913.6815057320016,910.1485057320017,2772.2235057320013
15,2,20,F,1,0,7.0,7,4,high,2 + 9 - 6 + 8 - 4,9,7,11,9,927.7685614000076,929.7980474000068,931.3131465000042,936.3329089000036,938.3154248000064,938.3154303000048,939.8320413000038,940.8493247000006,e,9.0,1.982515900002909,1,+10,41,41.346556124862644,0.03257741561026739,0.020065299283921867,403089.0,7.736204260437363,-4.738704995771613,-1.8999363344531277,406624.0,29.195745685572586,-0.42277272596415383,0.42872756556100144,2875186.0,931.3145057320016,927.7795057320016,3399.8765057320015
16,2,20,F,1,0,8.0,8,3,low,5 + 6 - 4 - 1 + 7,13,15,13,14,942.3660413000034,944.3910518000048,945.9061768999964,950.9243471000082,954.3555167000012,954.355521999998,955.8722822999988,956.889129999996,w,13.0,3.4311695999931544,1,+1,42,-30.33096982082809,-0.6834735721620149,0.031998650334946976,417683.0,7.634769570043225,0.2699286530556746,0.2906733403213799,421216.0,,,,,945.9065057320016,942.3735057320016,
17,2,20,F,1,0,9.0,9,4,high,8 + 4 - 5 + 7 - 6,8,6,7,8,958.4061690999952,960.4305047000088,961.9456719000008,966.9656923000002,971.1554404000052,971.1554456000011,972.6714251000084,973.6885142999964,e,8.0,4.18974810000509,1,+10,52,19.236259458935628,-1.336020314749109,-0.8562090176875818,433722.0,11.001966619524897,-0.3113372148162874,-0.10066786194936972,437257.0,,,,,961.9475057320017,958.4125057320016,
18,2,20,F,1,0,10.0,10,3,high,7 - 1 + 9 - 5 + 4,14,13,15,14,975.2050121000066,977.2321470000024,978.7473316999968,983.7673573000066,985.075404400006,985.075409600002,986.5914986999996,987.6089043999964,e,14.0,1.308047099999385,1,+10,62,-12.657344781866758,-1.4838073302739927,-0.09862269825746761,450524.0,-7.537658556019771,-0.5989710701340929,-0.5251932188789761,454059.0,,,,,978.7495057320016,975.2145057320016,
19,2,20,F,1,0,11.0,11,1,high,6 + 1 + 8 + 1 + 1,17,16,15,17,989.1255373000022,991.1513125000056,992.6665669000068,997.6843780000054,1000.4194139000028,1000.4194187999964,1001.9353919999994,1002.9526522000089,e,17.0,2.735035899997456,1,+10,72,-1.7414440339452941,-0.033702305498265694,0.5097978355370643,464444.0,13.240028377960286,-0.2577690160805033,0.36561955006696367,467976.0,,,,,992.6665057320016,989.1345057320016,
20,2,20,F,1,0,12.0,12,1,low,3 + 1 + 8 - 1 + 1,12,10,13,12,1004.4690338000072,1006.4967984999968,1008.0115940999968,1013.029825699996,1014.1074211999947,1014.1074266000068,1015.6241284999996,1016.6408759000042,e,12.0,1.0775954999990065,1,+1,73,3.299141955503215,0.34841183338835613,0.10022719250165579,479788.0,11.00191198995703,-0.3382800938355546,0.3084489523526819,483322.0,,,,,1008.0125057320016,1004.4785057320016,
21,2,20,F,1,0,13.0,13,4,high,7 + 6 - 9 + 8 - 3,9,8,9,7,1018.1565999000012,1020.1830311000084,1021.6983001000044,1026.7183904999983,1029.8114311999962,1029.8114364000066,1031.3280367999978,1032.3450168999989,w,9.0,3.0930406999978004,1,+10,83,11.57664062229544,1.959576956068211,0.7665156492412111,493474.0,5.118041686827667,0.3537470963272291,-0.04640293169437282,497010.0,,,,,1021.7005057320016,1018.1645057320015,
22,2,20,F,1,0,14.0,14,3,high,9 - 5 - 1 - 6 + 8,5,4,5,7,1033.8617360000062,1035.8863240000064,1037.4014240999968,1042.419417600002,1046.2594285999949,1046.259433900006,1047.775942200009,1048.793120600007,w,5.0,3.840010999992956,1,+10,93,-15.126107501439531,-0.1688086020193058,-0.777365355091757,509178.0,24.19504510478355,-5.45248335165908,-3.119383811580271,512711.0,,,,,1037.4015057320016,1033.8685057320017,
23,2,20,F,1,0,15.0,15,1,low,6 + 1 + 8 + 1 - 1,15,14,15,13,1050.3098511999997,1052.3364804000012,1053.851345700008,1058.8706773000013,1060.0754790000065,1060.0754837999991,1061.5919556000008,1062.6086839000054,w,15.0,1.2048017000051914,1,+1,94,12.748325670573378,-3.6397518924653935,-2.4287653227533412,525628.0,23.74672637592001,-0.09111451943423221,0.089763814560472,529162.0,,,,,1053.8525057320016,1050.3185057320015,
24,2,20,F,1,0,16.0,16,1,high,7 + 1 + 6 + 1 + 1,16,17,18,16,1064.125247300006,1066.1532582000073,1067.668507800001,1072.686404299995,1074.1075027000045,1074.107508000001,1075.623877200007,1076.6410262999998,e,16.0,1.421098400009214,1,+10,104,6.4181997615926605,0.9406048509152125,0.5530812800077012,539444.0,-0.81935151372394,0.07249785122346708,0.08406113255675685,542978.0,,,,,1067.6685057320014,1064.1345057320016,
25,2,20,F,1,0,17.0,17,4,high,6 + 9 + 7 - 3 - 5,14,14,12,13,1078.1579771999968,1080.181408999997,1081.6968617999955,1086.7151128999976,1088.2194492999988,1088.2194546999965,1089.7358539999989,1090.753006900006,q,14.0,1.5043364000011934,1,+10,114,-21.835043162427137,2.5865235938447713,2.381031275565946,553473.0,21.515083897797684,-0.7756489780416524,-0.6562442436832021,557007.0,,,,,1081.6975057320014,1078.1635057320016,
26,2,20,F,1,0,18.0,18,2,high,8 + 1 + 1 + 9 - 4,15,16,15,14,1092.269358899997,1094.293082899996,1095.8087879999948,1100.826802800002,1101.8674582999956,1101.8674633000046,1103.3839077000011,1104.400897500003,w,15.0,1.0406554999935906,1,+10,124,-14.61925717378861,0.598060577252995,-0.10845051554297847,567585.0,-17.439978607333224,-0.9033091702479803,-0.27427159663698086,571118.0,,,,,1095.8085057320018,1092.2755057320016,
27,2,20,F,1,0,19.0,19,3,low,2 - 4 + 9 + 7 + 1,15,13,16,15,1105.9174037000048,1107.9458008000074,1109.4617760999972,1114.479974700007,1115.6754661000014,1115.6754710999958,1117.191834600002,1118.2085880000086,e,15.0,1.1954913999943528,1,+1,125,2.221936218244217,-0.520380617084693,-0.7390981656040152,581237.0,-33.86683861080458,-0.5639000583521723,0.09664493251219186,584772.0,,,,,1109.4625057320018,1105.9275057320015,
28,2,20,F,1,0,20.0,20,4,low,5 + 9 - 4 + 7 + 6,23,25,24,23,1119.7255678000074,1121.7516402000035,1123.2675345000025,1128.2859056000016,1130.1075027000045,1130.1075079000002,1131.6240114999964,1132.641046100005,e,23.0,1.8215971000026911,1,+1,126,5.9790497153055995,-0.6822865572108086,-0.010654953828468816,595043.0,-3.054227351797262,0.7060441942038223,0.2573244729477704,598577.0,,,,,1123.2675057320016,1119.7335057320015,
29,2,20,F,1,0,21.0,21,2,low,5 + 1 + 7 - 6 + 1,8,7,6,8,1134.1577351000014,1136.1986329000065,1137.7140188000049,1142.7325599000033,1146.371684400001,1146.3716898999992,1147.8882015999989,1148.9048436000012,e,8.0,3.639124499997706,1,+1,127,0.6900374408286774,-0.3202170535567408,0.1667293537142993,609490.0,-5.453331591952871,-0.7259269807737612,0.1992441632311932,613024.0,,,,,1137.7145057320017,1134.1805057320016,
30,2,20,F,1,0,22.0,22,4,low,8 + 7 - 4 + 5 + 9,25,26,25,24,1150.4212871000054,1152.4473093999986,1153.9624391999969,1158.9804520000034,1163.035558500007,1163.0355633,1164.5527533999991,1165.570132199995,w,25.0,4.055106500003603,1,+1,128,13.656760669491256,-2.6910312099441196,-1.0499364847737382,625739.0,23.650377906528988,-0.005042216287365786,-0.02073843825184918,629272.0,,,,,1153.9625057320018,1150.4295057320016,
31,2,20,F,1,0,23.0,23,3,low,4 + 7 - 3 + 5 - 1,12,13,12,11,1167.087378700002,1169.1126736000006,1170.6278840000014,1175.646412999995,1177.2916257000034,1177.2916312000016,1178.8082356999948,1179.825458300009,q,13.0,1.645212700008415,0,+0,128,-28.641384717866167,0.4063517907927041,0.24136319621019942,642404.0,0.6054771813716258,-0.10625240604092312,0.03780675806130329,645938.0,,,,,1170.6285057320015,1167.0945057320016,
32,2,20,F,1,0,24.0,24,3,high,5 - 1 - 4 + 6 + 7,13,15,14,13,1181.3421611999947,1183.3669888000004,1184.882941600008,1189.901015299998,1191.147649400009,1191.147654500004,1192.6641287999955,1193.6813444,e,13.0,1.2466341000108514,1,+10,138,5.647252177533311,0.14407310155336894,-0.5334993030676203,656658.0,5.024736372619903,-0.05894682578259447,0.01835632866702719,660193.0,,,,,1184.8835057320016,1181.3485057320017,
33,2,20,F,1,0,25.0,25,4,low,3 + 9 - 4 + 7 + 6,21,21,20,19,1195.1980712000077,1197.2244814000005,1198.7387833999965,1203.7586556000024,1207.947614500008,1207.9476207999978,1209.4639896000008,1210.479972400004,q,21.0,4.188958900005673,1,+1,139,-18.69510442095774,0.13081308918527768,0.18833899482251582,670516.0,10.915420398989298,-0.49205600702859176,-0.15994131733121542,674050.0,,,,,1198.7405057320016,1195.2065057320015,
34,2,20,F,1,0,26.0,26,4,low,2 + 9 - 3 + 5 + 8,21,22,23,21,1211.9969308,1214.023797300004,1215.5387717999984,1220.5571828999964,1221.7796459999954,1221.7796515000082,1223.2962291000003,1224.312896500007,e,21.0,1.222463099999004,1,+1,140,-19.392938316386605,0.5818839746810829,0.3255955937468582,687315.0,-17.08779245182643,-0.29262843440445163,0.15585652475916278,690849.0,,,,,1215.5395057320015,1212.0055057320017,
35,2,20,F,1,0,27.0,27,1,low,7 - 1 + 9 + 1 - 1,15,15,14,13,1225.8293082000018,1227.856169000006,1229.3713042000018,1234.389656600004,1235.555605200003,1235.555610199997,1237.0720588999975,1238.0890314999997,q,15.0,1.1659485999989556,1,+1,141,-12.916820709786816,-0.8867268158785642,-0.01836446784763668,701147.0,-16.429603358061534,0.15633462689435396,-0.06931359852167285,704681.0,,,,,1229.3715057320017,1225.8375057320018,
36,2,20,F,1,0,28.0,28,1,high,6 + 9 + 1 + 1 - 1,16,16,15,14,1239.605622300005,1241.6335450000042,1243.1492362999998,1248.1681569000066,1249.3636237000028,1249.3636288999987,1250.8803184999997,1251.8973688999977,q,16.0,1.1954667999962112,1,+10,151,10.340453734921262,0.03241453198316169,-0.11331659870540589,714925.0,-28.8639316478917,-0.2377395066261636,-0.10951154116786999,718459.0,,,,,1243.1495057320017,1239.6155057320016,
37,2,20,F,1,0,29.0,29,2,low,6 + 1 + 1 + 7 - 9,6,8,4,6,1253.413962000006,1255.440576299996,1256.9557417000033,1261.9742578000005,1263.6036669000025,1263.603672600002,1265.1201570999983,1266.1357030000072,e,6.0,1.6294091000017945,1,+1,152,-47.547027964559064,0.3582651026601402,-0.009140670594673495,728732.0,16.502742293069872,0.27114958527186683,0.050521707041422115,732266.0,,,,,1256.9565057320015,1253.4225057320016,
38,2,20,F,1,0,30.0,30,1,low,7 + 1 + 4 + 1 - 1,12,13,12,11,1267.6524468999996,1269.6794932000048,1271.194527300002,1276.2126327000003,1278.6355786000058,1278.6355839000023,1280.1529639000073,1281.1700500000006,q,13.0,2.4229459000052884,0,+0,152,-12.029423099104164,0.6664682513201292,-0.05979426493231532,742971.0,9.945772801228575,-0.6037946666838918,0.27973261452553233,746504.0,,,,,1271.1945057320017,1267.6615057320016,
39,2,20,F,1,0,31.0,31,1,low,5 + 6 + 1 + 1 + 1,14,16,14,13,1282.6867207000032,1284.7111995000014,1286.2264400999993,1291.244074400005,1292.603574000008,1292.6035788000008,1294.1199212000065,1295.1367239999963,w,14.0,1.3594996000028914,1,+1,153,-43.14808226273632,-0.49659715930684367,-0.4064474076025095,758002.0,17.381980750155382,-0.5884882087791086,-1.6167778516256668,761535.0,,,,,1286.2255057320017,1282.6925057320016,
40,2,20,F,1,0,32.0,32,2,low,7 + 6 + 1 + 8 + 1,23,21,22,23,1296.6533580999967,1298.6782550000062,1300.1937105999968,1305.211737599995,1306.6757246000052,1306.6757328999956,1308.1923392000026,1309.2091382000071,e,23.0,1.4639870000100927,1,+1,154,-20.6807688276793,-0.32812178450365526,-0.1362092916451414,771970.0,-8.157641771569068,-4.640151498977777,-3.724026538243961,775503.0,,,,,1300.1935057320015,1296.6605057320016,
41,2,20,F,1,0,33.0,33,1,high,9 + 1 + 1 + 7 - 1,17,16,19,17,1310.7257611999958,1312.7536556999985,1314.2687679000082,1319.2870500999998,1320.883604200004,1320.8836095000006,1322.400241299998,1323.4174856000027,e,17.0,1.5965541000041412,1,+10,164,-9.012758657889233,-0.44308968207746613,0.12494190389875337,786045.0,13.961627695417963,-0.5367671618909284,0.07363226120360356,789578.0,,,,,1314.2685057320016,1310.7355057320015,
42,2,20,F,1,0,34.0,34,2,low,6 + 8 + 1 + 1 - 7,9,8,9,11,1324.9340064999997,1326.9601287999976,1328.4753345000065,1333.4953939999978,1335.4996487000026,1335.4996535999962,1337.0161320000043,1338.0327912000066,w,9.0,2.0042547000048216,1,+1,165,-11.993315959078275,0.4293750594604022,0.013969114618478384,800252.0,12.002710296296737,-0.7676996496889457,0.18793576105042442,803787.0,,,,,1328.4775057320016,1324.9425057320016,
43,2,20,F,1,0,35.0,35,1,low,3 + 1 + 1 + 8 - 1,12,12,14,13,1339.5496683000092,1341.5771690999973,1343.0924056000076,1348.110475399997,1349.2757449000055,1349.2757501000017,1350.7919933000085,1351.8090003999969,q,12.0,1.165269500008435,1,+1,166,-10.106243161672548,-0.010169614029997831,0.223858618526807,814868.0,-4.587881073780352,0.061085398647696465,0.5072847689944158,818402.0,,,,,1343.0925057320017,1339.5585057320018,
44,2,20,F,1,0,36.0,36,1,high,2 + 9 + 1 + 1 + 1,14,12,14,13,1353.3257622000092,1355.3512367000076,1356.866350199998,1361.885162000006,1363.0196471999952,1363.0196524000055,1364.5359639999951,1365.5525639999978,w,14.0,1.134485199989285,1,+10,176,-14.176673094446183,-0.2699362651202257,0.011675540206739221,828642.0,12.38976547396258,-0.9405143876582196,-0.04241325699518894,832176.0,,,,,1356.8665057320018,1353.3325057320017,
45,2,20,F,1,0,37.0,37,2,high,8 + 1 + 7 + 1 - 4,13,13,12,14,1367.0692363999988,1369.0960905999964,1370.611174500009,1375.629920000007,1377.4277658000065,1377.4277710000024,1378.9441895000057,1379.9610210999963,q,13.0,1.7978457999997772,1,+10,186,12.50366439792547,-1.8360745140140882,-1.046230937375428,842387.0,-28.081921244149026,-0.4917304932068358,0.030190738838629105,845921.0,,,,,1370.6115057320017,1367.0775057320016,
46,2,20,F,1,1,38.0,0,1,high,4 + 7 + 1 - 1 - 1,10,11,10,9,1389.6557647000009,1391.6831539999985,1393.1977957000054,1398.2177508000022,1400.387788100008,1400.387794299997,1401.904649700009,1402.9232300000003,w,10.0,2.170037300005788,1,+10,196,18.057152665874806,-0.7874680131495868,-0.008053564334609131,864974.0,-3.4663055100306455,-1.1709460881259464,-0.021674051833353136,868509.0,,,,,1393.1995057320016,1389.6645057320015,
47,2,20,F,1,1,39.0,1,4,low,5 + 7 - 4 - 6 + 9,11,11,12,13,1404.4398354000004,1406.4670111000014,1407.9827760000044,1413.002443999998,1414.1557676000084,1414.155772900005,1415.672656099996,1416.6893091999957,q,11.0,1.1533236000104807,1,+1,197,-17.15308815350718,-0.28871183818427415,-0.16887873101633133,879758.0,8.457200377021962,-0.06804283176567338,0.3304352684197922,883294.0,,,,,1407.9845057320017,1404.4485057320016,
48,2,20,F,1,1,40.0,2,2,high,9 + 1 + 6 + 7 + 1,24,25,24,23,1418.2066857000027,1420.228766100001,1421.7438803999976,1426.7617564999964,1428.2916790000015,1428.2916841999977,1429.808351300002,1430.8254430000088,w,24.0,1.5299225000053411,1,+10,207,3.5439463948377874,-0.057457841287134936,-0.08524690507144994,893520.0,-26.049871055194508,-0.7705791056523315,0.6354246318641747,897053.0,,,,,1421.7435057320017,1418.2105057320016,
49,2,20,F,1,1,41.0,3,4,low,2 + 9 - 4 + 8 + 7,22,22,21,23,1432.3413467000064,1434.3650827000092,1435.8801585000035,1440.8989912999969,1445.2677382999973,1445.2677436999948,1446.784412299996,1447.801545800001,e,23.0,4.36874700000044,0,+0,207,6.436259900394913,-0.10142954351027011,-0.1151283855972336,907656.0,-11.01038004727311,0.7865508028443671,0.22930724420672854,911190.0,,,,,1435.8805057320017,1432.3465057320016,
50,2,20,F,1,1,42.0,4,1,low,6 + 9 + 1 + 1 - 1,16,16,15,14,1449.318233099999,1451.3450919000024,1452.8602946000028,1457.879183500001,1458.731783399999,1458.731788799996,1460.2475357000076,1461.2643807999991,q,16.0,0.8525998999975855,1,+1,208,13.211882931946302,2.7211451221167193,1.6457197822879484,924636.0,15.215757581414659,-10.02032688340902,-13.124790541635969,928170.0,,,,,1452.8605057320015,1449.3265057320016,
51,2,20,F,1,1,43.0,5,4,low,9 + 8 - 5 - 7 + 6,11,10,11,13,1462.780459200003,1464.807488899998,1466.322527299999,1471.3410109999968,1475.4357591000007,1475.435764599999,1476.952235699995,1477.9688453999988,e,13.0,4.094748100003926,0,+0,208,16.023489056337475,0.15897416029433753,0.47787371905054155,938098.0,-26.589776852991587,-1.3743034701237988,-1.0099268342343937,941632.0,,,,,1466.3225057320014,1462.7885057320016,
52,2,20,F,1,1,44.0,6,2,low,8 + 1 + 9 + 1 - 4,15,14,16,15,1479.485510300001,1481.5123812000093,1483.0273310000048,1488.0454336999974,1489.2918473000027,1489.2918527000002,1490.8084575999965,1491.825186400005,e,15.0,1.246413600005326,1,+1,209,20.514513930352933,-0.1659618711493227,-0.046953891708862106,954803.0,11.371152448391381,-0.7373489304396328,-0.054980952685397266,958336.0,,,,,1483.0265057320016,1479.4935057320017,
53,2,20,F,1,1,45.0,7,2,low,6 + 1 + 1 + 7 - 9,6,4,6,8,1493.3413688,1495.3658701999957,1496.8810557999968,1501.8993334999975,1503.387833700006,1503.387839300005,1504.904322500006,1505.9208854000026,w,6.0,1.488500200008275,1,+1,210,-27.834717215729317,0.27630770062080323,0.17238084393755537,968657.0,9.2256114724699,-0.33673782766242777,-0.02011280520057479,972190.0,,,,,1496.8805057320017,1493.3475057320015,
54,2,20,F,1,1,46.0,8,3,high,4 + 7 + 1 + 9 - 5,16,17,18,16,1507.4376578000083,1509.464722699995,1510.979767900004,1515.998289299998,1520.3318465000048,1520.3318518000017,1521.8483831000049,1522.8655307000008,e,16.0,4.333557200006908,1,+10,220,-5.262900656786563,-0.4019211928959958,-0.12816397977515903,982756.0,-10.203160204130908,-0.4243328154499264,-0.06649575508775296,986289.0,,,,,1510.9795057320016,1507.4465057320017,
55,2,20,F,1,1,47.0,9,2,high,4 + 8 + 1 + 1 - 5,9,9,11,8,1524.382293200004,1526.4085540000087,1527.9236858000077,1532.941763099996,1533.9318144999995,1533.9318197999964,1535.4484391000003,1536.4655619999976,q,9.0,0.990051400003722,1,+10,230,-10.071031853396713,0.3106525093534378,0.04081447428166651,999699.0,-21.03282889831862,-0.2271861920705116,-0.05050071013665569,1003233.0,,,,,1527.9235057320016,1524.3895057320015,
56,2,20,F,1,1,48.0,10,3,low,3 + 8 + 1 + 5 - 9,8,8,7,9,1537.9822533999975,1540.0084446999972,1541.5235078999976,1546.5423916,1547.8518309000065,1547.8518358,1549.3683197000064,1550.385521300006,q,8.0,1.3094393000064883,1,+1,231,-15.666425852798223,-4.369223875232852,-4.166596624918747,1013299.0,7.387316505674892,-0.2949492082165177,-0.18910209994344473,1016833.0,,,,,1541.5235057320015,1537.9895057320016,
57,2,20,F,1,1,49.0,11,3,low,7 - 6 + 8 + 1 + 7,17,17,16,15,1551.9021472000022,1553.927120399996,1555.442207,1560.460599900005,1561.3877276999992,1561.387732800009,1562.9042037000036,1563.921343199996,q,17.0,0.9271277999941958,1,+1,232,-9.233015321068562,0.994691331297413,0.8629008596874899,1027218.0,30.761453258737035,-0.23273068308423195,0.006282589548787687,1030751.0,,,,,1555.4415057320016,1551.9085057320017,
58,2,20,F,1,1,50.0,12,1,high,4 + 9 + 1 - 1 - 1,12,11,13,12,1565.4383180000004,1567.4655437000038,1568.9807202000084,1573.9989114000057,1575.035824400009,1575.0358295000042,1576.5531220999983,1577.5703306000069,e,12.0,1.0369130000035511,1,+10,242,45.243221884497316,-0.046170463352884994,-1.063768223014868,1040756.0,15.641100541357554,-0.33925324204702,-0.20108181568076455,1044290.0,,,,,1568.9805057320016,1565.4465057320017,
59,2,20,F,1,1,51.0,13,2,low,8 + 1 + 4 - 7 + 1,7,5,6,7,1579.086730199997,1581.1134534000012,1582.6285340000031,1587.6468295000086,1590.5159142000048,1590.5159195000017,1592.0324521000002,1593.0491330000075,e,7.0,2.869084699996165,1,+1,243,17.89928365964128,0.3125545651821051,0.007643619793890277,1054405.0,-9.554385918775168,0.2360564067370028,-0.13509164192476808,1057938.0,,,,,1582.6285057320017,1579.0955057320016,
60,2,20,F,1,1,52.0,14,1,low,2 + 9 + 1 + 1 + 1,14,13,14,12,1594.565256300004,1596.5940490000066,1598.1089815000014,1603.1271023000008,1604.2437847999972,1604.2437902999957,1605.7599921000074,1606.7766730000003,w,14.0,1.1166824999963865,1,+1,244,-12.846242585719168,2.411241166466005,1.3089116919979196,1069884.0,5.7806686902434095,-0.15825750872018673,0.16126064845531918,1073418.0,,,,,1598.1085057320015,1594.5745057320016,
61,2,20,F,1,1,53.0,15,3,high,5 + 6 + 7 - 1 - 9,8,8,7,9,1608.2931705000085,1610.3215210000053,1611.8371700999996,1616.8562879999954,1618.139832700006,1618.1398380000028,1619.6559446000028,1620.673094400001,q,8.0,1.2835447000106797,1,+10,254,-0.5968277190216114,1.224552538518136,1.4663272362151445,1083612.0,34.65365950207835,-1.1245529255366389,-0.7277003892993781,1087146.0,,,,,1611.8365057320016,1608.3025057320017,
62,2,20,F,1,1,54.0,16,3,high,8 + 3 + 1 - 7 + 9,14,12,14,15,1622.1897674000063,1624.2136740999997,1625.7288475999958,1630.7470119000063,1635.2038136000049,1635.2038188000006,1636.7207739000005,1637.7381984999956,q,12.0,4.456801699998323,0,+0,254,5.5429493475161955,0.24319394931481053,0.23848807678496176,1097504.0,14.878875181940478,-1.252249225730437,0.29853185993944065,1101038.0,,,,,1625.7285057320016,1622.1945057320015,
63,2,20,F,1,1,55.0,17,1,low,6 + 1 + 1 + 9 - 1,16,15,16,14,1639.2552101000038,1641.2838964999974,1642.7990619000047,1647.817111700002,1648.7558479,1648.7558532999974,1650.2722446999978,1651.2889652000013,w,16.0,0.9387361999979476,1,+1,255,-43.00959712540508,-0.5056124456872197,-0.056395978624145915,1114574.0,0.9382418534790311,-0.13214499907397403,-0.03711143485313384,1118108.0,,,,,1642.7985057320016,1639.2645057320017,
64,2,20,F,1,1,56.0,18,2,low,4 + 9 - 7 + 1 - 1,6,6,5,8,1652.8057245999953,1654.8320182000025,1656.3470630000083,1661.365168000004,1663.739869099998,1663.7398738000047,1665.2571052999992,1666.2739478000003,q,6.0,2.3747010999941267,1,+1,256,1.8379859259286846,0.3324263371844465,0.07977593006948336,1128123.0,-13.585860399983027,-0.5885285837732273,0.07572696223201447,1131656.0,,,,,1656.3465057320016,1652.8135057320017,
65,2,20,F,1,1,57.0,19,3,low,3 + 1 + 8 - 5 + 6,13,13,14,15,1667.7908557000046,1669.816304100008,1671.3314667000086,1676.3506762000034,1677.4119445999968,1677.4119498000073,1678.9281363000046,1679.9453079000086,q,13.0,1.0612683999934234,1,+1,257,12.769070694519455,0.4134623814546643,0.050020892453957355,1143107.0,37.584906431486864,-3.454800266024307,-3.5102666141369294,1146641.0,,,,,1671.3315057320017,1667.7975057320016,
66,2,20,F,1,1,58.0,20,4,high,9 + 4 - 6 + 8 + 7,22,24,22,21,1681.4619120999996,1683.4865169999975,1685.0015490000078,1690.0196837999974,1693.7879242000054,1693.7879298000043,1695.3042892000085,1696.3218128000008,w,22.0,3.768240400007926,1,+10,267,9.938344107294363,-1.519882235796068,-0.5722860331353408,1156777.0,-3.409861739302819,-0.8007176477856786,0.0068722497471434,1160311.0,,,,,1685.0015057320015,1681.4675057320017,
67,2,20,F,1,1,59.0,21,2,low,2 + 1 + 9 - 4 + 1,9,8,9,11,1697.8384970000045,1699.8648056999957,1701.3799946000072,1706.3994989000057,1707.316004799999,1707.3160099000088,1708.8323818000065,1709.849363900008,w,9.0,0.9165058999933536,1,+1,268,0.34465460082068766,-1.0249001562309648,-0.0055290785840913514,1173155.0,-25.798023708870627,0.4617819362051314,0.8738304676716337,1176690.0,,,,,1701.3805057320017,1697.8455057320016,
68,2,20,F,1,1,60.0,22,4,low,8 + 4 + 7 - 5 - 6,8,7,8,9,1711.3659235999949,1713.391525400002,1714.906545100006,1719.9250960000063,1722.4758862000017,1722.4758910999954,1723.9923304999977,1725.0090859000047,w,8.0,2.55079019999539,1,+1,269,4.412384485307138,-0.12152344000946513,-0.06931180015891147,1186682.0,-21.645384047555176,0.12660403183032098,-0.12492243533802716,1190216.0,,,,,1714.9065057320015,1711.3725057320016,
69,2,20,F,1,1,61.0,23,3,high,2 + 1 + 9 - 7 + 6,11,11,13,12,1726.5257102000032,1728.5519043999957,1730.0664677000022,1735.0845973999967,1739.0359567999983,1739.0359619000085,1740.5524804000015,1741.5697602,q,11.0,3.95135940000182,1,+10,279,-6.4933690532910315,-0.7750915920104591,0.5063770074464085,1201842.0,-22.892398893528615,-0.7804011598831466,-1.1973397713864218,1205375.0,,,,,1730.0655057320016,1726.5325057320017,
70,2,20,F,1,1,62.0,24,3,low,3 - 7 + 5 + 1 + 9,11,13,12,11,1743.0864499000018,1745.109707800002,1746.624632300009,1751.6429557000083,1755.1880209000085,1755.188026200005,1756.7044107999973,1757.7214325999958,e,11.0,3.5450651999999536,1,+1,280,23.707423110239656,0.20153411794002274,0.05832557210546829,1218400.0,-7.496622687071621,-0.21890450490188673,-0.3403799684470332,1221933.0,,,,,1746.6235057320016,1743.0905057320017,
71,2,20,F,1,1,63.0,25,1,low,3 + 1 + 8 + 1 + 1,14,12,14,13,1759.2379989000035,1761.2641683999973,1762.7792456000025,1767.7963215000054,1768.7399540000042,1768.7399596000032,1770.2564876999968,1771.2733636000048,w,14.0,0.9436324999987846,1,+1,281,-29.748843159883286,-0.44798395942120006,-0.003612823529222986,1234554.0,-59.61049225238515,0.29929969562764835,0.2517434798737459,1238088.0,,,,,1762.7785057320016,1759.2445057320017,
72,2,20,F,1,1,64.0,26,2,low,6 + 1 + 8 + 5 - 1,19,17,19,18,1772.7900785999957,1774.8151752999984,1776.3299572999967,1781.3499226999993,1783.0999049999955,1783.0999099000037,1784.6163916000078,1785.6337232000078,q,17.0,1.7499822999961907,0,+0,281,0.5482253796576373,-0.20138365027689265,-0.5443998890343322,1248106.0,7.073816647661878,-0.7209659829538788,0.019317471685431187,1251639.0,,,,,1776.3295057320015,1772.7965057320016,
73,2,20,F,1,1,65.0,27,2,high,5 - 8 + 7 + 1 + 1,6,8,6,7,1787.150514199995,1789.1784208000026,1790.6935414000036,1795.7120942000038,1797.2198790999971,1797.2198844999948,1798.736332200002,1799.753474199999,w,6.0,1.5077848999935668,1,+10,291,-6.4271849649626205,-0.04515085068189828,-0.5696426428386907,1262468.0,-6.704305391693467,-0.78036353308815,-0.1880732884559957,1266002.0,,,,,1790.6925057320016,1787.1585057320017,
74,2,20,F,1,1,66.0,28,4,high,5 + 6 - 4 + 7 + 9,23,23,24,25,1801.270425199997,1803.295741199996,1804.810601300007,1809.830597200009,1811.0439118000068,1811.0439166,1812.5602789999973,1813.577036200004,q,23.0,1.2133145999978296,1,+10,301,26.1270509299259,0.061759865419889426,0.11752405370328889,1276586.0,19.170794949869595,-0.4881498839062117,-0.04609552109798587,1280121.0,,,,,1804.8115057320017,1801.2765057320016,
75,2,20,F,1,1,67.0,29,3,low,4 + 8 - 9 + 1 + 7,11,13,11,9,1815.0934154999995,1817.1182760000083,1818.6334209000047,1823.6521790999975,1827.660030400002,1827.660035599998,1829.176204400006,1830.193185600001,w,11.0,4.007851300004404,1,+1,302,8.00568043334455,-0.0659730719459688,-0.1451452950289407,1290408.0,0.8068079600610965,-1.0230388921280538,0.01063576851757686,1293942.0,,,,,1818.6325057320016,1815.0985057320015,
76,2,20,F,1,1,68.0,30,2,high,9 + 5 - 6 + 1 - 1,8,9,7,8,1831.709877400004,1833.7363620999968,1835.2511708999957,1840.2703788000072,1843.4520404000068,1843.452045900005,1844.9685205999997,1845.985570799996,q,9.0,3.181661599999643,0,+0,302,-6.941217887691973,-0.03260864597001323,0.1186468093143267,1307026.0,-6.843567396561813,0.14083759333360701,0.072346052189459,1310561.0,,,,,1835.2515057320015,1831.7165057320017,
77,2,20,F,1,1,69.0,31,2,high,9 + 4 + 5 + 1 - 1,18,19,17,18,1847.502458200004,1849.5266134999983,1851.041501,1856.0605928000004,1857.6200269999968,1857.6200327999975,1859.1364206,1860.154025900003,e,18.0,1.5594341999967585,1,+10,312,-2.988503883077124,0.23933452422103052,0.07981385311731204,1322817.0,8.984528217166073,-0.5970908714850407,0.025852833199893954,1326351.0,,,,,1851.0415057320017,1847.5075057320016,
78,2,20,F,1,1,70.0,32,3,high,9 - 1 + 5 - 6 + 8,15,15,14,17,1861.6694330000028,1863.6955771000064,1865.2105859000003,1870.228712199998,1872.243975500009,1872.243981100008,1873.7602604999995,1874.7770550999996,q,15.0,2.0152633000107016,1,+10,322,-22.421558440536124,-9.249014595571794,-11.288693170582455,1336985.0,10.593731380179142,-0.6808963065997258,0.14867839619918666,1340519.0,,,,,1865.2095057320016,1861.6755057320015,
79,2,20,F,1,1,71.0,33,4,high,6 + 7 + 9 - 3 + 5,24,24,22,23,1876.294280400005,1878.3191326000087,1879.834325600008,1884.852726600002,1887.260000299997,1887.2600056000083,1888.7765545,1889.793720800008,e,23.0,2.4072736999951303,0,+0,322,14.310238407119648,-0.512213348580624,0.24996148641940108,1351609.0,12.89041461540144,-0.03901814482156851,-0.3021517985335258,1355143.0,,,,,1879.8335057320016,1876.2995057320015,
80,2,20,F,1,1,72.0,34,3,high,4 + 5 - 3 + 7 - 1,12,11,13,12,1891.310337200004,1893.337054500007,1894.852325800006,1899.8712418000068,1901.204047200008,1901.2040522000025,1902.7206153000009,1903.7377042000007,e,12.0,1.3328054000012344,1,+10,332,25.500783078613903,0.4492868470536706,-0.061211526562885865,1366627.0,17.396456152106573,0.10123885122103005,-0.033717402127428464,1370161.0,,,,,1894.8515057320017,1891.3175057320016,
81,2,20,F,1,1,73.0,35,3,low,3 + 1 + 6 - 8 + 9,11,11,13,12,1905.2542385999984,1907.2803677000047,1908.795425400007,1913.8129139000084,1914.8520810000043,1914.852085699997,1916.3685394000056,1917.3853516999952,q,11.0,1.039167099996121,1,+1,333,0.6093271723172058,0.7012914040564016,0.15856136551739208,1380570.0,6.748044963674177,0.34889204477639035,0.058420920928971665,1384103.0,,,,,1908.7935057320017,1905.2605057320015,
82,2,20,F,1,1,74.0,36,2,high,2 + 9 + 1 + 1 - 5,8,6,8,7,1918.9016594999996,1920.929398200009,1922.444609700004,1927.462855699996,1928.4760081999996,1928.4760133999955,1929.992535800004,1931.0096991000028,w,8.0,1.0131525000033434,1,+10,343,5.731718076373568,-0.722940009326452,-0.26332392946783756,1394219.0,-0.38819924529121863,1.5063717218914743,1.5664643613405702,1397753.0,,,,,1922.4435057320015,1918.9095057320017,
83,2,20,F,1,1,75.0,37,2,high,5 + 9 - 8 + 1 + 1,8,7,8,9,1932.526274799995,1934.549956999996,1936.065081000008,1941.0832240000016,1944.412068500009,1944.4120739000064,1945.9283899,1946.9446280999985,q,7.0,3.328844500007108,0,+0,343,7.644805052653606,-0.5150743290824011,0.186842924925251,1407840.0,-15.60228740345608,0.085238806744933,0.11358277848717302,1411373.0,,,,,1936.0635057320017,1932.5305057320015,
84,2,20,F,1,2,76.0,0,1,low,5 + 9 - 1 + 1 + 1,15,15,17,13,1952.8874228000057,1954.9137033000009,1956.428668399996,1961.4466047000024,1962.435971400002,1962.4359764999967,1963.952531999996,1964.9695306000067,q,15.0,0.989366699999664,1,+1,344,-21.03789547906227,-0.14644780740723018,-0.32129136880035425,1428204.0,21.89353563597043,-0.11848890766901521,-0.21357067310488853,1431737.0,,,,,1956.4275057320017,1952.8945057320016,
85,2,20,F,1,2,77.0,1,4,low,3 + 8 - 4 + 9 + 7,23,22,23,24,1966.486150800003,1968.5126449999952,1970.0277754999988,1975.0465661000053,1979.4920048000056,1979.4920098,1981.0084567000013,1982.025643800007,q,22.0,4.445438700000523,0,+0,344,18.05817729411339,0.019453484570897128,-0.24945319639034658,1441802.0,-14.87678529799196,0.3236808574989367,0.8279418499548288,1445336.0,,,,,1970.0265057320016,1966.4925057320015,
86,2,20,F,1,2,78.0,2,2,high,2 + 9 - 4 + 1 + 1,9,8,11,9,1983.5425376000055,1985.566799799999,1987.0818929000088,1992.1003841000056,1993.3321534999995,1993.3321590999983,1994.8487066000089,1995.8657122000004,e,9.0,1.2317693999939363,1,+10,354,-40.3379797101105,-0.3236073472103831,0.08284458613970935,1458857.0,28.544580979991274,-0.14640563474030666,-0.11093444108934047,1462390.0,,,,,1987.0805057320017,1983.5475057320016,
87,2,20,F,1,2,79.0,3,2,high,3 + 9 + 1 - 5 + 1,9,8,7,9,1997.382727899996,1999.408786400003,2000.9239303000068,2005.942003899996,2006.8760558000067,2006.876061000003,2008.3924039999984,2009.4095852000028,e,9.0,0.9340519000106724,1,+10,364,-45.007732524924094,-0.27290442124552605,-0.13010469548511283,1472698.0,-13.129557829426188,-0.2977110696488423,0.18415047258880612,1476232.0,,,,,2000.9225057320016,1997.3885057320017,
88,2,20,F,1,2,80.0,4,1,high,7 + 1 + 4 + 1 - 1,12,11,12,13,2010.9262458000007,2012.9533501999977,2014.4683962999989,2019.4867554000084,2020.5481137000024,2020.5481189999991,2022.0645351999992,2023.081560400009,w,12.0,1.0613582999940263,1,+10,374,10.17723333972396,-0.44630031602912545,-0.42560910515850425,1486243.0,0.7491977300810984,-0.7016805918514026,-0.4843818483281832,1489776.0,,,,,2014.4665057320017,2010.9335057320015,
89,2,20,F,1,2,81.0,5,2,high,9 + 6 + 1 + 7 + 1,24,25,24,23,2024.5981271000053,2026.626070600003,2028.141085299998,2033.1599470000076,2035.3880942999967,2035.3881002999988,2036.9044678000064,2037.922134000008,w,24.0,2.2281472999893595,1,+10,384,14.932225435242488,-0.08351386492435564,-0.35459600169168937,1499915.0,42.37847365989479,-0.11202760815407142,0.030367537156037017,1503450.0,,,,,2028.1405057320017,2024.6055057320016,
90,2,20,F,1,2,82.0,6,2,low,8 + 1 + 9 + 1 - 5,14,14,15,13,2039.4384591999988,2041.465941900009,2042.9811150000023,2047.999156300008,2051.4042386000074,2051.4042445000086,2052.920752000005,2053.937069000007,q,14.0,3.4050822999997763,1,+1,385,-16.64703136291993,0.0010111533920977855,-0.04425505493873105,1514756.0,14.53647156082872,-0.4481582900783776,0.12077547589308502,1518289.0,,,,,2042.9795057320016,2039.4465057320017,
91,2,20,F,1,2,83.0,7,1,low,7 + 1 + 4 + 1 - 1,12,14,12,13,2055.453719500001,2057.4796279,2058.994836099999,2064.013556300008,2064.924124199999,2064.924129699997,2066.441175300002,2067.458310700007,w,12.0,0.9105678999912924,1,+1,386,1.5434116157448692,0.17296993831136254,-0.11130809869689706,1530769.0,16.082330934630267,0.5859194746439265,0.608173982483081,1534303.0,,,,,2058.9935057320017,2055.4595057320016,
92,2,20,F,1,2,84.0,8,4,high,6 + 5 - 7 + 8 - 9,3,4,5,3,2068.974481700003,2071.000322399996,2072.515518400003,2077.534066299995,2082.551072500006,2082.551074999996,2084.0678789000085,2085.0865867999964,,,,0,Too Slow!,386,-1.5139557063730535,-0.16810020732523157,0.15375232025319763,1544290.0,-12.038437041967265,0.2580175533525644,0.021516665677912883,1547824.0,,,,,2072.5145057320015,2068.980505732002,
93,2,20,F,1,2,85.0,9,2,low,3 + 8 + 1 - 5 + 1,8,9,8,6,2086.6029396999947,2088.6262493999966,2090.141392400008,2095.159563699999,2098.156220600009,2098.1562269999995,2099.672673499997,2100.6894969999994,w,8.0,2.996656900009839,1,+1,387,-6.665931106336245,-0.18548244315750306,-0.6369650057395155,1561916.0,2.379213780268019,0.033097337774317115,0.2753442190330513,1565449.0,,,,,2090.1395057320015,2086.6065057320016,
94,2,20,F,1,2,86.0,10,4,high,5 + 7 - 4 + 6 + 9,23,25,23,24,2102.206773500002,2104.2332284000004,2105.7482475,2110.766781600003,2113.3322194000066,2113.332224900005,2114.848684900004,2115.867398400005,w,23.0,2.565437800003565,1,+10,397,-20.817279463813776,-0.6817421564664969,-0.27299355111201784,1577523.0,-5.070145805711283,-0.2186021030992671,-0.2874314068359429,1581056.0,,,,,2105.7465057320014,2102.2135057320015,
95,2,20,F,1,2,87.0,11,1,high,9 + 7 + 1 + 1 + 1,19,20,19,18,2117.3837615000084,2119.406303399999,2120.921217700001,2125.9403276000085,2126.9961900000053,2126.9961954000028,2128.512819199997,2129.530242299996,w,19.0,1.0558623999968404,1,+10,407,6.347252696210591,-0.09509652713139216,0.24679953635341967,1592695.0,-3.2369216384899318,0.33024053912744744,0.08516429691749394,1596229.0,,,,,2120.9195057320017,2117.3855057320015,
96,2,20,F,1,2,88.0,12,1,high,4 + 8 + 1 - 1 - 1,11,11,13,9,2131.047044799998,2133.0692951999954,2134.5843673000054,2139.604322600004,2140.524122600007,2140.5241289999976,2142.040342399996,2143.057881600005,q,11.0,0.9198000000033062,1,+10,417,-13.779123400486522,-3.3299646021916467,-3.962200461957255,1606359.0,10.009917923304233,-0.2746683534197163,-0.029825486897974596,1609894.0,,,,,2134.5845057320016,2131.0495057320013,
97,2,20,F,1,2,89.0,13,4,high,4 + 7 + 8 - 3 + 9,25,24,26,25,2144.5746836000035,2146.5994202,2148.114777700001,2153.134051000001,2156.028224199996,2156.0282307000016,2157.5444223000086,2158.561710399997,e,25.0,2.894173199994839,1,+10,427,27.552266031254142,0.10490059361331427,-0.2592750924205114,1619889.0,4.239988119557053,0.8644562951688113,0.07714970352892836,1623424.0,,,,,2148.114505732002,2144.5795057320015,
98,2,20,F,1,2,90.0,14,4,high,9 + 7 - 5 + 8 + 6,25,27,24,25,2160.077562000006,2162.103416500002,2163.6179004000005,2168.637161699997,2170.3162589999997,2170.3162645999982,2171.832558299997,2172.8493363000016,e,25.0,1.6790973000024678,1,+10,437,21.246433556996326,8.594142419253632,4.8276767001436784,1635393.0,36.93766497341415,-1.4382707187351382,-1.3628772076929243,1638926.0,,,,,2163.6165057320013,2160.083505732002,
99,2,20,F,1,2,91.0,15,1,low,3 + 1 + 9 + 1 - 1,13,13,12,14,2174.3653165,2176.392430599997,2177.9085727000056,2182.9275129000016,2183.8922500000044,2183.8922552000004,2185.4086924000003,2186.424622499995,q,13.0,0.9647371000028216,1,+1,438,-31.018004057082546,0.568081127090605,-0.1480745407529831,1649682.0,11.074850369997705,-0.3941322207078226,-0.3396486800909333,1653217.0,,,,,2177.9075057320015,2174.3725057320016,
100,2,20,F,1,2,92.0,16,1,low,9 + 8 + 1 + 1 - 1,18,18,20,17,2187.9422426999954,2189.965628100006,2191.480724299996,2196.498921300008,2197.6602499,2197.6602551999968,2199.1767729999992,2200.1934959000064,q,18.0,1.1613285999919754,1,+1,439,-7.623230248854949,-0.2466634744630709,-0.03478973645248251,1663255.0,-3.300155425440602,-0.09541434388009762,-0.011284002926145842,1666788.0,,,,,2191.4785057320014,2187.945505732002,
101,2,20,F,1,2,93.0,17,2,low,4 + 9 + 1 - 7 - 1,6,5,8,6,2201.710063799997,2203.737317200008,2205.2524507000053,2210.272395399996,2211.2363151000027,2211.236320199998,2212.752835899999,2213.7695052000054,e,6.0,0.9639197000069544,1,+1,440,4.851866481045349,-0.11728757691782965,0.13324842827508143,1677027.0,-11.19149997044746,-0.2039107828492024,-0.15290838016110975,1680562.0,,,,,2205.2525057320017,2201.717505732002,
102,2,20,F,1,2,94.0,18,3,high,5 + 1 + 7 - 8 + 6,11,9,13,11,2215.2858623000066,2217.311613700004,2218.8266734000063,2223.8447418,2225.9801810000063,2225.9801866000053,2227.4965552000067,2228.514212000009,e,11.0,2.135439200006658,1,+10,450,-2.9514244039611155,-0.9768012968018551,0.07794805788666981,1690601.0,16.613899526940397,0.15088643678764457,0.1548636282229472,1694134.0,,,,,2218.824505732002,2215.2915057320015,
103,2,20,F,1,2,95.0,19,3,low,7 - 5 + 9 + 1 - 4,8,9,8,7,2230.031091800003,2232.0554714000027,2233.5705516000016,2238.588575700007,2239.716255300009,2239.7162610000087,2241.2327504999994,2242.2487049000047,w,8.0,1.1276796000020113,1,+1,451,24.582483816893614,-0.3919448342110785,0.030324574114165337,1705345.0,35.47899253767734,-2.355234093674858,-3.240242179060126,1708878.0,,,,,2233.5685057320015,2230.0355057320016,
104,2,20,F,1,2,96.0,20,4,high,4 + 7 - 8 + 9 - 4,8,8,9,7,2243.7654415,2245.792547699996,2247.307228100006,2252.325548599998,2255.9562117000023,2255.956218200008,2257.4725809000083,2258.4898227999947,q,8.0,3.6306631000043126,1,+10,461,-10.545488908446352,-0.845223419216965,-0.7929524926451559,1719082.0,-9.417216415452247,-0.21505725248661944,0.10705384127603157,1722615.0,,,,,2247.3055057320016,2243.7725057320017,
105,2,20,F,1,2,97.0,21,1,low,3 + 1 + 9 + 1 + 1,15,17,15,14,2260.006360500003,2262.034328900001,2263.5495092000056,2268.568890900002,2269.548193499999,2269.548199099998,2271.0648395000026,2272.0816299,w,15.0,0.9793025999970268,1,+1,462,-2.5972707173561176,-2.426281853164248,-3.0230637232551723,1735323.0,-8.322074485657126,-0.42439363829263765,0.5068926290737186,1738858.0,,,,,2263.5485057320016,2260.0135057320017,
106,2,20,F,1,2,98.0,22,4,low,8 + 4 + 7 - 5 - 6,8,6,9,8,2273.5981333999957,2275.6254241999995,2277.1409548000083,2282.159490000005,2285.7722835000022,2285.7722884999966,2287.289375200009,2288.3062352999987,e,8.0,3.612793499996769,1,+1,463,7.708309237254944,-0.7136444903126424,-0.2494277536381877,1748914.0,-3.3018532297007397,-0.14573605578334625,0.15228192402569718,1752449.0,,,,,2277.1395057320015,2273.6045057320016,
107,2,20,F,1,2,99.0,23,3,low,5 + 6 - 4 - 1 + 8,14,16,14,15,2289.822559599997,2291.850534500001,2293.3653062000085,2298.383252,2301.0281871000043,2301.0281917999964,2302.544446800006,2303.561237300004,w,14.0,2.644935100004659,1,+1,464,-21.915545829450988,-0.1858968265802865,-0.028999040924429398,1765140.0,-19.749755962870626,-0.5853033320315304,0.17916477718835733,1768672.0,,,,,2293.3625057320014,2289.8305057320017,
108,2,20,F,1,2,100.0,24,3,high,8 + 5 + 1 - 7 + 9,16,14,16,17,2305.077598799995,2307.1026585000072,2308.617945300008,2313.6368520999968,2316.4923452000075,2316.492351000008,2318.0082077999978,2319.0250956999957,w,16.0,2.85549310001079,1,+10,474,-14.978118833137795,0.6561619860660604,-0.05874971432260789,1780391.0,-26.96666713233332,-0.4090776255023667,-0.3337430325757631,1783926.0,,,,,2308.6165057320013,2305.0815057320015,
109,2,20,F,1,2,101.0,25,4,high,4 + 9 - 7 + 8 + 5,19,21,19,20,2320.541848299996,2322.5678288000054,2324.0828721,2329.1014195000025,2332.6362296000007,2332.6362347999966,2334.1524957000074,2335.1693131000065,w,19.0,3.53481009999814,1,+10,484,23.626647080313433,0.8701438906387562,0.6588095912723047,1795857.0,-1.8859365168947093,0.5458124760862888,0.4234724196817248,1799390.0,,,,,2324.0805057320017,2320.547505732002,
110,2,20,F,1,2,102.0,26,2,low,6 + 1 + 7 + 5 - 1,18,16,18,17,2336.685966200006,2338.7133505999955,2340.229099500008,2345.2489585000003,2346.564345100007,2346.5643509000074,2348.080781800003,2349.0974568999954,w,18.0,1.3153866000066046,1,+1,485,6.674007222772161,0.41313505993524435,-0.25339342606800264,1812002.0,9.95257861575296,-0.24137005827675484,0.14764938983808973,1815538.0,,,,,2340.2285057320014,2336.6925057320013,
111,2,20,F,1,2,103.0,27,4,high,3 + 9 - 5 + 6 + 8,21,23,22,21,2350.613764599999,2352.639992800003,2354.1550744999986,2359.1731875999976,2362.380328900006,2362.380334100002,2363.8967716000043,2364.913977799996,e,21.0,3.207141300008516,1,+10,495,-33.96739294103223,0.19037280776346144,0.06322930868186827,1825929.0,13.843777557572114,1.8061228779458185,2.437791040965513,1829462.0,,,,,2354.1525057320014,2350.619505732002,
112,2,20,F,1,2,104.0,28,3,high,7 + 1 + 9 + 5 - 6,16,15,16,14,2366.4306366999954,2368.4546980000014,2369.9698970000027,2374.9897275999974,2378.860364200009,2378.860369400005,2380.376884600002,2381.3950310000077,w,16.0,3.870636600011494,1,+10,505,-12.326831154476753,-0.8275628549839951,-0.1845254779126777,1841744.0,-4.816058077984531,2.2494901636331184,2.086915599843275,1845278.0,,,,,2369.9685057320016,2366.4345057320015,
113,2,20,F,1,2,105.0,29,1,high,5 + 1 + 1 + 6 + 1,14,13,14,16,2382.9115774999955,2384.9382011999987,2386.453321599998,2391.471476000006,2392.356355099997,2392.356360699996,2393.872753100004,2394.889890400009,w,14.0,0.8848790999909397,1,+10,515,18.087613423298684,0.22486044338504652,-0.21730746978301685,1858227.0,9.145894537625098,-0.019824935224675766,-0.02419217790127748,1861760.0,,,,,2386.4505057320016,2382.9175057320017,
114,2,20,F,1,2,106.0,30,4,high,7 + 6 - 9 + 8 - 3,9,9,7,8,2396.4066508999967,2398.4323142000067,2399.947473299995,2404.9654838999995,2409.0763218000066,2409.076327999996,2410.5928706999985,2411.609896599999,q,9.0,4.110837900007027,1,+10,525,-26.919638446591573,-11.449321738036344,-7.062768197032722,1871721.0,23.29525202256793,-0.6518891479970268,-0.3208250553135672,1875255.0,,,,,2399.945505732002,2396.4115057320014,
115,2,20,F,1,2,107.0,31,3,low,6 + 7 + 8 + 1 - 9,13,13,14,15,2413.126378300003,2415.1530066999985,2416.668230700001,2421.6883537999965,2423.812363600009,2423.812369300009,2425.3288433999987,2426.345155999996,q,13.0,2.1240098000125727,1,+1,526,-34.71328525028796,0.44076949500301144,0.13860848684672522,1888442.0,22.335417060172915,0.38219796677816387,0.14077419396548008,1891977.0,,,,,2416.6675057320017,2413.132505732002,
116,2,20,F,1,2,108.0,32,3,high,2 + 1 + 9 - 5 + 6,13,14,13,11,2427.861828299996,2429.8875736000045,2431.402618699998,2436.420426800003,2437.924326399996,2437.924331800008,2439.440606000004,2440.458627,w,13.0,1.5038995999930194,1,+10,536,-18.957243937278058,0.08369740863239628,-0.10445799315385162,1903177.0,-13.95464522931048,1.0502885148751382,0.2272951557209968,1906709.0,,,,,2431.3995057320017,2427.8675057320015,
117,2,20,F,1,2,109.0,33,1,high,8 - 1 + 1 + 6 + 1,15,14,16,15,2441.9744943999976,2444.001604799996,2445.5167092000047,2450.5344715999963,2451.636313199997,2451.6363184000074,2453.152819900002,2454.169884600007,e,15.0,1.1018416000006257,1,+10,546,11.720804621189295,-0.4052897531309245,-0.18750649169195466,1917289.0,-12.395240447458962,0.024458924221395506,-0.2446098123251348,1920823.0,,,,,2445.5135057320017,2441.9795057320016,
118,2,20,F,1,2,110.0,34,1,low,5 + 1 + 1 + 9 + 1,17,17,16,19,2455.686288500001,2457.7140442999957,2459.2292315000086,2464.2472807000013,2466.0604129999992,2466.060418100009,2467.576820500006,2468.594404999996,w,16.0,1.81313229999796,0,+0,546,-4.028419200462476,-0.6094943845757461,0.18565809422813917,1931003.0,6.661749750400599,0.6922717651309407,-0.13316190274375117,1934536.0,,,,,2459.226505732002,2455.6935057320015,
119,2,20,F,1,2,111.0,35,3,low,8 - 7 + 9 + 1 + 4,15,16,14,15,2470.1106126000086,2472.136114299996,2473.6519727999985,2478.671650899996,2479.6602778000088,2479.6602830000047,2481.176946000007,2482.193772700004,e,15.0,0.9886269000126048,1,+1,547,2.834620225124155,-0.6024755125545873,-0.4679456857965092,1945425.0,2.4657589481457576,-0.8435170941281633,-0.5026510404812141,1948960.0,,,,,2473.650505732002,2470.1155057320016,
120,2,20,F,1,2,112.0,36,3,high,5 + 7 + 1 - 4 + 6,15,15,17,13,2483.710398700001,2485.7349632999976,2487.2504084999964,2492.2688506999984,2493.684430399997,2493.684435700008,2495.2008970000024,2496.2179254000075,q,15.0,1.4155796999984886,1,+10,557,-3.831707611649854,0.2507366604046344,-0.22944145508642766,1959024.0,-0.29206310080375353,0.25162866374187454,0.11217256662351094,1962558.0,,,,,2487.248505732002,2483.7145057320013,
121,2,20,F,1,2,113.0,37,3,low,7 - 1 + 8 - 6 + 4,12,12,11,13,2497.7356491999963,2499.759922700003,2501.274166000003,2506.292675500008,2509.948309800005,2509.948315100002,2511.464904200009,2512.4820838000014,w,11.0,3.655634299997473,0,+0,557,19.077249299842535,0.4067788270558088,0.11235738687505892,1973048.0,0.4473306189786843,-1.9924877363614728,-1.962637839335803,1976581.0,,,,,2501.2715057320015,2497.7385057320016,
122,2,20,F,1,3,114.0,0,2,low,9 + 4 - 6 + 1 - 1,7,7,8,9,2525.4882054000045,2527.515840100008,2529.0307750000065,2534.050025100005,2534.804313800006,2534.804319100004,2536.320921899998,2537.3376466000045,q,7.0,0.7542887000017799,1,+1,558,10.197634402518235,-5.4069160900757165,-3.4773484201910065,2000805.0,-35.34912937614594,-2.2192360735877377,-1.078618002048985,2004339.0,,,,,2529.029505732002,2525.4955057320017,
123,2,20,F,1,3,115.0,1,3,low,2 + 9 - 3 + 4 + 1,13,11,13,14,2538.8537832,2540.8813636999985,2542.396504000004,2547.4147555999957,2548.444377000007,2548.4443819000007,2549.960748800004,2550.977548199997,w,13.0,1.0296214000118198,1,+1,559,3.0339873825555577,-0.22573376703312142,0.13537223565853207,2014170.0,-13.512598357028946,-5.634844638990473,-5.407138446270166,2017703.0,,,,,2542.3935057320014,2538.860505732002,
124,2,20,F,1,3,116.0,2,4,high,7 + 6 - 4 + 9 - 5,13,13,12,14,2552.4944595999987,2554.518677200001,2556.0329618999967,2561.051934000003,2563.380457899999,2563.380463199996,2564.897056600006,2565.9141115999955,q,13.0,2.328523899996071,1,+10,569,-4.022069171778053,-0.20872537554977733,-0.17361528456641562,2027807.0,10.80317330427295,0.40864390245456983,-0.44193990988968235,2031340.0,,,,,2556.0305057320015,2552.4975057320016,
125,2,20,F,1,3,117.0,3,4,low,4 + 7 - 8 + 9 - 3,9,9,8,11,2567.430719099997,2569.4579811000003,2570.9730649999983,2575.9920139000023,2579.788396600008,2579.7884017000038,2581.304851399997,2582.3215265000035,q,9.0,3.796382700005779,1,+1,570,-12.218884999463459,0.18871091976098286,0.03398873492964638,2042746.0,9.158807351158703,0.3103855110308409,-0.005193738178724594,2046280.0,,,,,2570.9705057320016,2567.436505732002,
126,2,20,F,1,3,118.0,4,4,high,6 + 9 - 7 + 8 - 5,11,11,12,13,2583.8387158999976,2585.864367300004,2587.379596700004,2592.398515100009,2594.5644952,2594.564501800007,2596.080984900007,2597.098194899998,w,12.0,2.1659800999914296,0,+0,570,6.463804021286327,0.3918187231999317,0.3211046185501183,2059153.0,7.611276342627337,-0.09735771661300774,0.14968136990993308,2062686.0,,,,,2587.3765057320015,2583.843505732001,
127,2,20,F,1,3,119.0,5,2,high,5 - 1 + 1 + 8 + 9,22,21,22,23,2598.615333299997,2600.6420385999954,2602.157140199997,2607.1751350999984,2609.300478200006,2609.300483600004,2610.8169846999954,2611.8350791999983,w,22.0,2.12534310000774,1,+10,580,-17.87915334696278,-0.07595679951993306,0.12595355859419977,2073930.0,2.3004965279739737,-2.475406214965033,-2.867325797132994,2077463.0,,,,,2602.1535057320016,2598.620505732001,
128,2,20,F,1,3,120.0,6,4,high,4 + 7 + 9 - 5 + 7,22,23,24,22,2613.3516955000086,2615.377212300009,2616.892129500004,2621.910694200007,2622.9725986999983,2622.972603999995,2624.489046400005,2625.506116500008,e,22.0,1.0619044999912148,1,+10,590,-2.0606846926414093,-0.0524158684591951,-0.25463272365500034,2088666.0,3.3861120104170714,0.7447862157540053,1.2748224636367604,2092199.0,,,,,2616.8895057320015,2613.356505732002,
129,2,20,F,1,3,121.0,7,2,high,5 + 7 - 8 + 1 + 1,6,7,8,6,2627.0226788,2629.049735000008,2630.564737499997,2635.5847713999974,2636.5165173999994,2636.5165229999984,2638.033036299996,2639.0502289,e,6.0,0.931746000002022,1,+10,600,3.642439378671202,-0.21301211075560023,-0.07569092457935422,2102338.0,9.831931265037671,0.023246829294480076,-0.2154213845738382,2105873.0,,,,,2630.5635057320014,2627.0285057320016,
130,2,20,F,1,3,122.0,8,2,low,4 + 9 - 7 + 1 - 1,6,5,8,6,2640.5672834,2642.595342300003,2644.110151100001,2649.128978000008,2652.908411900004,2652.908416799997,2654.425037000008,2655.442361900001,e,6.0,3.779433899995638,1,+1,601,-12.703291841602852,-6.141642131189036,-4.533314733393235,2115884.0,-5.691849750483975,0.12413838044576853,-0.26366227566404543,2119417.0,,,,,2644.1075057320013,2640.574505732002,
131,2,20,F,1,3,123.0,9,2,high,4 + 8 + 1 + 1 - 6,8,8,7,9,2656.9589796000078,2658.985344400004,2660.500452399996,2665.5195541,2666.2764934000006,2666.276499300002,2667.792388500005,2668.809669800001,q,8.0,0.7569393000012496,1,+10,611,3.1325480576525013,-0.6344598714135219,-0.9136387103593364,2132274.0,-19.844541900389284,-0.051228870464871346,0.4717296716648436,2135808.0,,,,,2660.498505732002,2656.9645057320013,
132,2,20,F,1,3,124.0,10,4,low,5 + 7 - 4 + 8 + 6,22,23,22,24,2670.326052500008,2672.350080400007,2673.865433400002,2678.8836016999994,2682.812503399997,2682.8125086000077,2684.328768799998,2685.345478300005,w,22.0,3.928901699997368,1,+1,612,2.689513323994248,-3.127147807149286,-3.5003671731708446,2145638.0,-14.747954939474727,0.2546631780772448,-0.5222314541860476,2149172.0,,,,,2673.8625057320014,2670.3285057320018,
133,2,20,F,1,3,125.0,11,2,high,7 + 5 + 1 - 1 - 8,4,3,4,2,2686.862101100007,2688.8876025000063,2690.4027185000014,2695.422374200003,2696.820584600005,2696.8205896,2698.3369791000005,2699.3538508000056,w,4.0,1.3982104000024265,1,+10,622,16.87143965682079,-0.1548091803322933,0.14724438730447975,2162176.0,-34.200921982853146,2.7591563128451684,3.131532223826452,2165711.0,,,,,2690.401505732001,2686.8665057320013,
134,2,20,F,1,3,126.0,12,3,low,2 + 1 + 9 - 4 + 6,14,14,16,15,2700.8704683999968,2702.896927599999,2704.4120012000058,2709.4306026999984,2710.348483099995,2710.348488100004,2711.864873700004,2712.881520099996,q,14.0,0.9178803999966476,1,+1,623,33.98280409531043,-0.04877809667315347,-0.15746906685421758,2176185.0,-2.21084687605782,0.5560112197173184,0.4512212160558957,2179719.0,,,,,2704.409505732002,2700.8755057320013,
135,2,20,F,1,3,127.0,13,4,high,3 + 9 - 5 + 8 - 7,8,8,7,9,2714.398205699996,2716.421510700005,2717.937266599998,2722.9560237999976,2725.8047128000035,2725.804718600004,2727.321029300001,2728.338209399997,w,7.0,2.848689000005834,0,+0,623,-15.553698361859857,-0.12645313496354982,0.8619133597731965,2189710.0,-19.280503476295934,-0.192579279976266,-0.2575916195901278,2193244.0,,,,,2717.9345057320015,2714.400505732002,
136,2,20,F,1,3,128.0,14,2,high,4 + 7 + 1 + 1 - 8,5,5,4,7,2729.854853900004,2731.878987000004,2733.393510199996,2738.4117490000062,2739.524536099998,2739.524541599996,2741.0407494999963,2742.058013200003,q,5.0,1.1127870999916922,1,+10,633,6.687090716182854,-0.3847633890893638,0.09605212450453182,2205167.0,9.366233433073155,-0.7202276063611142,-0.9201753756670064,2208700.0,,,,,2733.3905057320017,2729.8575057320013,
137,2,20,F,1,3,129.0,15,2,high,4 + 1 + 9 + 1 - 6,9,7,9,8,2743.574662600004,2745.6010277000023,2747.1160511000053,2752.134623300008,2753.0844492000037,2753.0844541999977,2754.6005349000043,2755.6174797999997,w,9.0,0.9498258999956306,1,+10,643,50.337340381172595,0.8676275754510168,1.1943272738262163,2218889.0,3.3794803013794077,0.18051004998452536,0.8912905243897749,2222422.0,,,,,2747.1125057320014,2743.579505732002,
138,2,20,F,1,3,130.0,16,4,high,3 + 8 - 5 + 9 - 7,8,7,8,6,2757.1341354000037,2759.159314400007,2760.6746827000024,2765.694529500004,2770.7104322000087,2770.7104351000016,2772.227188999997,2773.245460799997,,,,0,Too Slow!,643,-25.063766452236152,0.22416724169810154,-0.03983630735744459,2232448.0,-2.5043369670041606,0.438470801246142,0.5615831963293743,2235983.0,,,,,2760.673505732002,2757.1385057320012,
139,2,20,F,1,3,131.0,17,4,low,9 + 3 - 5 + 8 + 6,21,23,21,19,2774.762156500001,2776.7890371999965,2778.3041220000014,2783.3222486000013,2786.236526299996,2786.236531700008,2787.753238699996,2788.7701431000023,w,21.0,2.914277699994273,1,+1,644,5.471108261168431,1.3813943944199627,0.7238543337340597,2250077.0,48.61581780961086,2.6050147884599504,2.041280873234441,2253610.0,,,,,2778.3005057320015,2774.767505732002,
140,2,20,F,1,3,132.0,18,1,low,2 + 1 + 9 + 1 - 1,12,13,11,12,2790.287040199997,2792.3122477,2793.826816700006,2798.845179600001,2800.2445726000005,2800.244577999998,2801.7610586000083,2802.777881400005,e,12.0,1.3993929999996908,1,+1,645,-23.02096959783308,0.8438474215772978,1.057111543501291,2265600.0,7.227994660978641,-0.44236197201328586,-0.057656294561684085,2269133.0,,,,,2793.8235057320016,2790.2905057320013,
141,2,20,F,1,3,133.0,19,4,low,2 + 5 - 3 + 9 + 8,21,21,22,19,2804.2944703999965,2806.3220397999976,2807.836905500008,2812.855554099995,2816.380532199997,2816.3805371000053,2817.8968938000035,2818.9135700000043,q,21.0,3.524978100002045,1,+1,646,0.0550580887422818,-19.169282007559314,-7.598756472470125,2279610.0,-5.869733772128866,0.7872714887773862,0.1236526563266791,2283143.0,,,,,2807.833505732002,2804.3005057320015,
142,2,20,F,1,3,134.0,20,2,low,7 + 1 + 9 - 1 - 8,8,6,8,7,2820.430757199996,2822.456467600001,2823.9723024999985,2828.9906748000067,2829.7884839000035,2829.788488599996,2831.3048661000066,2832.321779699996,w,8.0,0.7978090999968117,1,+1,647,-63.34689557691632,0.2521570879980266,0.42004089634300446,2295744.0,8.978332287484605,-0.268670974152621,0.1799170155191483,2299279.0,,,,,2823.9695057320014,2820.4345057320015,
143,2,20,F,1,3,135.0,21,1,high,8 + 1 + 1 + 1 - 4,7,7,8,5,2833.838069300007,2835.8637424000044,2837.379260300004,2842.398653199998,2843.292529800005,2843.2925351000013,2844.808786199996,2845.825883700003,q,7.0,0.8938766000064788,1,+10,657,-20.642934383548354,-0.5449055040098068,-0.02646691295434911,2309152.0,-2.72593440456971,-0.28175292487597003,0.11664994032599685,2312686.0,,,,,2837.3765057320015,2833.842505732002,
144,2,20,F,1,3,136.0,22,3,low,3 + 8 - 7 - 1 + 9,12,12,13,14,2847.342659700007,2849.3664954999986,2850.881603600006,2855.8997245000064,2857.4526230000047,2857.4526283000014,2858.9688896000007,2859.986283599996,w,13.0,1.552898499998264,0,+0,657,-20.50334153489062,0.7995087328579329,0.5052726984851388,2322654.0,4.38193032324077,-0.27629341233850413,-0.06322163324051866,2326188.0,,,,,2850.878505732002,2847.3445057320014,
145,2,20,F,1,3,137.0,23,1,low,4 + 1 + 1 + 7 - 1,12,14,12,13,2861.503079700007,2863.529898599998,2865.0450251,2870.063168499997,2871.620611999999,2871.6206177999998,2873.137384600006,2874.154481000005,w,12.0,1.557443500001682,1,+1,658,-9.36495086754659,0.47439223167640243,0.5800469371801742,2336818.0,8.092713352501711,0.05451821214861585,-0.09762668396618901,2340351.0,,,,,2865.0415057320015,2861.508505732002,
146,2,20,F,1,3,138.0,24,3,low,9 + 3 - 4 + 6 + 7,21,23,22,21,2875.6710537000035,2877.698255199997,2879.2133616000065,2884.232772400006,2886.244521700006,2886.244527100004,2887.7611972000013,2888.777854,e,21.0,2.011749299999792,1,+1,659,-3.9821831065291615,-0.46104968846488337,-0.4224817325829684,2350986.0,8.826998123766664,-0.3477584766648487,-0.6265098728088181,2354520.0,,,,,2879.2105057320014,2875.6765057320017,
147,2,20,F,1,3,139.0,25,2,high,3 + 8 - 5 + 1 + 1,8,8,6,9,2890.2941285999987,2892.321599300005,2893.8365032,2898.8545176000043,2900.3245697999955,2900.324574900005,2901.840901600008,2902.8579016000003,q,8.0,1.470052199991187,1,+10,669,9.98864350327138,-1.5184059619981451,-0.5755634901756688,2365609.0,9.761932113613707,-0.032133430496994464,-0.15285417550286295,2369142.0,,,,,2893.8325057320017,2890.2995057320013,
148,2,20,F,1,3,140.0,26,1,low,5 + 8 - 1 + 1 + 1,14,14,16,12,2904.374156699996,2906.4010714000037,2907.916141900001,2912.934542999996,2913.8366314000014,2913.836636299995,2915.3529471000074,2916.369258599996,q,14.0,0.9020884000055958,1,+1,670,-11.069166001423927,0.6554086103664742,0.29733264118700786,2379688.0,-1.219225931593968,-0.9482991910673921,-0.3745252116949951,2383222.0,,,,,2907.9125057320016,2904.378505732002,
149,2,20,F,1,3,141.0,27,4,low,8 + 3 - 4 + 5 + 9,21,22,21,23,2917.885574400003,2919.913906700007,2921.4290473,2926.446932599996,2927.7566910000023,2927.7566964,2929.273113999996,2930.289377100009,w,21.0,1.309758400006103,1,+1,671,-14.992021907227445,-0.00046912774570140314,0.13558395161262515,2393202.0,-18.360207306993637,0.07602735812910488,-0.3471629964884859,2396735.0,,,,,2921.4255057320015,2917.892505732002,
150,2,20,F,1,3,142.0,28,1,low,6 + 1 + 1 + 7 - 1,14,13,12,14,2931.805309500007,2933.8311711999995,2935.346034999995,2940.3643648,2941.564647300009,2941.5646530000085,2943.0810104999982,2944.097600199995,e,14.0,1.2002825000090525,1,+1,672,-3.4150693335073363,-1.5369455778803829,-1.492857116910991,2407119.0,-25.882342528972284,0.23409321858932186,-0.07189284711294563,2410652.0,,,,,2935.342505732002,2931.8095057320015,
151,2,20,F,1,3,143.0,29,2,low,9 + 6 + 1 + 7 + 1,24,23,24,25,2945.614153999996,2947.640617199999,2949.1563551,2954.174231500001,2955.204578799996,2955.204584699997,2956.721861400001,2957.739218700008,w,24.0,1.0303472999949008,1,+1,673,18.796502191144832,0.11905617289753767,0.1500832037087454,2420928.0,-23.800358966020873,0.14181953243814016,-0.15207674330649157,2424462.0,,,,,2949.1525057320014,2945.6185057320017,
152,2,20,F,1,3,144.0,30,2,low,3 + 9 - 1 - 5 + 1,7,6,5,7,2959.2554955000087,2961.2800470000075,2962.7951304000017,2967.8130497999955,2970.7886815999955,2970.788686700005,2972.305533499996,2973.322144899997,e,7.0,2.9756317999999737,1,+1,674,-28.85489647921776,2.404327751222705,3.3058710321528872,2434568.0,20.346185043091484,-1.0094364052775018,-1.205447148192596,2438101.0,,,,,2962.7915057320015,2959.258505732002,
153,2,20,F,1,3,145.0,31,1,low,2 + 1 + 9 + 1 - 1,12,12,13,11,2974.838811399997,2976.866349799995,2978.381373199998,2983.3999291000077,2984.4366513999994,2984.4366568999976,2985.9534933999967,2986.9701852,q,12.0,1.0367222999921069,1,+1,675,-42.25681089964103,0.3461772822821425,0.5787662145558325,2450154.0,6.20718293130939,0.6101056722316716,-0.3787332324280639,2453687.0,,,,,2978.3775057320017,2974.8445057320014,
154,2,20,F,1,3,146.0,32,4,low,6 + 9 + 7 - 3 - 5,14,13,14,15,2988.486651300001,2990.5112338000035,2992.026383400007,2997.046318599998,3001.2846192,3001.284624699998,3002.8019623,3003.818561799999,w,14.0,4.238300600001821,1,+1,676,9.58534894148439,-1.2566064605109641,-0.3353626800277816,2463799.0,40.10502626396237,0.22027704837050566,0.1198079040696034,2467334.0,,,,,2992.0245057320017,2988.489505732002,
155,2,20,F,1,3,147.0,33,2,low,7 + 8 + 1 + 9 + 1,26,26,25,24,3005.3344453000027,3007.3587745999976,3008.873814799997,3013.891719899999,3015.572690400004,3015.5726958000014,3017.089789200006,3018.1064138000074,q,26.0,1.68097050000506,1,+1,677,-39.97876220513136,3.312318144352883,3.1425787577354782,2480646.0,6.408236373195091,-0.08663021845633434,0.10851422580382541,2484179.0,,,,,3008.869505732002,3005.3365057320016,
156,2,20,F,1,3,148.0,34,3,high,3 + 1 + 8 - 5 + 9,16,17,15,16,3019.6230993000063,3021.6492456999986,3023.1641520999983,3028.1824499000068,3030.7647062000037,3030.764711399999,3032.281054399995,3033.298269100007,e,16.0,2.582256299996516,1,+10,687,-8.321649255926427,-0.14868564941674123,-0.17698757626151052,2494937.0,21.583461357637454,0.840543070470769,1.3316080435765727,2498470.0,,,,,3023.160505732001,3019.6275057320017,
157,2,20,F,1,3,149.0,35,1,high,8 + 1 + 1 - 1 - 4,5,3,5,6,3034.8143737000064,3036.8393983999995,3038.354440199997,3043.3726827000064,3044.540819700007,3044.540824800002,3046.057124500003,3047.074253700004,w,5.0,1.16813700000057,1,+10,697,-1.1239103051796846,-0.35672472632835195,0.11587130045565974,2510127.0,11.730228682435726,-0.2825608291217465,0.16034128026695393,2513660.0,,,,,3038.3505057320017,3034.8175057320013,
158,2,20,F,1,3,150.0,36,2,low,3 + 1 + 8 - 5 - 1,6,7,6,5,3048.591305599999,3050.619328200002,3052.1342063000047,3057.152585700009,3058.180741300006,3058.1807466000027,3059.697206900004,3060.7140391,w,6.0,1.0281555999972625,1,+1,698,4.309524314455688,-0.18275295274552183,-0.020296609035253432,2523907.0,38.24204328244047,-1.1057330971341681,-1.880578617412748,2527440.0,,,,,3052.1305057320014,3048.597505732002,
159,2,20,F,1,3,151.0,37,3,high,7 + 5 + 9 + 1 - 6,16,15,16,14,3062.2313307000004,3064.257313599999,3065.7724529999978,3070.790594200007,3073.9006962999997,3073.900701799997,3075.416979200003,3076.4338503000035,e,14.0,3.1101020999922184,0,+0,698,-3.2109858091857273,-0.010488298779296912,-0.0567672610842731,2537545.0,9.713417288014277,0.29097255440836634,-0.1761860547220988,2541078.0,,,,,3065.7685057320014,3062.235505732002,
160,2,20,F,1,4,152.0,0,3,high,8 + 6 - 7 + 1 - 4,4,5,4,3,3082.832323800001,3084.857136799997,3086.372230299996,3091.392338100006,3092.356718700001,3092.3567240999982,3093.873036899997,3094.890238299995,w,4.0,0.9643805999949108,1,+10,708,-24.982280209531442,1.2240684128104533,1.9699210348568763,2558144.0,-15.369576866900609,-0.7030195536205261,0.1592704270335208,2561679.0,,,,,3086.369505732002,3082.834505732001,
161,2,20,F,1,4,153.0,1,2,high,5 + 8 + 1 - 1 + 9,22,21,23,22,3096.407206799995,3098.430537599997,3099.9457037999964,3104.9638776000065,3105.9967403000046,3105.996746200006,3107.513029900001,3108.530180700007,e,22.0,1.032862699998077,1,+10,718,-2.8419569938664337,-0.12432397971009879,-0.21174149665935138,2571718.0,2.3441607968952347,-0.2421168380824521,0.33277139047082116,2575251.0,,,,,3099.941505732002,3096.4085057320017,
162,2,20,F,1,4,154.0,2,4,low,4 + 8 + 9 - 3 + 7,25,25,26,24,3110.047080999997,3112.0737375000026,3113.5888512999954,3118.6073329000064,3121.604766699995,3121.604772200008,3123.1211579000083,3124.137907199998,q,25.0,2.9974337999883574,1,+1,719,-7.4152035646901435,0.37704331147529,0.11131068671817879,2585361.0,4.033743285402037,-0.09023890759157416,0.1918472456817777,2588895.0,,,,,3113.5855057320014,3110.0515057320017,
163,2,20,F,1,4,155.0,3,3,low,6 - 1 + 7 - 8 + 9,13,11,12,13,3125.6552022999967,3127.6819598,3129.197271199999,3134.2172072999965,3138.948700299996,3138.948705300005,3140.465433599995,3141.4820810999954,e,13.0,4.731492999999318,1,+1,720,21.885546691152935,-0.31833688032393104,-0.0068373166419903875,2600969.0,2.8569415730878793,-0.26859249316481915,-0.25626373156632765,2604504.0,,,,,3129.1945057320017,3125.659505732002,
164,2,20,F,1,4,156.0,4,2,low,7 + 5 + 1 + 9 + 1,23,22,23,21,3142.998727900005,3145.025216000009,3146.5402008999954,3151.558380000002,3153.0447424000013,3153.0447484000038,3154.561783099998,3155.5784585000074,w,23.0,1.4863623999990525,1,+1,721,-0.887485336852917,0.6414842952603355,0.5015980409233136,2618312.0,5.753187185277756,-0.6556546451469707,-0.6477303984344838,2621846.0,,,,,3146.5365057320014,3143.0025057320017,
165,2,20,F,1,4,157.0,5,2,high,2 + 1 + 9 - 4 + 1,9,11,9,8,3157.095044400005,3159.1211277999973,3160.636227199997,3165.654613200008,3166.628725500006,3166.628730700002,3168.1448310999986,3169.161105300009,w,9.0,0.9741122999985236,1,+10,731,-21.701700028982916,0.1934080981968247,0.14163829364138403,2632408.0,-7.496765991240725,-0.05231229317137709,-0.044609963052210766,2635942.0,,,,,3160.632505732002,3157.0985057320013,
166,2,20,F,1,4,158.0,6,1,high,8 + 1 + 4 + 1 + 1,15,15,16,14,3170.6779840999952,3172.704545400004,3174.219649400009,3179.237651999996,3180.188737100005,3180.1887423000007,3181.704712999999,3182.7218240000075,q,15.0,0.9510851000086404,1,+10,741,-9.708511546394414,-0.4213709241991377,-0.01649291597354674,2645992.0,13.45271939365027,-0.45909014076258003,-0.6406575334577673,2649525.0,,,,,3174.2155057320015,3170.682505732002,
167,2,20,F,1,4,159.0,7,3,low,8 + 4 + 1 - 7 + 9,15,16,13,15,3184.2393048999947,3186.2633258999995,3187.778334100003,3192.7970141999976,3196.8128462000022,3196.8128520000027,3198.3293041,3199.3461233999988,e,15.0,4.015832000004593,1,+1,742,-5.120846979217591,-0.40974230903841447,-0.15579020474687644,2659550.0,-60.304086603883405,-0.23732511166559656,-0.4110449836303953,2663084.0,,,,,3187.7745057320017,3184.240505732002,
168,2,20,F,1,4,160.0,8,2,low,7 + 6 + 1 - 1 - 8,5,5,3,4,3200.862799900002,3202.8890344999963,3204.404696700003,3209.4248157999973,3210.7248338000063,3210.7248390000022,3212.241926400005,3213.258480699995,q,5.0,1.300018000009004,1,+1,743,-16.495821493935523,-0.5579523763125973,0.20925756225745928,2676176.0,17.35052774468978,-0.039430276075427706,-0.05635930613339557,2679711.0,,,,,3204.401505732001,3200.8665057320013,
169,2,20,F,1,4,161.0,9,2,low,3 - 1 + 9 - 5 + 1,7,7,6,5,3214.775111499999,3216.7991398000013,3218.3142120999983,3223.331419900001,3225.500819599998,3225.5008248999948,3227.0173778000026,3228.034112399997,q,7.0,2.169399699996575,1,+1,744,-22.573641818460683,-0.5844967839815398,-0.7271587301713018,2690086.0,-0.8927582726250645,0.41283926381539704,0.2715499987920498,2693619.0,,,,,3218.3095057320015,3214.776505732001,
170,2,20,F,1,4,162.0,10,1,high,3 + 1 + 1 + 9 - 1,13,12,13,14,3229.5507732999977,3231.5827667999984,3233.097988599998,3238.1166754000005,3239.116871899998,3239.1168772999954,3240.6332163000043,3241.650324900009,w,13.0,1.000196499997401,1,+10,754,0.4204013043096646,-3.26513789142317,-2.8229066502361655,2704870.0,-10.839585928640604,0.11196880914023843,-0.1762385909428934,2708403.0,,,,,3233.093505732001,3229.5605057320017,
171,2,20,F,1,4,163.0,11,4,low,7 + 8 - 4 + 6 - 5,12,13,11,12,3243.166948500002,3245.1942131999967,3246.709507300009,3251.7279383999994,3254.8208561000065,3254.8208613000024,3256.337202099996,3257.354309400005,q,13.0,3.092917700007092,0,+0,754,0.8276991452096221,1.0575660752506129,0.6212390684301248,2718481.0,6.064013856183076,0.6938020654214454,0.10716242328354442,2722015.0,,,,,3246.7055057320013,3243.1715057320016,
172,2,20,F,1,4,164.0,12,4,low,4 + 7 + 8 - 3 + 9,25,24,25,26,3258.870426900001,3260.895794600001,3262.410653600004,3267.4289135,3268.3247478999983,3268.3247528000065,3269.841043299996,3270.8584478999983,w,25.0,0.8958343999984208,1,+1,755,5.003802370156183,1.8136403672310015,2.1051301238817506,2734182.0,1.7301266041629715,-0.027613218365011072,0.23500598142111917,2737716.0,,,,,3262.4065057320013,3258.8725057320016,
173,2,20,F,1,4,165.0,13,2,high,6 + 1 + 1 + 8 - 9,7,7,9,5,3272.375127300009,3274.401734800005,3275.916863400009,3280.934651100004,3281.9488156000007,3281.948820599995,3283.465719800006,3284.4820341000013,q,7.0,1.0141644999966957,1,+10,765,35.1028293637338,-1.8357199848296846,-2.206576559415534,2747688.0,0.9075038104145854,-0.7647031268133029,0.2836333797254018,2751221.0,,,,,3275.9115057320014,3272.378505732002,
174,2,20,F,1,4,166.0,14,1,high,3 + 1 + 8 + 1 + 1,14,16,14,13,3285.998549199998,3288.0257352000044,3289.540924300003,3294.558799300008,3295.9088899000053,3295.908898900001,3297.424974199996,3298.4415461000026,w,14.0,1.350090599997202,1,+10,775,-3.126871961893425,0.24452174547161976,-0.07284745186292252,2761313.0,0.21282713400671138,-0.45301506167156447,-0.04631807854002146,2764846.0,,,,,3289.5365057320014,3286.003505732002,
175,2,20,F,1,4,167.0,15,3,low,6 - 1 + 7 - 8 + 9,13,13,11,12,3299.9581435,3301.9811818000017,3303.4958701,3308.5145223,3311.052836200004,3311.0528416000016,3312.569134899997,3313.5858809000056,q,13.0,2.538313900004141,1,+1,776,25.575648868170315,-7.693896623583923,-4.741108120902034,2775268.0,14.487648065663834,0.0894033307062343,0.11433853392013704,2778801.0,,,,,3303.4915057320013,3299.958505732002,
176,2,20,F,1,4,168.0,16,3,high,4 + 8 - 3 + 5 - 1,13,14,13,12,3315.1020982000045,3317.1239877000044,3318.6390872000047,3323.657639600002,3324.812828000009,3324.8128331000044,3326.3291001000034,3327.346183800008,w,13.0,1.1551884000073187,1,+10,786,11.295186595460628,-1.8237380274291883,-3.0766098338169696,2790411.0,-8.273904130312463,0.18434107622933116,-0.5743561640695356,2793944.0,,,,,3318.6345057320013,3315.101505732002,
177,2,20,F,1,4,169.0,17,3,high,4 + 1 + 8 + 9 - 5,17,19,17,18,3328.862823400006,3330.8892862000066,3332.404095699996,3337.4223474000028,3338.5648605000024,3338.5648659,3340.081161000009,3341.0983033000084,w,17.0,1.142513099999633,1,+10,796,-4.612292986551047,-2.6435844795598755,-1.560740774977103,2804176.0,2.9051072433483145,-0.011607176269265551,-0.4562050525921171,2807709.0,,,,,3332.3995057320017,3328.8665057320013,
178,2,20,F,1,4,170.0,18,4,low,7 + 8 - 4 + 6 + 5,22,21,23,22,3342.615152700004,3344.6423247000057,3346.157425600002,3351.177237099997,3353.2609060999966,3353.2609115000087,3354.777302700008,3355.7941304999986,e,22.0,2.083668999999645,1,+1,797,16.807179907473543,2.7339975758875426,1.3624407747966343,2817929.0,-5.051019209744087,-4.57886719585396,-5.735157306808452,2821464.0,,,,,3346.154505732002,3342.619505732002,
179,2,20,F,1,4,171.0,19,1,high,8 + 1 + 1 + 1 - 3,8,8,9,6,3357.3107433999976,3359.3374840000038,3360.8527366000053,3365.8707218000054,3367.108935299999,3367.108940499995,3368.625537300002,3369.643038800001,q,8.0,1.238213499993435,1,+10,807,14.081489784836883,3.73494202050378,2.3703587137609086,2832624.0,-1.8240775470500061,-1.0105835806278174,-0.1072339351126681,2836157.0,,,,,3360.847505732002,3357.3145057320016,
180,2,20,F,1,4,172.0,20,1,high,2 + 1 + 1 + 9 - 1,12,12,13,11,3371.1597369000083,3373.182416399999,3374.697439399999,3379.715697000007,3380.740931200009,3380.740936800008,3382.2574207,3383.2746595000062,q,12.0,1.02523420000216,1,+10,817,3.9494398965846838,-7.494243911474375,-3.8878438438609266,2846469.0,-19.129673671542765,15.455427705166969,6.82650530911598,2850002.0,,,,,3374.6925057320013,3371.159505732002,
181,2,20,F,1,4,173.0,21,3,high,6 + 1 + 8 + 7 - 9,13,13,14,15,3384.790943200001,3386.812952799999,3388.3279677999963,3393.348211000004,3398.3654816000053,3398.365484000009,3399.881630899996,3400.900508999999,,,,0,Too Slow!,817,20.10283079590372,0.13468449426662987,0.003711105928725811,2860099.0,16.657126001380757,0.3097284856699707,0.08152325734037014,2863634.0,,,,,3388.324505732002,3384.789505732002,
182,2,20,F,1,4,174.0,22,4,high,3 + 8 - 7 + 9 - 5,8,8,9,7,3402.417197899995,3404.445173400003,3405.9603055000043,3410.9790713999973,3412.884848800008,3412.8848535,3414.4013266999973,3415.4183382000047,w,9.0,1.9057774000102652,0,+0,817,1.3808965437825655,0.39859266214280353,2.5253760143831547,2877732.0,-32.19438602312424,3.291166536410276,3.4959935002911515,2881265.0,,,,,3405.9555057320013,3402.422505732002,
183,2,20,F,1,4,175.0,23,4,high,8 + 4 + 7 - 5 - 6,8,6,9,8,3416.934909799995,3418.959557299997,3420.4737877000007,3425.4924202999973,3426.4289605000085,3426.4289657000045,3427.9454061,3428.9625188000064,e,8.0,0.9365402000112226,1,+10,827,2.7129320741959635,-0.07083195013023591,-0.08082502206633979,2892246.0,-42.818743167536596,-0.006899516977511233,0.13942399340984757,2895779.0,,,,,3420.4695057320014,3416.936505732002,
184,2,20,F,1,4,176.0,24,4,low,5 + 7 - 4 - 6 + 9,11,11,13,12,3430.479387200001,3432.5077680999966,3434.0228855000023,3439.041626799997,3441.764997499995,3441.7650032999954,3443.281533600006,3444.2980574999965,q,11.0,2.7233706999977585,1,+1,828,19.831035618446762,0.853708364969477,0.16857578414202434,2905793.0,-2.0498863991965557,-0.004137089274388828,-0.17583347071068012,2909328.0,,,,,3434.0185057320014,3430.4835057320015,
185,2,20,F,1,4,177.0,25,4,high,5 + 8 - 4 - 6 + 9,12,14,12,13,3445.814424299999,3447.8393329999963,3449.354379700002,3454.372840199998,3457.7089618000027,3457.708967300001,3459.2257025,3460.2428212000086,e,13.0,3.3361216000048444,0,+0,828,10.101750719457048,0.10780215128381965,-0.22501144587228783,2921125.0,14.986831241599239,-0.5444844541675673,-0.09764270842976597,2924659.0,,,,,3449.3495057320015,3445.815505732002,
186,2,20,F,1,4,178.0,26,1,high,7 + 1 + 5 + 1 - 1,13,13,14,12,3461.7591270999983,3463.7839437000075,3465.2990607999964,3470.317242200006,3471.900896399995,3471.9009021000093,3473.4170369000058,3474.434131200004,q,13.0,1.583654199988814,1,+10,838,-10.48433330681142,-0.45751484082593574,0.12781423419681337,2937070.0,-2.0613308638703014,-2.125301700071253,-1.290272403781314,2940603.0,,,,,3465.293505732002,3461.7605057320015,
187,2,20,F,1,4,179.0,27,1,low,6 + 9 + 1 + 1 - 1,16,15,16,14,3475.950773799996,3477.978915200001,3479.4939488999958,3484.512944800008,3485.589002599998,3485.589008099996,3487.105087600008,3488.121938299999,w,16.0,1.0760577999899397,1,+1,839,17.467156920238487,-0.9885642106940997,-0.691161027520427,2951265.0,-11.338943641383255,0.22084693558298074,-0.08580156674270656,2954799.0,,,,,3479.489505732002,3475.9555057320013,
188,2,20,F,1,4,180.0,28,1,low,7 - 1 + 1 + 9 - 1,15,14,15,13,3489.638449200007,3491.662312500004,3493.177554099995,3498.195812799997,3499.3890009000024,3499.389005899997,3500.9066391000088,3501.9234088000085,w,15.0,1.1931881000055,1,+1,840,5.131552333849278,-0.13096590793758311,-0.18869358112159285,2964949.0,5.692901248460451,-0.9186128969884422,-1.4964894922904675,2968482.0,,,,,3493.172505732002,3489.6395057320015,
189,2,20,F,1,4,181.0,29,3,high,8 - 1 + 6 - 7 + 5,11,12,11,13,3503.4400528999977,3505.466652600008,3506.981864000001,3512.000177099995,3515.852885900007,3515.852891100003,3517.3693271000084,3518.386376299997,q,12.0,3.852708800011897,0,+0,840,18.53264031948891,-1.5958264124971455,-1.385080082273232,2978753.0,3.0209136884977124,-3.1224427710785196,-1.8472602650142722,2982287.0,,,,,3506.977505732001,3503.4435057320015,
190,2,20,F,1,4,182.0,30,3,high,2 + 9 + 1 - 5 + 7,14,14,12,15,3519.903036000004,3521.927942299997,3523.442762999999,3528.461023700001,3529.797100099997,3529.797105999998,3531.3135446000088,3532.330629899996,q,14.0,1.336076399995363,1,+10,850,-10.170380125431947,-0.18009754991411864,-0.17972819015486774,2995214.0,37.53243136710854,-0.9357259683771506,-0.1525462994913389,2998747.0,,,,,3523.4375057320012,3519.904505732002,
191,2,20,F,1,4,183.0,31,4,high,7 + 6 + 8 - 4 + 5,22,21,22,23,3533.847114700009,3535.8724907,3537.387658300009,3542.4059732000023,3545.701025500006,3545.7010313000064,3547.2180729999964,3548.2352125000034,w,22.0,3.29505230000359,1,+10,860,14.974258359721768,0.4744831766691995,0.4422819772204112,3009158.0,20.843559862562845,-0.4576407494346606,0.3537990003623621,3012692.0,,,,,3537.382505732002,3533.8485057320013,
192,2,20,F,1,4,184.0,32,1,high,9 + 8 + 1 + 1 - 1,18,17,19,18,3549.751509900001,3551.7769444000005,3553.292156700001,3558.3111803000065,3559.532986499995,3559.5329916000046,3561.0493084000045,3562.066516599996,e,18.0,1.2218061999883505,1,+10,870,-10.870374874811196,-0.430884531328263,-0.03362754413872571,3025063.0,18.681334778001045,1.4896554025453081,1.750057149878717,3028597.0,,,,,3553.2875057320016,3549.753505732002,
193,2,20,F,1,4,185.0,33,2,high,6 + 1 + 7 - 8 - 1,5,5,7,4,3563.5831901000056,3565.610547500008,3567.125683899998,3572.144310600008,3573.620958600004,3573.6209635999985,3575.1373041000043,3576.1544548000093,q,5.0,1.476647999996203,1,+10,880,9.914462728413191,-10.66145774187521,-6.781389362870427,3038896.0,9.088685455541434,0.2231856301241777,0.4514555627508665,3042430.0,,,,,3567.120505732001,3563.5865057320016,
194,2,20,F,1,4,186.0,34,3,low,7 - 1 + 8 - 6 + 4,12,12,13,11,3577.670764800001,3579.6989812999964,3581.2141004000005,3586.233074500007,3590.285074200001,3590.285082800008,3591.8019606000016,3592.819339599999,e,11.0,4.0519996999937575,0,+0,880,0.5274803449511278,0.48737413063088564,0.16344874189341896,3052984.0,11.128150715702708,-0.3689379407008282,0.03543798798595432,3056519.0,,,,,3581.209505732001,3577.6745057320013,
195,2,20,F,1,4,187.0,35,3,low,4 + 1 + 8 + 9 - 5,17,19,17,18,3594.336045799995,3596.3599294000014,3597.8749904,3602.893200400009,3605.7251071000064,3605.725112100001,3607.2415373999975,3608.258006600008,w,17.0,2.8319066999974893,1,+1,881,3.882332157842921,-1.3846029896787746,-1.0481390749970085,3069646.0,-5.88396646365145,-0.5532318712417137,-0.15631502518732976,3073179.0,,,,,3597.869505732002,3594.3365057320016,
196,2,20,F,1,4,188.0,36,1,high,8 + 1 + 5 + 1 + 1,16,16,15,17,3609.7746739,3611.8012930999976,3613.316981900003,3618.3347756,3619.437046599997,3619.437051700006,3620.953527999998,3621.971355900008,q,16.0,1.102270999996108,1,+10,891,5.4669968577488675,0.0008607157791846731,0.16229250216415636,3085087.0,50.8005075359492,0.3136987931525188,-0.04014360111957238,3088621.0,,,,,3613.311505732002,3609.7775057320014,
197,2,20,F,1,4,189.0,37,4,low,3 + 8 - 4 + 9 + 6,22,21,23,22,3623.487968900008,3625.515875199999,3627.030866000001,3632.0489778000046,3636.949074000004,3636.949080000006,3638.465511200004,3639.4821777000034,e,22.0,4.900096199999098,1,+1,892,38.81650184343726,0.190410636462655,0.2954571201924283,3098802.0,24.480144538196406,0.22110526658718177,-0.17306351852853652,3102335.0,,,,,3627.025505732002,3623.4925057320015,
198,2,20,F,1,5,190.0,0,1,low,2 + 1 + 9 + 1 + 1,14,14,12,13,3644.6002477,3646.627760300005,3648.143056600005,3653.159834300008,3654.292978199999,3654.292983499996,3655.809353999997,3656.8262457999954,q,14.0,1.13314389999141,1,+1,893,18.927215605701246,-0.15769614166717094,-0.07080255970034166,3119914.0,15.640146961422767,-0.3462917806239916,0.1181548179234535,3123447.0,,,,,3648.137505732002,3644.6045057320016,
199,2,20,F,1,5,191.0,1,1,high,7 - 1 + 8 + 1 - 1,14,12,13,14,3658.3430081999977,3660.370839399999,3661.885984399996,3666.904192700007,3667.925398799998,3667.9254040000087,3669.4418302999984,3670.4589790000023,e,14.0,1.0212060999911046,1,+10,903,-53.84443921268086,-3.6575995594039368,-2.7651069803427264,3133657.0,-35.5107924164245,0.32709869586464313,0.2458450028712913,3137190.0,,,,,3661.8805057320014,3658.347505732002,
