,id,age,sex,cued,block,trial,trialinblock,efflev,rewlev,calc,corAns,option1,option2,option3,tstart,ITI1Time,probTime,respTime,selectTime,ITI2Time,fbTime,ITI3Time,key_press,chosenAns,RT,acc,feedback,total_points,cuescr,cuecor,cuezyg,cuetime,probscr,probcor,probzyg,probtime,fbscr,fbcor,fbzyg,fbtime,probtime_c,cuetime_c,fbtime_c
0,30,21,F,0,Practice,,0,1,0,4 + 1 + 9 + 1 + 1,16,15,14,16,68.9386000999948,,68.93860220001079,74.14602210000157,75.18276240001433,75.18276830005925,76.69965389999561,77.72125780000351,e,16.0,1.0367403000127524,1,Correct,0,,,,,24.309914340330835,-0.0704272943549098,-0.0010506819827871272,66918.0,10.285735823169908,1.3804731808484973,0.0075665502081117,74492.0,69.1315188680442,,76.7055188680442
1,30,21,F,0,Practice,,1,1,0,3 + 1 + 1 + 8 - 1,12,12,11,10,79.23803030001,,79.23803310003132,84.25961459998507,90.6629205000354,90.66292740008794,92.17987520003226,93.197651399998,q,12.0,6.403305900050327,1,Correct,0,,,,,-9.112708071991069,-0.4859244435685923,0.18028829285084624,77030.0,-11.112665237464181,0.2693720415741385,-0.1572876341188567,89969.0,79.24351886804419,,92.18251886804418
2,30,21,F,0,Practice,,2,2,0,8 + 1 + 6 + 1 - 4,12,12,10,11,94.71522890008056,,94.71523480000906,99.73467430006713,101.14291180006694,101.14291789999696,102.65986230003182,103.67770010000096,q,12.0,1.4082374999998135,1,Correct,0,,,,,-0.32421158561777474,-0.7730673255167249,0.13429957736384024,92506.0,8.614112268707904,-0.2753619130093927,-0.17133075433243583,100449.0,94.71951886804419,,102.66251886804419
3,30,21,F,0,Practice,,3,2,0,9 + 4 - 6 + 1 - 1,7,7,6,5,105.19475460005924,,105.19475760008208,110.21349170000758,113.11084040009882,113.11084680003114,114.63800450006966,115.65503510006238,q,7.0,2.897348700091243,1,Correct,0,,,,,8.4975886194275,-0.4276214788236645,-0.20175709534878727,102985.0,2.577801136325629,-0.2719136233760242,0.0756772745576959,112426.0,105.19851886804419,,114.63951886804419
4,30,21,F,0,Practice,,4,3,0,9 + 3 - 5 + 6 + 7,20,22,21,20,117.17170140007512,,117.1717043000972,122.19183670007624,129.74289059999865,129.7428972000489,131.26018000009935,132.27722160005942,e,20.0,7.551053899922408,1,Correct,0,,,,,33.21449898922398,0.17454743938954476,0.1324509085481662,114963.0,5.29058439744173,-0.009164882950903674,0.13551976626317286,129049.0,117.17651886804418,,131.2625188680442
5,30,21,F,0,Practice,,5,3,0,2 + 1 + 9 - 7 + 6,11,11,10,9,133.7944831000641,,133.79448600008618,138.8149310000008,145.71917030005716,145.71917709999252,147.23610129998997,148.25445120001675,q,11.0,6.904239300056361,1,Correct,0,,,,,-18.545952758438858,0.4947952338948678,-0.029789609654385263,131586.0,-19.5507435876278,0.08450749925951939,-0.10747834733442385,145026.0,133.7995188680442,,147.2395188680442
6,30,21,F,0,Practice,,6,4,0,4 + 8 + 5 - 3 + 7,21,23,22,21,149.77211160003208,,149.7721144000534,154.7926554000005,162.19096690008882,162.19097400002647,163.70805620006286,164.77583170006983,w,22.0,7.398311500088312,0,Incorrect,0,,,,,12.670968589330425,-0.2981422224496981,-0.18927104058875743,147564.0,10.338939438482932,-0.4021469811352669,-0.041643590348816595,161547.0,149.77751886804418,,163.7605188680442
7,30,21,F,0,Practice,,7,4,0,5 + 8 - 4 + 6 + 9,24,24,23,22,166.29269590007607,,166.29269860009663,171.31322870007716,177.90297160006594,177.90297779999673,179.41982090007514,180.4381186000537,q,24.0,6.589742899988778,1,Correct,0,,,,,3.0629665504141155,-0.30047592079490393,0.023320867029197778,164083.0,16.666767755084507,-0.5281870370836854,-0.06974727622823118,177209.0,166.2965188680442,,179.4225188680442
8,30,21,F,1,0,0.0,0,1,low,7 - 1 + 8 + 1 - 1,14,12,14,13,333.1487004000228,335.1746833000798,336.69075489998795,341.70912730006967,342.5167873000028,342.51679280004464,344.03418930002954,345.0524832000956,w,14.0,0.8076599999330938,1,+1,1,-17.93724468094944,1.4043139908637996,0.05546274172564347,330945.0,22.456521224271324,0.3166433806056763,-0.1448170598627887,334480.0,6.088740866747946,0.3014130523336367,-0.005961407386654294,341822.0,336.6935188680442,333.15851886804415,344.03551886804416
9,30,21,F,1,0,1.0,1,1,high,4 + 1 + 1 + 7 - 1,12,14,13,12,346.5690212000627,348.6553719000658,350.17047390004154,355.18927339999937,356.1167366000591,356.1167422999861,357.6332699999912,358.6505526000401,e,12.0,0.9274632000597194,1,+10,11,3.590937053885444,-0.18537019850769232,-0.2678095562051719,344426.0,31.662584182211376,0.1712822503035083,-0.2343066334539765,347960.0,-11.766575251426106,0.41348275827376213,-0.5702663684285607,355421.0,350.17351886804414,346.63951886804415,357.63451886804415
10,30,21,F,1,0,2.0,2,3,high,7 + 1 + 9 + 5 - 6,16,16,15,14,360.1674347000662,362.2619577000151,363.7770511000417,368.7958033999894,372.8847636000719,372.8847693999997,374.4015090999892,375.41864729998633,w,15.0,4.088960200082511,0,+0,11,11.427457251626201,0.01868114596850967,-0.6160316271901713,358032.0,-4.084365782453531,-0.0029023954259974616,0.10383368493488287,361566.0,2.8093143033041734,0.08131988215559449,-0.2016275975942583,576340.0,363.77951886804414,360.24551886804414,578.5535188680442
11,30,21,F,1,0,3.0,3,2,high,5 + 1 + 7 - 6 + 1,8,6,8,7,376.9352263000328,379.04117750003934,380.5564233000623,385.576721200021,388.67678030009847,388.6767860000255,390.1933079999872,391.2099063000642,e,7.0,3.1000591000774875,0,+0,11,-9.580185659138714,0.02899772353391805,-0.8212667089093748,374811.0,8.404993256254233,0.2465720704288783,-0.7030426748903911,378347.0,34.56178779617021,-0.23299607757284369,1.235306658651759,401437.0,380.56051886804414,377.02451886804414,403.6505188680442
12,30,21,F,1,0,4.0,4,2,high,6 + 1 + 8 + 5 - 1,19,19,17,18,392.7266063001007,394.7498109000735,396.2649419000372,401.2827046000166,402.13275830005296,402.13276450010017,403.6492887000786,404.6665910000447,q,19.0,0.8500537000363693,1,+10,21,-14.100095061603419,-0.14913769279539402,-0.005449668193267421,390520.0,19.33203901929823,0.29610411727606634,-0.20986548923566062,394053.0,-32.00990108772082,0.640046982248089,0.02017765497346513,415340.0,396.26651886804416,392.73351886804414,417.55351886804414
13,30,21,F,1,0,5.0,5,2,low,9 + 6 + 1 + 7 + 1,24,23,25,24,406.1833784000482,408.22367580002174,409.7388719000155,414.7568222000264,416.0367766000563,416.0367824001005,417.5533737000078,418.57013330003247,e,24.0,1.2799544000299647,1,+1,22,-1.0598315106797251,0.37151916389216133,-0.40977229548572414,403994.0,12.755986508546863,-0.040492858794622055,0.24776128470000236,407527.0,14.27168435466114,0.11720007870678018,0.24522834698009044,428533.0,409.74051886804415,406.2075188680442,430.7465188680442
14,30,21,F,1,0,6.0,6,2,high,7 + 1 + 9 - 1 - 8,8,8,6,7,420.08659359999,422.1148009999888,423.6297729000216,428.6613607000327,429.2287401000504,429.22874550009146,430.7452475000173,431.76248860009946,q,8.0,0.5673794000176713,1,+10,32,-16.719904481477432,0.21242655956568024,-0.19162883447395407,417884.0,-4.846273297830032,0.0033807755238135506,-0.3619433318222507,421432.0,31.74031315971247,-0.7877771083848941,0.30765059984081145,560384.0,423.6455188680442,420.0975188680442,562.5975188680442
15,30,21,F,1,0,7.0,7,2,high,5 - 8 + 7 + 1 + 1,6,8,6,7,433.2799267000519,435.303098400007,436.81806920003146,441.8385818999959,445.3088334000204,445.3088393000653,446.8255531000905,447.84271990007255,e,7.0,3.4702515000244603,0,+0,32,8.184920548342502,-0.11831567440450153,-0.19979586861493015,431073.0,39.166561785432094,0.12815137002762755,0.22338662338882198,434608.0,-6.687794825625968,0.14453998080280384,0.20196797919498577,632885.0,436.82151886804417,433.28651886804414,635.0985188680442
16,30,21,F,1,0,8.0,8,3,high,9 + 3 - 4 + 6 + 7,21,21,22,23,449.3594915000722,451.3854438000126,452.9003358000191,457.9187783000525,461.35683990002144,461.35684530006256,462.8732267000014,463.89018370001577,w,22.0,3.438061599968933,0,+0,32,-21.40205790909387,0.5580464269711154,0.33202451196057226,447155.0,-40.972218089809466,0.15100160764453863,0.025246517262164314,450689.0,-10.894828532322077,0.17424695275859436,0.06807665309100175,702671.0,452.9025188680442,449.36851886804413,704.8845188680442
17,30,21,F,1,0,9.0,9,1,high,3 + 1 + 1 + 8 - 1,12,12,13,14,465.4074643000495,467.43207670003176,468.9471828000387,473.9649470000295,475.7727399000432,475.7727614000905,477.2896277999971,478.30687080009375,e,14.0,1.8077929000137372,0,+0,32,-10.785663623491349,0.04615290091149449,0.3523588725437232,463202.0,2.242182024230374,0.10522573634232835,0.27387236590766406,466735.0,3.8124891408681485,0.1887673562486194,0.7876392396802117,518484.0,468.9485188680442,465.41551886804416,520.6975188680442
18,30,21,F,1,0,10.0,10,3,low,5 + 1 + 7 - 8 + 6,11,13,11,9,479.8235364001012,481.8593635000289,483.3743786000414,488.3928766000317,492.09285810007714,492.0928634000011,493.609406500007,494.6265068000648,q,13.0,3.699981500045397,0,+0,32,-15.581394733944867,0.00686877283669185,0.11119262083066017,477629.0,16.863220865540107,-0.024070464341475084,-0.3884938997478673,481163.0,-6.747120894730305,-0.7712007891488755,0.25936780332204545,715932.0,483.3765188680442,479.8425188680442,718.1455188680442
19,30,21,F,1,0,11.0,11,4,low,5 + 8 - 6 + 7 + 4,18,18,19,17,496.14314460009336,498.1843278000597,499.7000054999953,504.72030220006127,505.6528718000045,505.6528776000487,507.1696327000391,508.1865249000257,q,18.0,0.9325695999432356,1,+1,33,8.67704150805799,0.24550775375370204,0.13534568035898786,493954.0,24.411295413039838,0.01382229413377356,0.06629474910010114,497490.0,-10.404744116300215,-0.5052855103090077,0.20997131350104725,504956.0,499.70351886804417,496.16751886804417,507.1695188680442
20,30,21,F,1,0,12.0,12,1,low,5 + 1 + 1 + 9 + 1,17,16,19,17,509.7032384000486,511.7301464000484,513.2452582000988,518.2627976000076,519.1809345000656,519.1809403999941,520.6976961999899,521.7142715000082,e,17.0,0.9181369000580162,1,+1,34,-7.552355127272893,-0.06070303851052383,0.04288429575536146,507500.0,13.287592279186232,-0.23287352226341929,-0.3689357615441562,511033.0,-21.220717703305265,-0.04726451578859736,0.24214885122353325,532268.0,513.2465188680442,509.71351886804416,534.4815188680442
21,30,21,F,1,0,13.0,13,1,low,7 + 1 + 5 + 1 - 1,13,13,12,14,523.2307546000229,525.2540480000898,526.7689738000045,531.787342500058,532.9648918000748,532.9648970999988,534.4811981000239,535.4979899000609,q,13.0,1.177549300016835,1,+1,35,-18.53349058928248,0.5025555569068589,-0.013319394293871856,521024.0,7.2204736815855854,0.06485321455878745,-0.10079822967481977,524557.0,6.803915533964734,-0.4727942479660334,0.29299012733133045,547204.0,526.7705188680442,523.2375188680442,549.4175188680441
22,30,21,F,1,0,14.0,14,1,low,7 - 1 + 1 + 9 - 1,15,15,14,13,537.0149700000184,539.0411496000597,540.5563885000302,545.5748013000702,547.9008797000861,547.9008852000115,549.4173382000299,550.4340581999859,q,15.0,2.326078400015831,1,+1,36,-18.62138547430851,-0.12881667302742095,-0.181740366044278,534811.0,10.56524669880624,0.11402288301616403,-0.11584199212504354,538344.0,-7.34862391601564,0.05015695450055757,0.1149206602080115,605748.0,540.5575188680442,537.0245188680442,607.9615188680442
23,30,21,F,1,0,15.0,15,2,high,8 + 1 + 1 + 9 - 4,15,14,15,16,551.9504460000899,553.97786860005,555.4930355000542,560.511050100089,561.0688470000168,561.0688525000587,562.5853302000323,563.6138711000094,w,15.0,0.55779689992778,1,+10,46,16.983517944301376,-0.5396264345486399,1.7271638768046436,549747.0,0.4774913613073686,0.5221341101155486,-3.593352539785901,553281.0,-6.904658528702253,0.41082365069198357,-0.12970298009014858,673764.0,555.4945188680441,551.9605188680441,675.9775188680442
24,30,21,F,1,0,16.0,16,3,low,2 + 1 + 9 - 5 + 6,13,13,14,11,565.1304523000726,567.157040100079,568.6722650000593,573.6915808999911,577.0369641000871,577.0369911000598,578.5533439000137,579.5706492000027,q,13.0,3.3453832000959665,1,+1,47,-31.313282748591575,0.5351411927264627,0.36596548007064333,562927.0,-1.1554627570430966,0.2828040082463672,-0.11283017193001932,566461.0,13.369749382602844,-0.469081416955317,-0.19594551509011637,831891.0,568.6745188680442,565.1405188680442,834.1045188680441
25,30,21,F,1,0,17.0,17,4,high,8 + 7 - 4 + 5 + 9,25,26,25,24,581.0885183000937,583.1251783000771,584.6402465000283,589.6583844000706,593.0528328000801,593.0528382000048,594.5693060000194,595.5863034999929,w,25.0,3.3944484000094235,1,+10,57,6.189950382020868,-0.10263485202220135,0.08375066653162255,578895.0,-18.226340308541516,-0.12550366448128258,-0.06990783921211241,582428.0,11.928869241995308,-0.9870778310703301,-0.08154064016649976,592356.0,584.6415188680442,581.1085188680441,594.5695188680442
26,30,21,F,1,0,18.0,18,1,high,3 + 1 + 9 + 1 + 1,15,15,14,17,597.1024048000108,599.1264774000738,600.6416374000255,605.6597341999877,606.4449329000199,606.444938300061,607.9612074000761,608.9782280999934,q,15.0,0.7851987000321969,1,+10,67,23.16225899325265,0.2275057729366763,-0.05415458646829574,594896.0,5.3077000772055385,0.030349118358545812,0.07497171733023844,598429.0,-25.706791762154637,-0.13637990309726744,0.7511336468050955,619004.0,600.6425188680441,597.1095188680441,621.2175188680442
27,30,21,F,1,0,19.0,19,1,low,6 + 1 + 1 + 9 - 1,16,16,14,15,610.4955639000982,612.5213927000295,614.0366900000954,619.0552631000755,619.7010011000093,619.7010064000497,621.2176684000297,622.2347395000979,q,16.0,0.6457379999337718,1,+1,68,-6.878592702272505,0.13270146861911636,0.23664029605684966,608291.0,13.44583282114003,-0.10588811404557008,0.4797795081713647,611824.0,41.89589119240841,0.29665223976015564,0.5845740178161343,660580.0,614.0375188680441,610.5045188680442,662.7935188680442
28,30,21,F,1,0,20.0,20,2,high,6 + 1 + 1 + 7 - 9,6,4,8,6,623.7517011000309,625.7771996000083,627.2925126000773,632.3125790000195,633.58084770001,633.5808528000489,635.0973396000918,636.1154349000426,e,6.0,1.2682686999905854,1,+10,78,2.646933783233928,0.3115727833693027,-0.47059514654365264,621547.0,-1.6021255783251238,-0.14200279706485475,0.14883003131246886,625082.0,21.438962031371673,-0.18479789048902084,0.19041267890219915,788179.0,627.2955188680442,623.7605188680442,790.3925188680441
29,30,21,F,1,0,21.0,21,4,high,8 + 4 - 5 + 7 - 6,8,7,6,8,637.6318207000149,639.6582710000221,641.1735917000333,646.1919009000994,648.0930757999886,648.0930814000312,649.6093453000067,650.6268098000437,e,8.0,1.901174899889156,1,+10,88,2.2837424422751624,-0.06237861072125073,-0.1113343096705317,635428.0,2.602834601407027,0.026930803571626694,0.2051597654470747,638962.0,-29.715349995583047,-0.005445531244636204,0.23723417126991153,647396.0,641.1755188680442,637.6415188680442,649.6095188680441
30,30,21,F,1,0,22.0,22,1,high,4 + 8 + 1 - 1 - 1,11,11,13,9,652.1434330000775,654.1664474999998,655.6815491000889,660.6996897000354,661.2769210000988,661.276926600025,662.793303100043,663.8103161000181,q,11.0,0.5772313000634313,1,+10,98,-16.367265049063853,0.10987794668215711,-0.7884763641866774,649936.0,2.04800860099213,0.018113820395037727,0.09600611307850926,653469.0,-8.168519507091371,0.38858840810401896,0.13072232919168014,758587.0,655.6825188680442,652.1495188680442,760.8005188680442
31,30,21,F,1,0,23.0,23,2,low,4 + 1 + 9 + 1 - 6,9,9,7,8,665.3266882000025,667.3506277000997,668.8658048000652,673.8837153000059,674.4610019000247,674.4610074000666,675.9777368000941,676.9944366000127,q,9.0,0.5772866000188515,1,+1,99,5.953892478479748,-0.2957437095956763,-0.6546573771332094,663120.0,-2.05079597193539,-0.15841054984558323,-0.23908293746762244,666653.0,11.399029642088395,0.10340263520492066,-0.036059362832729924,861099.0,668.8665188680442,665.3335188680442,863.3125188680442
32,30,21,F,1,0,24.0,24,3,high,9 - 5 - 1 - 6 + 8,5,5,4,7,678.5105480999919,680.5382064000005,682.0535550999921,687.0727592000039,690.0690014000284,690.0690072000725,691.585483300034,692.6032528000651,w,4.0,2.996242200024426,0,+0,99,-1.4560699875743195,-0.36647467408712764,0.9323914010534708,676307.0,27.339919728384366,0.10238205973166714,-0.3068195931219031,679842.0,-27.582213105864806,0.03520532153677136,0.3556937284852557,944996.0,682.0555188680441,678.5205188680442,947.2095188680441
33,30,21,F,1,0,25.0,25,3,high,5 + 6 - 4 - 1 + 8,14,14,16,15,694.1196758000879,696.141669100034,697.6567668000935,702.6748128000181,703.3169502000092,703.3169552000472,704.8333045000909,705.9020520000486,q,14.0,0.6421373999910429,1,+10,109,-9.36019740241786,0.3185144339966133,0.06591981311476847,691911.0,7.522402861166755,0.237863013441999,0.04551606553899168,695444.0,-8.641494308390826,-0.6126713910221162,0.16436112235510203,972371.0,697.6575188680441,694.1245188680441,974.5845188680441
34,30,21,F,1,0,26.0,26,3,high,5 + 6 + 7 - 1 - 9,8,7,9,8,707.418645100086,709.4419147000881,710.9568606000394,715.9886080999859,716.629023800022,716.6290296000661,718.1452425000025,719.1621914000716,e,8.0,0.640415700036101,1,+10,119,-37.17239173504022,0.02518575715087268,-0.2401818863165408,705211.0,7.617837913761992,0.06645378114996614,0.18994930776103214,708758.0,14.222001859660079,-0.2086005477255184,0.2619588381956266,999851.0,710.9715188680442,707.4245188680442,1002.0645188680442
35,30,21,F,1,0,27.0,27,4,low,5 + 9 - 4 + 7 + 6,23,24,23,25,720.6789905000478,722.7067245000508,724.221855700016,729.2410536000971,729.8850590999937,729.8850643000333,731.4016418000683,732.41848880006,w,23.0,0.6440054998965934,1,+1,120,13.778187997708837,-0.0951090856193404,0.2086874729740975,718476.0,-46.40451340540049,-0.16030746858152733,0.2273059026329931,722010.0,-8.313827735688069,-0.20316052348329627,0.07857707747490439,729188.0,724.2235188680442,720.6895188680442,731.4015188680441
36,30,21,F,1,0,28.0,28,2,high,4 + 9 - 7 + 1 - 1,6,6,5,8,733.9351324000163,735.9604007999878,737.4751860999968,742.4935179000022,745.8930536000989,745.8930596000282,747.4094284999883,748.4267065000022,w,5.0,3.3995357000967488,0,+0,120,-31.60981998863419,-0.12018343403678688,0.19652436486709401,731729.0,26.335458293941123,-0.08603303377508009,0.3813318730246231,735263.0,0.23308864460597878,-0.13196998167470442,0.19466565990074836,985467.0,737.4765188680442,733.9425188680442,987.6805188680441
37,30,21,F,1,0,29.0,29,1,low,5 + 6 + 1 + 1 + 1,14,14,15,16,749.9435407000128,751.9696905000601,753.485254200059,758.5192330999998,759.2850653000642,759.2850711999927,760.801602600026,761.8182167999912,q,14.0,0.7658322000643238,1,+1,121,1.65008683173712,0.0777030510380432,0.5732325041892969,747738.0,38.824107669541654,0.10686075972161957,-0.1168175465514234,751288.0,12.459187808125224,0.21570006672675612,0.08620556483800335,958124.0,753.5015188680442,749.9515188680442,960.3375188680442
38,30,21,F,1,0,30.0,30,4,high,4 + 7 + 9 - 5 + 7,22,22,24,23,763.334885600023,765.3624023000011,766.8780224000802,771.8966541000409,775.7969671000028,775.7969724000432,777.3133711999981,778.3303745000158,q,22.0,3.9003129999618977,1,+10,131,-45.5180487991598,-0.016400886751016586,0.04552368372576199,761131.0,1.5195542396965376,0.3363867992578644,0.08368952647935268,764665.0,16.345348507590145,0.430958160942327,0.0775486576828337,775099.0,766.8785188680441,763.3445188680441,777.3125188680442
39,30,21,F,1,0,31.0,31,2,low,2 + 9 + 1 + 1 - 5,8,7,8,6,779.8471114001004,781.872868000064,783.3878297000192,788.405693900073,788.8770980000263,788.8771032000659,790.3933677000459,791.410155300051,w,8.0,0.4714040999533608,1,+1,132,-35.346875727465545,0.6231030721315203,-0.17410112076676132,777642.0,-15.400026362115334,-0.5803554978605265,0.05906366140289876,781175.0,30.63295500055345,0.2848713058862571,-0.008379581435619787,1044450.0,783.3885188680441,779.8555188680442,1046.6635188680443
40,30,21,F,1,0,32.0,32,4,high,2 + 9 - 4 + 8 + 7,22,23,21,22,792.9278113000328,794.9547749999911,796.4697864000918,801.4880926000187,803.7249859999865,803.7249912000261,805.2414990999969,806.2585568000795,e,22.0,2.236893399967812,1,+10,142,3.332993689529247,-0.38156570625291586,0.08859698523279613,790724.0,-5.947449855322857,0.008783175642758767,0.037577979826801666,794257.0,14.69609501986345,-0.2802785494940796,0.07176957204528112,803027.0,796.4705188680441,792.9375188680442,805.2405188680442
41,30,21,F,1,0,33.0,33,4,high,5 + 7 - 4 + 6 + 9,23,24,25,23,807.7752693000948,809.7979606000008,811.3130755000748,816.331365399994,819.4691123000812,819.4691182000097,820.9856212000595,822.0026623000158,e,23.0,3.1377469000872225,1,+10,152,-10.060783360922729,-0.17134003111010276,-0.02065722521355129,805568.0,37.78023235392705,0.1860115838286518,-0.2855655336150824,809100.0,6.2276450274920645,-1.376207863513236,-0.09181643900899106,818771.0,811.3135188680442,807.7815188680441,820.9845188680441
42,30,21,F,1,0,34.0,34,3,low,2 + 1 + 9 - 4 + 6,14,14,16,15,823.5193334000651,825.542866700096,827.0580309000798,832.0770718000131,832.5891435000813,832.5891491000075,834.1057399000274,835.1222793000052,q,14.0,0.5120717000681907,1,+1,153,10.19241717873139,0.3420891220453366,-0.11197162742726041,821312.0,-17.430529028140548,-1.0529425709744569,-0.14128446685923768,824846.0,15.154631155926337,0.3864089522281535,-0.21154886340095502,1389922.0,827.0595188680442,823.5255188680442,1392.1355188680443
43,30,21,F,1,0,35.0,35,3,low,3 + 8 + 1 + 5 - 9,8,7,9,8,836.6389155000215,838.6650185000617,840.1799693000503,845.1979702000972,848.5571374000283,848.5571426000679,850.0733398000011,851.0903735000174,q,7.0,3.3591671999311075,0,+0,153,23.673940202502006,0.16167068380488114,0.5051562578411533,834434.0,-1.5401589359137855,-0.16134544503764614,0.36735574858287734,837967.0,1.0085730494307463,0.4557622492148612,0.006581491086487423,1476258.0,840.1805188680441,836.6475188680441,1478.4715188680443
44,30,21,F,1,0,36.0,36,2,low,4 + 8 + 1 + 1 - 5,9,11,9,8,852.6066959000891,854.6330602000235,856.1482237000018,861.1672173000406,861.7970955000492,861.7971011000918,863.313531300053,864.3307802000782,w,9.0,0.6298782000085339,1,+1,154,-7.103092682926729,0.300527096723028,-0.1250440253111056,850401.0,-17.464356493656098,0.6499631680295432,-0.40130749842550006,853936.0,8.431680528332203,0.3367229448648552,-0.1285887550025333,1057635.0,856.1495188680442,852.6145188680441,1059.8485188680443
45,30,21,F,1,0,37.0,37,4,high,5 + 8 - 4 - 6 + 9,12,14,13,12,865.847419400001,867.8747209000867,869.3898924000096,874.408224600018,878.637192800059,878.6371992999921,880.1534021000843,881.1706728000427,w,13.0,4.228968200040981,0,+0,154,17.689718360171256,0.027445088702995335,-0.02515607078681592,863643.0,-27.275171705256426,0.16132095338153363,0.05577939794955045,867177.0,-0.12008085415521297,-0.18824208588236324,-0.1612135599106974,1013395.0,869.3905188680442,865.8565188680442,1015.6085188680441
46,30,21,F,1,1,38.0,0,3,low,7 - 5 + 9 + 1 - 4,8,7,8,9,934.8734461000422,936.8981203000294,938.4133017000275,943.4331060000696,945.6931943000528,945.6931998000946,947.2099460000172,948.2274321999868,w,8.0,2.260088299983181,1,+1,155,-45.434270451886576,0.30254287499055277,0.20156730671451717,932667.0,-37.345537860645166,0.16035961644463104,0.0963645261718924,936202.0,-6.570194548602338,0.080934335963323,0.04721945409478834,1620865.0,938.4155188680442,934.8805188680442,1623.0785188680443
47,30,21,F,1,1,39.0,1,1,low,2 + 9 + 1 + 1 + 1,14,12,14,13,949.7445815000684,951.771456800052,953.2868059000466,958.3048331000608,958.821122399997,958.821127800038,960.3379421000136,961.3553181000752,w,14.0,0.5162892999360338,1,+1,156,-9.994292637572414,-0.22039290054102967,-0.03177631095583666,947540.0,-24.174691178356944,0.08645651896288298,-0.06329843218872866,951073.0,-11.678336465210336,0.24733112078307506,0.22097027994627716,1146086.0,953.2865188680441,949.7535188680441,1148.2995188680443
48,30,21,F,1,1,40.0,2,3,low,6 - 1 + 7 - 8 + 9,13,13,11,12,962.8721532000928,964.8959032000276,966.4110146000749,971.4293603000696,973.0692637000466,973.0692693000892,974.5857373999896,975.603096900042,q,13.0,1.6399033999769017,1,+1,157,-13.04968008340262,0.4803800428874516,0.07821124133160695,960664.0,17.725346610446742,0.14769656843679613,-0.18781841538072985,964198.0,-32.190385223159424,0.6814565812844413,0.0507426772884938,1681729.0,966.4115188680441,962.8775188680441,1683.9425188680443
49,30,21,F,1,1,41.0,3,2,high,3 + 1 + 8 - 5 - 1,6,7,6,5,977.1198837000412,979.1452241000952,980.6603898000905,985.6939629000844,986.1652004000498,986.1652057000902,987.681565600098,988.698578700074,w,6.0,0.4712374999653548,1,+10,167,23.788935868106428,0.33763061762276125,-0.035209188829620874,974913.0,-12.696081201491381,0.22190377577179188,0.2617412504065073,978462.0,29.658610683316386,0.4416542906108831,0.09866840283403233,1100290.0,980.6755188680442,977.1265188680442,1102.5035188680442
50,30,21,F,1,1,42.0,4,3,low,3 + 8 - 7 - 1 + 9,12,13,14,12,990.2149200000568,992.2422282000772,993.7572848000564,998.799690600019,1000.549173300038,1000.5491791000824,1002.0657170000486,1003.082567500067,e,12.0,1.7494827000191435,1,+1,168,9.32065203426221,0.250382036849468,0.49322730947639837,988010.0,6.020460531029686,-0.2812957813432635,-0.26984622082219456,991568.0,2.1699870409157604,0.6179463590443306,-0.16138296775397798,1726017.0,993.7815188680441,990.2235188680442,1728.2305188680443
51,30,21,F,1,1,43.0,5,4,low,9 + 8 - 5 - 7 + 6,11,10,13,11,1004.5987932999852,1006.6260949000716,1008.1415594000136,1013.1595411000308,1014.0932583000975,1014.0932642000262,1015.6097134000156,1016.6264289000536,e,11.0,0.9337172000668944,1,+1,169,33.124202859499775,0.22549166125847764,0.09170491289241767,1002394.0,-31.180521124796364,-0.26091925627006507,-0.27623997164551617,1005928.0,-10.31492942882564,0.5247906081181575,0.008371863685483039,1116523.0,1008.1415188680442,1004.6075188680442,1118.7365188680442
52,30,21,F,1,1,44.0,6,4,low,9 + 3 - 5 + 8 + 6,21,19,21,23,1018.1574071000796,1020.1826290000464,1021.6975170000223,1026.7287936999928,1031.101271499996,1031.101277000038,1032.6177592000458,1033.63499270007,e,23.0,4.372477800003253,0,+0,169,19.707793677994708,-0.03597028545418057,-0.04533037814733887,1015951.0,2.853370653766021,0.17368122886668047,-0.014916997297256485,1019496.0,-9.727031613933558,-0.05474296587563643,-0.05401078222898903,1162611.0,1021.7095188680441,1018.1645188680442,1164.8245188680444
53,30,21,F,1,1,45.0,7,2,high,3 + 9 - 1 - 5 + 1,7,7,6,5,1035.151835400029,1037.1765776000684,1038.691835100064,1043.7109278000426,1045.1492325,1045.149238200043,1046.665098000085,1047.6820168000413,q,7.0,1.4383046999573708,1,+10,179,5.980488855655535,-0.12839690076500032,-0.006793443022107937,1032944.0,2.3403480109739974,0.7094763589007367,-0.05387646056607509,1036479.0,-19.45381485717951,0.5048455289649567,0.32494625450421877,1132914.0,1038.6925188680443,1035.1575188680442,1135.1275188680443
54,30,21,F,1,1,46.0,8,2,high,5 + 7 - 8 + 1 + 1,6,6,8,7,1049.1987455000635,1051.2223561999854,1052.7370860000374,1057.756595800049,1058.3332868000723,1058.3332921999972,1059.849746300024,1060.8670190999983,q,6.0,0.5766910000238568,1,+10,189,0.8449297775090596,0.5881279343777592,0.050574356666814646,1046991.0,2.262183503601638,-0.8982076376548909,-0.1629246137986482,1050525.0,0.031178830078138042,-0.47765402136292856,-0.13104127231129659,1178067.0,1052.7385188680444,1049.2045188680443,1180.2805188680443
55,30,21,F,1,1,47.0,9,2,high,4 + 9 - 7 + 1 - 1,6,6,5,8,1062.3842793999938,1064.4066142000956,1065.9218562000897,1070.9404794999864,1072.2932718000377,1072.2932773000794,1073.8105716999853,1074.8276830000104,e,8.0,1.3527923000510782,0,+0,189,3.373555190458152,0.36495867325285314,0.021113079316605,1060175.0,-24.292786244534724,0.014452469617173502,0.08748505423167052,1063708.0,15.533758774465085,0.3671789642683203,0.09141303104732001,1221658.0,1065.9215188680444,1062.3885188680442,1223.8715188680442
56,30,21,F,1,1,48.0,10,3,low,7 - 1 + 9 - 5 + 4,14,13,14,15,1076.3448717000429,1078.3721395999892,1079.8869741000235,1084.905535500031,1087.0212481000926,1087.0212537000189,1088.537863500067,1089.5552920000628,e,15.0,2.11571260006167,0,+0,189,-35.530306171377745,0.7268305193539248,0.07355471243605227,1074140.0,2.0210958985927014,-0.11577795111456846,0.06066354513047156,1077673.0,-24.656054960144747,0.8206320275456354,0.12211345682115415,1765649.0,1079.8865188680443,1076.3535188680444,1767.8625188680442
57,30,21,F,1,1,49.0,11,2,low,8 + 1 + 4 - 7 + 1,7,7,5,6,1091.072782500065,1093.098948800005,1094.6139277000912,1099.6325221000006,1100.9892914000666,1100.9892965999898,1102.5056363000767,1103.5231563000707,q,7.0,1.3567693000659349,1,+1,190,30.534008826179072,-0.3417040265091713,0.016327537035362605,1088867.0,53.22909314820093,-0.2579352699088542,-0.024594404722455332,1092400.0,-0.17902065744167928,-0.5047422525981338,-0.0022638528240825906,1314226.0,1094.6135188680444,1091.0805188680442,1316.4395188680444
58,30,21,F,1,1,50.0,12,4,high,9 + 7 - 5 + 8 + 6,25,27,25,24,1105.040315399994,1107.0661128000356,1108.58175890008,1113.612386599998,1117.2213695000391,1117.221375900088,1118.7379562000278,1119.7550972000463,w,25.0,3.608982900041156,1,+10,200,-4.275489006999617,0.08405494040716555,-0.2033034197923329,1102834.0,-27.651500357996603,0.08401075648995437,-0.40027574758536977,1106380.0,2.3970665356428897,0.34957482484108127,0.01041792639659378,1208491.0,1108.5935188680444,1105.0475188680443,1210.7045188680443
59,30,21,F,1,1,51.0,13,2,low,9 + 1 + 6 + 7 + 1,24,24,25,23,1121.2716629999925,1123.2961497000651,1124.8113870000234,1129.829405500088,1133.6133842000272,1133.613389700069,1135.129777400056,1136.1466125000734,q,24.0,3.7839786999393255,1,+1,201,22.77045644155429,0.05052217657664837,0.2856591884177442,1119064.0,31.778313153365577,-0.41195001353975735,-1.3248047447049975,1122597.0,10.720972692217572,0.06991057602002737,0.058510864871936574,1361365.0,1124.8105188680443,1121.2775188680444,1363.5785188680443
60,30,21,F,1,1,52.0,14,1,high,9 + 8 + 1 + 1 - 1,18,17,18,19,1137.6628961000824,1139.687278200057,1141.202002700069,1146.220329600037,1146.7734034000896,1146.7734100000234,1148.2899187000005,1149.3177783000283,w,18.0,0.5530738000525162,1,+10,211,-14.652926060614115,-0.4972048516606291,0.08316374161917883,1135455.0,-4.652755033862258,0.3414257370200815,-0.05588799113056986,1138988.0,18.243164071419695,0.24515259334303963,0.17412769982676202,1329714.0,1141.2015188680443,1137.6685188680442,1331.9275188680442
61,30,21,F,1,1,53.0,15,4,low,3 + 8 - 4 + 9 + 7,23,23,22,24,1150.834522100049,1152.876071000006,1154.3911320000188,1159.4571334000211,1163.3093382000225,1163.3093432000603,1164.826314200065,1165.8431534999982,q,23.0,3.8522048000013456,1,+1,212,12.799158568473837,0.9791034307859787,0.1574619839633522,1148644.0,10.54393616132281,0.32563820014297473,0.0013713471529746002,1152225.0,10.887142698676087,0.10007128433343482,-0.138708099384647,1286508.0,1154.4385188680442,1150.8575188680443,1288.7215188680443
62,30,21,F,1,1,54.0,16,2,high,8 + 1 + 9 + 1 - 4,15,16,14,15,1167.359299200005,1169.382938500028,1170.8977498000022,1175.9167643000835,1178.7653751000762,1178.7653807000024,1180.282020600047,1181.2992419000948,e,15.0,2.848610799992457,1,+10,222,6.912241585093551,0.07595649638176027,0.0801123602190621,1165150.0,-13.856550825903076,0.33167982515086347,-0.07114211541040327,1168684.0,-25.196728477977107,0.21082157311557825,0.07429724955800343,1376434.0,1170.8975188680442,1167.3635188680444,1378.6475188680442
63,30,21,F,1,1,55.0,17,4,low,4 + 9 - 7 + 8 + 5,19,20,19,21,1182.815857800073,1184.838151500095,1186.353410400101,1191.3719331000466,1193.6455746000863,1193.645580500015,1195.16209550004,1196.1795670000138,q,20.0,2.273641500039957,0,+0,222,-4.436307560862897,0.16765702434800112,0.16885657250223463,1180606.0,15.828335908870812,0.3108460599859715,0.12782741170522494,1184140.0,11.461987120949958,0.04685260069538,-0.02499112114850388,1420234.0,1186.3535188680444,1182.8195188680443,1422.4475188680442
64,30,21,F,1,1,56.0,18,4,high,7 + 6 - 9 + 8 - 3,9,9,7,8,1197.6970159000484,1199.7246587000554,1201.240095700021,1206.2584891000297,1209.189458000008,1209.1894636000509,1210.7056904000929,1211.7228356000269,q,9.0,2.9309688999783248,1,+10,232,-16.30794764789936,0.11317970660701526,3.3271260180897744,1195492.0,13.27583307149173,0.3279431016113312,-0.28777647145555996,1199026.0,2.1927116562872726,-0.08732447821488787,-0.20404180443695763,1449994.0,1201.2395188680443,1197.7055188680442,1452.2075188680442
65,30,21,F,1,1,57.0,19,2,low,8 + 1 + 9 + 1 - 5,14,13,14,15,1213.2398745000828,1215.2647564000215,1216.7794775000075,1221.7984280000674,1222.3573928000403,1222.3573983000824,1223.8737129000947,1224.8904604000272,w,14.0,0.5589647999731824,1,+1,233,-2.7590108160435003,0.8438559455469781,0.14302530219627263,1211033.0,8.859464219963932,-0.2782718190858384,0.20444876156763536,1214566.0,12.910845136852858,-0.5213387169671773,-0.17680400063476287,1463170.0,1216.7795188680443,1213.2465188680442,1465.3835188680443
66,30,21,F,1,1,58.0,20,4,high,3 + 8 - 5 + 9 - 7,8,7,8,6,1226.4072006000206,1228.4344528000802,1229.9496688999934,1234.968302100082,1239.589464000077,1239.589470100007,1241.105969300028,1242.1229793000966,q,7.0,4.621161899995059,0,+0,233,14.772904647525873,0.2832532903035032,0.13651864802092195,1224202.0,-20.64749775158069,0.18113803013558005,-0.09005954509527592,1227736.0,19.96627511591091,0.07163907386881663,0.05142990906406264,1636826.0,1229.9495188680444,1226.4155188680443,1639.0395188680443
67,30,21,F,1,1,59.0,21,4,low,6 + 5 - 7 + 8 - 9,3,4,5,3,1243.6396736000895,1245.665228900034,1247.180179800023,1252.1987173000816,1255.5894774000626,1255.5894829999888,1257.1058459000196,1258.1229453000706,w,5.0,3.39076009998098,0,+0,233,10.605564785305733,0.4136384625613614,0.09021691707011392,1241433.0,-17.400898235805425,0.8024787436111449,-0.18143225902721283,1244966.0,0.30044776697901376,-0.13735498743408536,-0.042754084012225135,1664698.0,1247.1795188680442,1243.6465188680443,1666.9115188680444
68,30,21,F,1,1,60.0,22,4,low,4 + 7 + 8 - 3 + 9,25,24,25,26,1259.6399302000646,1261.6625909000868,1263.177318800008,1268.1957705999955,1273.213567500003,1273.2135701000225,1274.7300764000977,1275.7521389999893,,,,0,Too Slow!,233,-34.547873628872665,-0.07185557601529258,0.2189217338264149,1257430.0,42.0248191872279,-0.01108570870122616,0.17239995145453424,1260963.0,-8.601854413445345,-0.06935274465509522,-0.31976331731303675,1272520.0,1263.1765188680442,1259.6435188680443,1274.7335188680443
69,30,21,F,1,1,61.0,23,4,high,7 + 8 - 4 + 6 + 5,22,21,23,22,1277.269074000069,1279.2951672000345,1280.811031099991,1285.8300142000662,1287.205550500075,1287.2055573000107,1288.7223098000975,1289.7402153000005,e,22.0,1.3755363000091163,1,+10,243,0.19769283197810683,0.35609536941912534,-0.15804625085065505,1275062.0,17.99811102938876,0.11575718274614566,-0.09445196117417964,1278597.0,,,,,1280.8105188680443,1277.2755188680442,
70,30,21,F,1,1,62.0,24,4,low,3 + 8 - 7 + 9 - 5,8,9,7,8,1291.2570765001,1293.284596499987,1294.7991913000587,1299.8175840000622,1301.7655262000626,1301.7655322999926,1303.2819894000422,1304.308065499994,q,9.0,1.9479422000003976,0,+0,243,2.809355975092725,-0.17102770417109525,-0.01097103662758725,1289052.0,7.999899825679883,-0.24487650710703512,-0.44219220186860486,1292585.0,,,,,1294.7985188680443,1291.2655188680442,
71,30,21,F,1,1,63.0,25,2,low,2 + 1 + 9 - 4 + 1,9,11,8,9,1305.825227500056,1307.848976999987,1309.3644431000575,1314.3828216000693,1314.9254696000137,1314.925475200056,1316.4418383000884,1317.4584567000857,e,9.0,0.5426479999441653,1,+1,244,2.6070506973738645,0.6424603118551002,-0.29221242152457005,1303617.0,6.614665122929512,-0.0343083909854065,0.2592499642594155,1307150.0,,,,,1309.3635188680444,1305.8305188680442,
72,30,21,F,1,1,64.0,26,1,high,7 - 1 + 9 + 1 - 1,15,13,15,14,1318.9749207000714,1321.0014293000568,1322.5157761999872,1327.5343485000776,1330.4135538000846,1330.413559800014,1331.9301740000956,1332.9472197000869,w,15.0,2.8792053000070155,1,+10,254,-6.228376161543949,0.8518982489104419,-0.279247061398634,1316770.0,14.942167962792958,0.024129161028982438,-0.12353358129051317,1320301.0,,,,,1322.5145188680442,1318.9835188680443,
73,30,21,F,1,1,65.0,27,3,high,6 + 1 + 8 + 7 - 9,13,15,13,14,1334.463699300075,1336.4872657000087,1338.0024468000047,1343.0214475000976,1346.0775364000583,1346.077542000101,1347.5939217000268,1348.6112741000252,q,15.0,3.0560888999607414,0,+0,254,-0.663987540438125,-0.24966045655528024,-0.3291122582060031,1332254.0,-1.2042733897593525,-0.15832601321219464,0.0804010254109202,1335788.0,,,,,1338.0015188680443,1334.4675188680442,
74,30,21,F,1,1,66.0,28,2,low,3 + 9 + 1 - 5 + 1,9,8,9,7,1350.12787080009,1352.1519830999896,1353.667138400022,1358.6851198000368,1362.005520000006,1362.0055254000472,1363.5220757999923,1364.5982373000588,w,9.0,3.320400199969299,1,+1,255,13.894058264232246,-0.7086940859776769,0.0029587231556940097,1347919.0,17.934273939893487,0.4753010583623931,-0.0979692531490588,1351452.0,,,,,1353.6655188680443,1350.1325188680444,
75,30,21,F,1,1,67.0,29,2,low,3 - 1 + 9 - 5 + 1,7,6,5,7,1366.115525900037,1368.139998700004,1369.654776600073,1374.67267790006,1377.1334683999885,1377.133473500027,1378.6501139000757,1379.6671698000282,e,7.0,2.460790499928408,1,+1,256,14.163714397579184,0.22050094113170715,0.16498401954257513,1363907.0,12.258219867502143,-0.3324373365830402,0.03295078481796865,1367440.0,,,,,1369.6535188680443,1366.1205188680442,
76,30,21,F,1,1,68.0,30,3,high,2 + 9 + 1 - 5 + 7,14,12,14,15,1381.1838818000397,1383.210238700034,1384.725235400023,1389.744611900067,1390.6215783000223,1390.621584400069,1392.1378640000476,1393.155178999994,w,14.0,0.8769663999555632,1,+10,266,13.779628741367926,0.10874232796928407,0.16868999969972354,1378976.0,-22.828260139929352,0.5585442089645118,-0.006668714412879639,1382512.0,,,,,1384.7255188680442,1381.1895188680444,
77,30,21,F,1,1,69.0,31,1,high,5 + 1 + 1 + 6 + 1,14,16,14,13,1394.671766399988,1396.6960889000911,1398.2113381000236,1403.2288670000853,1403.6934714000672,1403.6934763999889,1405.2099232000764,1406.2270198999904,w,14.0,0.4646043999819085,1,+10,276,24.761433537338792,-0.36867997290547994,-0.047543511098153246,1392463.0,-30.642137856691612,-0.1338957638428715,-0.3152249958680091,1395996.0,,,,,1398.2095188680444,1394.6765188680442,
78,30,21,F,1,1,70.0,32,4,low,8 + 3 - 4 + 5 + 9,21,23,22,21,1407.7435393000487,1409.7715533000885,1411.2867608000524,1416.304688900011,1420.93361800001,1420.933623500052,1422.449924100074,1423.466803300078,e,21.0,4.628929099999368,1,+1,277,-11.953346596064915,0.49621943653817535,0.06674354647296599,1405538.0,9.209125065321599,0.46958045677941485,0.07449079011694937,1409072.0,,,,,1411.2855188680442,1407.7515188680443,
79,30,21,F,1,1,71.0,33,4,low,4 + 7 + 8 - 3 + 9,25,24,26,25,1424.9834494000534,1427.006410400034,1428.521358900005,1433.5404649000848,1435.373601600062,1435.3736071999883,1436.890093300026,1437.9072585999966,q,24.0,1.8331366999773309,0,+0,277,30.601509704670278,-0.6947170230450208,0.4753562327155514,1422773.0,14.205513617688245,-0.41630295537286255,-0.04895953043909418,1426307.0,,,,,1428.5205188680443,1424.9865188680442,
80,30,21,F,1,1,72.0,34,4,high,2 + 5 - 3 + 9 + 8,21,21,19,22,1439.4241910000565,1441.450273100054,1442.9650429000612,1447.9827633000675,1450.693633200019,1450.6936390000628,1452.210252800025,1453.227712300024,q,21.0,2.710869899950921,1,+10,287,-70.05301549053372,0.37745235780772735,0.12479856268867495,1437217.0,-19.591089096241042,0.1598524892627795,-0.026461962490089697,1440750.0,,,,,1442.9635188680443,1439.4305188680444,
81,30,21,F,1,1,73.0,35,2,high,2 + 9 - 4 + 1 + 1,9,11,9,8,1454.744982100092,1456.7693225000985,1458.2838479999918,1463.3018968000542,1463.869654100039,1463.8696595000802,1465.3860441000434,1466.4031683000503,w,9.0,0.5677572999848053,1,+10,297,3.8619658462310964,0.3114386526347861,0.09810159273173169,1452536.0,7.691462724624791,0.23764965384215486,0.15098444551068502,1456068.0,,,,,1458.2815188680443,1454.7495188680443,
82,30,21,F,1,1,74.0,36,3,high,6 - 1 + 7 - 8 + 9,13,11,13,12,1467.9197859000417,1469.945995200076,1471.461163900094,1476.4799458000343,1476.9575691000791,1476.957574400003,1478.474524200079,1479.4916232000105,w,13.0,0.4776233000447973,1,+10,307,-16.40305173926263,0.6122293872161766,0.060854057042755594,1465713.0,3.204499816515346,-0.6481419438179055,-0.09489940182641288,1469247.0,,,,,1471.4605188680443,1467.9265188680442,
83,30,21,F,1,1,75.0,37,1,low,6 + 1 + 8 + 1 + 1,17,15,17,16,1481.00868790003,1483.0343218999917,1484.5493654999882,1489.5671748000896,1490.1016228999945,1490.1016286000377,1491.6181626000907,1492.635227699997,w,17.0,0.5344480999046937,1,+1,308,5.9029359179112975,0.45941619026572766,0.13063824609052155,1478801.0,-28.384191331711875,0.09482296578501703,-0.025368928781922984,1482334.0,,,,,1484.5475188680443,1481.0145188680442,
84,30,21,F,1,2,76.0,0,3,high,8 + 5 + 1 - 7 + 9,16,17,14,16,1584.633993800031,1586.6608667999972,1588.175695199985,1593.1955046000658,1595.0537401000038,1595.053745900048,1596.570829900098,1597.5879344000714,w,14.0,1.8582354999380184,0,+0,308,-32.770852988265744,-0.018601651242375006,0.2482019114552847,1582427.0,-11.28515317387265,0.13590028501949458,0.027130727392378207,1585962.0,,,,,1588.1755188680443,1584.6405188680442,
85,30,21,F,1,2,77.0,1,1,high,2 + 1 + 9 + 1 + 1,14,14,12,13,1599.104373600101,1601.1282281000167,1602.6433428000892,1607.6614985000342,1608.3016993000638,1608.3017046999885,1609.8181140000231,1610.8353273000102,q,14.0,0.6402008000295609,1,+10,318,-3.037196492119538,0.15113534355245895,-0.06427671100848964,1596894.0,-24.151569773121437,0.044071655660387066,0.0362345024098536,1600428.0,,,,,1602.6415188680444,1599.1075188680443,
86,30,21,F,1,2,78.0,2,3,low,7 - 6 + 8 + 1 + 7,17,17,15,16,1612.3518008000683,1614.377228800091,1615.8925942000933,1620.9108485000909,1621.5658430000767,1621.565849000006,1623.0821490000235,1624.099023399991,q,17.0,0.65499449998606,1,+1,319,5.5845925756270915,0.8111764130525545,-0.09135828368428545,1610143.0,-2.569386100415228,-0.17925524351680666,0.06535894471675219,1613677.0,,,,,1615.8905188680442,1612.3565188680443,
87,30,21,F,1,2,79.0,3,4,high,7 + 6 + 8 - 4 + 5,22,21,22,23,1625.6158080000896,1627.641798500088,1629.1565862999996,1634.174833500059,1637.5257041000295,1637.525710600079,1639.0422937000403,1640.0592719000997,w,22.0,3.350870599970221,1,+10,329,18.173522421448457,-0.0400180300919204,0.06043153131568069,1623408.0,6.830922836701454,0.14518763359404474,-0.029971604230138782,1626941.0,,,,,1629.1545188680443,1625.6215188680442,
88,30,21,F,1,2,80.0,4,1,high,3 + 1 + 8 - 1 + 1,12,10,12,13,1641.5763205999974,1643.602178900037,1645.1169691000832,1650.136310800095,1650.6538533000275,1650.653858600068,1652.1703306999989,1653.1874966000903,w,12.0,0.5175424999324605,1,+10,339,10.312441540999735,0.15499133939105647,0.08294671119172992,1639368.0,12.730895554119318,-0.17145566739715612,-0.14055867803012245,1642902.0,,,,,1645.1155188680443,1641.5815188680442,
89,30,21,F,1,2,81.0,5,4,high,4 + 7 - 8 + 9 - 3,9,9,8,11,1654.7041041000048,1656.7290916000493,1658.2441118001009,1663.262436100049,1665.3977683000269,1665.397774900077,1666.9145630000858,1667.931419200031,q,9.0,2.135332199977711,1,+10,349,6.908345785275367,0.44630096129779906,-0.06660059586514011,1652495.0,-11.170316328452149,0.03267019673809424,-0.055220128428768334,1656029.0,,,,,1658.2425188680443,1654.7085188680442,
90,30,21,F,1,2,82.0,6,3,high,3 + 8 - 7 + 1 + 9,14,14,12,13,1669.4482702000532,1671.4743204000406,1672.9894030001014,1678.008897199994,1682.4298389999894,1682.4298447000328,1683.946037900052,1684.9633077000035,q,14.0,4.420941799995489,1,+10,359,3.057890708435842,0.6585181000228584,0.1889647334646516,1667240.0,-32.16361533514926,-0.0835100825318853,-0.0025512245090706376,1670775.0,,,,,1672.9885188680444,1669.4535188680443,
91,30,21,F,1,2,83.0,7,1,low,9 + 1 + 1 + 7 - 1,17,17,16,19,1686.4804816000396,1688.5053728000494,1690.0206134000327,1695.039120700094,1696.8457831999986,1696.8457892000442,1698.3624695000472,1699.3791354000568,q,17.0,1.8066624999046328,1,+1,360,13.758349795449316,0.19699896200720612,0.07140426722064497,1684271.0,1.9844282772548822,0.3438999078483591,0.005088293822256507,1687806.0,,,,,1690.0195188680443,1686.4845188680442,
92,30,21,F,1,2,84.0,8,2,high,7 + 6 + 1 + 8 + 1,23,22,21,23,1700.8954678000882,1702.922262600041,1704.4374650000827,1709.4559292000486,1710.1177651000908,1710.1177704000147,1711.634243400069,1712.651441700058,e,23.0,0.661835900042206,1,+10,370,8.129410726216383,0.5890921573595316,0.07402226500898679,1698688.0,-34.93710872131448,-0.3737260004545053,0.01772117613065638,1702222.0,,,,,1704.4355188680443,1700.9015188680444,
93,30,21,F,1,2,85.0,9,3,low,8 + 3 + 1 - 7 + 9,14,12,14,15,1714.1682311000768,1716.1954441000707,1717.7105031000683,1722.7304815000389,1726.7179449000396,1726.7179505000822,1728.234258200042,1729.251087200013,w,14.0,3.9874634000007054,1,+1,371,-16.738758887361858,0.424927134845797,-0.05816238176209598,1711961.0,-1.8078625491319968,-0.002052862436919156,-0.05087389399508524,1715496.0,,,,,1717.7095188680444,1714.1745188680443,
94,30,21,F,1,2,86.0,10,1,low,7 + 1 + 4 + 1 - 1,12,13,12,11,1730.7680151000386,1732.792185200029,1734.3072575000117,1739.3256605000934,1739.8297931000125,1739.829798300052,1741.3458181000317,1742.3626879000803,w,12.0,0.5041325999191031,1,+1,372,2.309412596033037,0.21260512790542663,0.11720790907196932,1728558.0,-17.085360190330242,-0.0686726041787864,0.002737567793617668,1732091.0,,,,,1734.3045188680442,1730.7715188680443,
95,30,21,F,1,2,87.0,11,1,low,2 + 1 + 9 + 1 - 1,12,11,13,12,1743.8794133000774,1745.9037548000924,1747.4186895000748,1752.4366891999962,1753.1098925000988,1753.1098983000263,1754.6262896000408,1755.6431929999962,e,12.0,0.6732033001026139,1,+1,373,21.489984003098677,0.28620904082537546,0.131183650558931,1741670.0,7.995976310795844,-0.535447559538182,-0.03889509194537277,1745202.0,,,,,1747.4155188680443,1743.8835188680443,
96,30,21,F,1,2,88.0,12,3,high,4 + 5 - 3 + 7 - 1,12,11,12,13,1757.1595483000856,1759.185165300034,1760.7008085000562,1765.7191282000858,1766.3499253999908,1766.3499313000357,1767.8662008000538,1768.883213700028,w,12.0,0.6307971999049187,1,+10,383,-19.665501313368516,0.31897030263283144,0.07043395189847268,1754951.0,-1.4677792367260647,-0.23023909571293455,0.04262433118738085,1758485.0,,,,,1760.6985188680442,1757.1645188680443,
97,30,21,F,1,2,89.0,13,3,high,6 + 7 + 8 + 1 - 9,13,13,14,15,1770.400231400039,1772.4238871000707,1773.938892300008,1778.9572222999996,1782.7337928999914,1782.7337983000325,1784.2501719000284,1785.267354700016,q,13.0,3.776570599991828,1,+10,393,-50.199901020125395,0.10466970634999839,-0.033862218348962525,1768190.0,4.275702987258786,-0.42416875819695976,-0.05120729662261536,1771723.0,,,,,1773.9365188680442,1770.4035188680443,
98,30,21,F,1,2,90.0,14,3,high,7 + 5 + 9 + 1 - 6,16,15,16,14,1786.7840033000102,1788.810200200067,1790.3254396000411,1795.3453328000614,1798.0459129000085,1798.0459187000524,1799.5621168999933,1800.5796009000624,w,16.0,2.7005800999468192,1,+10,403,-23.186676187364338,0.023078897060143433,-0.047365830664359176,1784576.0,-28.521705492517825,-0.4036360690269558,-0.017384158762260293,1788111.0,,,,,1790.3245188680444,1786.7895188680443,
99,30,21,F,1,2,91.0,15,3,low,2 - 4 + 9 + 7 + 1,15,16,15,13,1802.0968410000205,1804.1217739999995,1805.6368135000807,1810.655812000041,1811.301869200077,1811.3018744,1812.8338237000864,1813.8504096000688,w,15.0,0.6460572000360116,1,+1,404,-5.434864819235369,0.1264957123442807,0.06392633866511854,1799888.0,-10.202750346838124,-0.07550621588387996,0.039633260279960725,1803421.0,,,,,1805.6345188680443,1802.1015188680442,
100,30,21,F,1,2,92.0,16,4,low,6 + 9 - 7 + 8 - 5,11,13,12,11,1815.367865200038,1817.395556900068,1818.9108430000488,1823.92942020006,1827.333925700048,1827.333930900088,1828.8503856000025,1829.8675477000647,w,12.0,3.404505499987863,0,+0,404,16.971655598994964,0.17037010996465574,0.07657325816614313,1813160.0,12.102034119171208,-0.34677018022764994,0.029942044961103642,1816695.0,,,,,1818.9085188680442,1815.3735188680444,
101,30,21,F,1,2,93.0,17,1,low,5 + 6 + 1 + 1 + 1,14,13,14,16,1831.39338480006,1833.4210269000612,1834.9360321999995,1839.9535359999863,1840.4459665000904,1840.4459718000144,1841.9623864000896,1842.97927380004,w,14.0,0.492430500104092,1,+1,405,6.154202687380286,0.06080083138538983,-0.07691918290607291,1829187.0,-10.113277707131473,0.11673468228581152,0.02344102418427596,1832719.0,,,,,1834.9325188680443,1831.4005188680442,
102,30,21,F,1,2,94.0,18,2,low,2 + 1 + 9 - 4 + 1,9,9,11,8,1844.4965213000544,1846.5224113999864,1848.0372539000816,1853.0549066000383,1853.6699567000612,1853.669962299988,1855.186659900006,1856.2035477000757,q,9.0,0.6150501000229269,1,+1,406,2.378399309642152,0.21585976513917382,-0.12301439052184437,1842288.0,21.41190525379916,-0.06549053554462292,-0.001980479841747318,1845821.0,,,,,1848.0345188680442,1844.5015188680443,
103,30,21,F,1,2,95.0,19,1,low,7 + 1 + 4 + 1 - 1,12,13,11,12,1857.7200207000133,1859.7470277000684,1861.2618659000143,1866.279969300027,1867.165980900056,1867.1659866000991,1868.68237350008,1869.6990552000932,e,12.0,0.8860116000287235,1,+1,407,10.123220183056358,-0.23468279540220438,0.02223316016133725,1855512.0,14.131636894846856,-0.12074708384138955,0.013753089070468238,1859045.0,,,,,1861.2585188680443,1857.7255188680442,
104,30,21,F,1,2,96.0,20,1,low,4 + 7 + 1 - 1 - 1,10,9,11,10,1871.2165067000317,1873.2402661000376,1874.7547963000836,1879.7733732000925,1882.853993800003,1882.8539999000493,1884.370524100028,1885.3872552000685,w,11.0,3.080620599910617,0,+0,407,11.128916215826983,-0.5447026118034684,0.07528458473894561,1869006.0,-5.370241384478385,0.371408004177344,0.06689062817177294,1872539.0,,,,,1874.7525188680443,1871.2195188680444,
105,30,21,F,1,2,97.0,21,2,low,8 + 1 + 7 + 1 - 4,13,13,14,12,1886.9039704999889,1888.9309277000136,1890.4461480000757,1895.46558790002,1896.7820173000216,1896.7820233000675,1898.2985522000815,1899.3155896000096,q,13.0,1.3164294000016523,1,+1,408,-0.6551420894494644,0.08466150529106908,0.06256763927843867,1884697.0,-6.307359318892239,0.06887447328879759,0.07705303271904929,1888231.0,,,,,1890.4445188680443,1886.9105188680442,
106,30,21,F,1,2,98.0,22,4,high,3 + 9 - 5 + 6 + 8,21,23,21,22,1900.832310100086,1902.859154600068,1904.374101000023,1909.3919389999935,1912.2220374000024,1912.2220440000528,1913.7385262000607,1914.755671699997,w,21.0,2.8300984000088647,1,+10,418,31.29765733909088,0.4510655471887657,-5.476243313023762,1898625.0,11.847742347362793,-0.12021571271632503,-0.11531112022017043,1902157.0,,,,,1904.3705188680442,1900.8385188680443,
107,30,21,F,1,2,99.0,23,4,low,6 + 9 + 7 - 3 - 5,14,13,14,15,1916.2722204000456,1918.2981556000889,1919.8133429000156,1924.8333113000265,1928.8460630000336,1928.8460685000755,1930.3626319000032,1931.3796346000163,e,15.0,4.012751700007357,0,+0,418,26.396963136502812,-0.505165913217493,0.17053776881901817,1914063.0,-2.2557545384692634,0.40313511001307223,0.28818957859596095,1917598.0,,,,,1919.8115188680442,1916.2765188680444,
108,30,21,F,1,2,100.0,24,3,low,3 - 7 + 5 + 1 + 9,11,13,11,12,1932.896307100076,1934.920391299995,1936.435402800096,1941.453683000058,1942.0141016000416,1942.0141074000855,1943.5312432000649,1944.5481026000343,w,11.0,0.5604185999836773,1,+1,419,27.853975839567877,-0.2958767366166133,0.2803144129224657,1930685.0,13.374642808172846,-0.008583454843640759,0.002592303268409868,1934219.0,,,,,1936.4325188680443,1932.8985188680442,
109,30,21,F,1,2,101.0,25,2,low,4 + 9 + 1 - 7 - 1,6,6,5,8,1946.064796700026,1948.090411200072,1949.6060682000823,1954.624430600088,1957.1339863000903,1957.133991700015,1958.650343400077,1959.6671874000456,q,6.0,2.509555700002238,1,+1,420,-6.9231949041059355,-0.10442253609426455,0.08462682706860969,1943856.0,68.11217320842661,-0.2374310218235678,0.009406298908631427,1947390.0,,,,,1949.6035188680444,1946.0695188680443,
110,30,21,F,1,2,102.0,26,1,low,8 + 1 + 1 - 1 - 4,5,6,3,5,1961.1835781000557,1963.207970699994,1964.7231765000613,1969.742318700068,1970.221997000044,1970.2220028000884,1971.7384583000091,1972.7556287000189,e,5.0,0.4796782999765128,1,+1,421,-7.442302813905827,0.028845946936636224,-0.05064536227036642,1958973.0,12.669430274798277,-0.20877364874983817,-0.1696600324216484,1962507.0,,,,,1964.7205188680443,1961.1865188680442,
111,30,21,F,1,2,103.0,27,2,low,4 + 7 + 1 + 1 - 8,5,7,5,4,1974.272043800098,1976.2989985999884,1977.814144800068,1982.8323889999883,1986.302096700063,1986.3021024999907,1987.8184663000284,1988.835126299993,w,5.0,3.4697077000746503,1,+1,422,-4.221838202835862,-0.08188246995273207,-0.15306926689240274,1972064.0,8.212981588318886,-0.33511577737681275,-0.06654886208685351,1975598.0,,,,,1977.8115188680442,1974.2775188680444,
112,30,21,F,1,2,104.0,28,2,low,7 + 5 + 1 - 1 - 8,4,4,2,3,1990.3513355000175,1992.3747772000495,1993.8898278001,1998.9079959000228,1999.4380821000088,1999.4380880000533,2000.954696000088,2001.9713529000287,q,4.0,0.5300861999858171,1,+1,423,1.0658030566755636,0.20598272422190878,-0.0764901620112759,1988140.0,14.194030567851515,0.4851605362442646,-0.03448515634595606,1991673.0,,,,,1993.8865188680443,1990.3535188680444,
113,30,21,F,1,2,105.0,29,4,low,8 + 5 - 4 + 7 + 9,25,26,24,25,2003.488083000062,2005.5132318000544,2007.028558799997,2012.04650330008,2015.6620109000944,2015.66201640002,2017.179036800051,2018.2114726,w,24.0,3.615507600014098,0,+0,423,10.245519309577228,0.14191378768913632,0.03666449301334196,2001278.0,17.116455340977126,-0.5712520723488868,0.020796228932947747,2004812.0,,,,,2007.0255188680442,2003.4915188680443,
114,30,21,F,1,2,106.0,30,4,low,7 + 8 - 4 + 6 - 5,12,13,11,12,2019.7282023000296,2021.752970900037,2023.2686394000195,2028.2870513000528,2028.990069200052,2028.9900747000936,2030.506443900056,2031.5232327000704,e,12.0,0.703017899999395,1,+1,424,-18.101560858558525,-0.33629408362782476,0.1341679451430584,2017518.0,3.9045902807660795,0.3011069442449137,0.10799989574724655,2021052.0,,,,,2023.2655188680442,2019.7315188680443,
115,30,21,F,1,2,107.0,31,3,low,2 + 1 + 9 - 7 + 6,11,11,12,13,2033.0407726000997,2035.06841060007,2036.583520799992,2041.6032805000432,2042.1740755999929,2042.174080900033,2043.690704900073,2044.7083073999968,w,12.0,0.5707950999494642,0,+0,424,-1.0535931182748204,0.5170930540857501,-1.4314738089609325,2030833.0,37.51042172287362,-0.6322698050520277,-0.2074685442971127,2034368.0,,,,,2036.5815188680442,2033.0465188680444,
116,30,21,F,1,2,108.0,32,1,low,7 + 1 + 6 + 1 + 1,16,18,16,17,2046.224878999987,2048.252072900068,2049.767423500074,2054.7863280000165,2055.2700852000853,2055.2700907000108,2056.7864046000177,2057.8032310000854,w,16.0,0.4837572000687942,1,+1,425,31.508697214736962,-0.5587735178561593,0.18695464784283278,2044017.0,6.6726957370659985,-0.4013264819854818,0.041776297082209535,2047551.0,,,,,2049.764518868044,2046.2305188680443,
117,30,21,F,1,2,109.0,33,2,low,6 + 1 + 7 + 5 - 1,18,17,16,18,2059.3198635000736,2061.3460938000358,2062.861238499987,2067.879269400029,2068.3901213000063,2068.390126900049,2069.906436500023,2070.92316320003,e,18.0,0.5108518999768421,1,+1,426,12.40522208313431,0.10045317860199443,0.0026998183288471367,2057111.0,-9.54913007657294,0.46802252698040725,0.11319334982363438,2060644.0,,,,,2062.857518868044,2059.324518868044,
118,30,21,F,1,2,110.0,34,3,high,4 + 1 + 8 + 9 - 5,17,19,17,18,2072.439741600072,2074.465673000086,2075.980768700014,2080.998687300016,2081.870140700019,2081.870146600064,2083.3865784000373,2084.403663400095,w,17.0,0.8714534000027925,1,+10,436,11.831373608984592,0.30650909659082437,-0.0011949416072198904,2070230.0,-14.457245297374252,-0.04687656585409261,-0.08255055470793038,2073763.0,,,,,2075.976518868044,2072.443518868044,
119,30,21,F,1,2,111.0,35,4,high,5 + 7 - 4 + 8 + 6,22,23,24,22,2085.9200457000406,2087.9440449000103,2089.459314200096,2094.477796200081,2097.782178200083,2097.782184100012,2099.2986908000894,2100.315825400059,e,22.0,3.3043820000020787,1,+10,446,17.939854427309125,-0.292565583267661,-0.005548381110577427,2083709.0,-10.51023989243776,0.06567164768888256,0.1369905770974409,2087243.0,,,,,2089.456518868044,2085.922518868044,
120,30,21,F,1,2,112.0,36,1,high,6 + 1 + 8 + 1 - 1,15,13,15,14,2101.832472600043,2103.857342000003,2105.3724154999945,2110.391687900061,2110.870162800071,2110.8701680999948,2112.3867939000484,2113.404200799996,w,15.0,0.4784749000100419,1,+10,456,3.6737769985860957,-0.06428669556498567,0.007014828057888556,2099622.0,-9.490642757700167,-0.1390104508905976,-0.011201900731692138,2103156.0,,,,,2105.369518868044,2101.835518868044,
121,30,21,F,1,2,113.0,37,2,high,6 + 1 + 1 + 7 - 9,6,6,4,8,2114.920805300004,2116.947284599999,2118.462507700082,2123.480844100006,2124.582205499988,2124.582211300032,2126.0986443000147,2127.115452200058,e,8.0,1.1013613999821246,0,+0,456,-41.76643920832389,-2.9876919752388984,-1.3986005927326666,2112712.0,-33.64343752195456,-0.1563706234061648,-0.1060203606479444,2116245.0,,,,,2118.458518868044,2114.925518868044,
122,30,21,F,1,3,114.0,0,4,high,6 + 9 + 7 - 3 - 5,14,13,12,14,2224.5949068000773,2226.6224409000715,2228.137520599994,2233.1579862000654,2235.206326600048,2235.2063325000927,2236.722533600056,2237.7396254000487,w,12.0,2.048340399982408,0,+0,456,-2.9517394656715226,-0.5344038764265053,0.028476857747400608,2222387.0,-15.308858693964023,0.008687451828657267,-0.05492112629546453,2225922.0,,,,,2228.135518868044,2224.600518868044,
123,30,21,F,1,3,115.0,1,2,low,6 + 1 + 1 + 8 - 9,7,7,9,5,2239.256287700031,2241.2824022000423,2242.7970896000043,2247.8152097000275,2248.342288700049,2248.3422946000937,2249.8588062000927,2250.875791100086,q,7.0,0.527079000021331,1,+1,457,8.63296305666023,0.039399564102954976,0.05872187417450414,2237047.0,8.196031261521501,-0.3348747731952413,-0.029538859349963476,2240579.0,,,,,2242.792518868044,2239.260518868044,
124,30,21,F,1,3,116.0,2,1,high,3 + 1 + 9 + 1 - 1,13,13,14,12,2252.3922396000708,2254.417959499988,2255.9330723000458,2260.9520200000843,2261.566298000049,2261.566304300097,2263.082479500096,2264.0992528999923,q,13.0,0.6142779999645427,1,+10,467,-31.15863575834382,-0.03447651439348043,0.021496506678555072,2250182.0,-10.080012383938078,-0.09529535975531234,0.10997760111361865,2253716.0,,,,,2255.929518868044,2252.395518868044,
125,30,21,F,1,3,117.0,3,4,low,5 + 7 - 4 - 6 + 9,11,12,11,13,2265.6156412001,2267.6412242000224,2269.156328000012,2274.176327400026,2274.7582645000657,2274.758269999991,2276.274425900076,2277.2915567000164,w,11.0,0.581937100039795,1,+1,468,3.805061425320851,0.07574484534091663,-0.08620599042780253,2263405.0,0.10679120377287887,-0.01087411951681494,0.09231553210635712,2266940.0,,,,,2269.153518868044,2265.6185188680442,
126,30,21,F,1,3,118.0,4,3,low,7 - 1 + 8 - 6 + 4,12,12,13,11,2278.8083087001,2280.834774499992,2282.349923300091,2287.36976650008,2289.918335500057,2289.918341499986,2291.4346200000728,2292.451298100059,w,13.0,2.548568999976851,0,+0,468,-17.613597919605507,0.33063155222265994,0.08155274324464612,2276599.0,-47.00045020081096,0.21393058119073416,0.031451695994020756,2280134.0,,,,,2282.347518868044,2278.812518868044,
127,30,21,F,1,3,119.0,5,3,low,4 + 1 + 8 + 9 - 5,17,19,18,17,2293.968345500063,2295.9923756000358,2297.5073788000736,2302.540939400089,2303.5263213000726,2303.526327,2305.0428201000905,2306.0596564000007,e,17.0,0.985381899983622,1,+1,469,15.596716321720114,0.6672209008841707,0.06589405801379256,2291756.0,-5.169449517566777,-0.1828523072007342,0.15087840657329932,2295305.0,,,,,2297.518518868044,2293.969518868044,
128,30,21,F,1,3,120.0,6,4,high,4 + 8 + 9 - 3 + 7,25,25,26,24,2307.5765458000824,2309.6031117000384,2311.118292600033,2316.1381675000302,2318.030453399988,2318.0304591000317,2319.54688550008,2320.5640286999987,e,24.0,1.892285899957642,0,+0,469,-20.11897191116619,-0.05937144863922983,0.06827654280633544,2305367.0,29.884987243718577,-0.3424770539700899,0.18178247511609458,2308901.0,,,,,2311.114518868044,2307.5805188680442,
129,30,21,F,1,3,121.0,7,4,high,7 + 6 - 9 + 8 - 3,9,7,9,8,2322.0806229000445,2324.1075296000345,2325.622612400097,2330.6409087000648,2331.910254599992,2331.910260300036,2333.4268025000347,2334.443660399993,e,8.0,1.26934589992743,0,+0,469,14.663971735219624,-0.5094234937941864,-0.011079586962346122,2319871.0,40.13698025135405,0.5374950775461533,0.1151193643392252,2323405.0,,,,,2325.6185188680442,2322.084518868044,
130,30,21,F,1,3,122.0,8,4,low,8 + 4 + 7 - 5 - 6,8,8,6,9,2335.960396700073,2337.987729000044,2339.502842599992,2344.521774300025,2346.8542494000867,2346.854254500009,2348.3706529000774,2349.387655800092,w,6.0,2.332475100061856,0,+0,469,13.158228046707126,1.3036117331571604,0.06057993862644073,2333751.0,10.815558640831982,-0.30800106564224095,-0.06595016059995884,2337285.0,,,,,2339.498518868044,2335.9645188680443,
131,30,21,F,1,3,123.0,9,2,low,7 + 5 + 1 + 9 + 1,23,21,22,23,2350.904024700052,2352.9309090999886,2354.445984399994,2359.4756438999902,2360.5263436000096,2360.526349200052,2362.0430443000514,2363.059804800083,e,23.0,1.0506997000193223,1,+1,470,-25.527346967990624,-0.24360109201959723,-0.08494650794254288,2348694.0,20.279938955944985,-0.8500999083404981,-0.006302015807524208,2352239.0,,,,,2354.452518868044,2350.907518868044,
132,30,21,F,1,3,124.0,10,1,high,6 + 1 + 1 + 7 - 1,14,12,13,14,2364.576228099992,2366.603897600085,2368.1186956000747,2373.136952100089,2373.790327800089,2373.790333300014,2375.30665100005,2376.3239593000617,e,14.0,0.6533756999997422,1,+10,480,29.177679945459502,0.25778965880505345,0.1513780636426536,2362368.0,8.684666311361216,0.2226198893237319,0.10502524196985674,2365901.0,,,,,2368.114518868044,2364.581518868044,
133,30,21,F,1,3,125.0,11,4,low,8 + 4 + 7 - 5 - 6,8,7,8,9,2377.8409672999987,2379.8658402999863,2381.380964300013,2386.4010202999925,2390.1584259000374,2390.1584321000846,2391.674763499992,2392.6918664000696,e,9.0,3.757405600044876,0,+0,480,48.63066919302295,-0.18132184560723896,-0.16443631855274687,2375629.0,-11.843272199298683,-0.03340499698890831,0.04277362009260299,2379164.0,,,,,2381.3775188680443,2377.842518868044,
134,30,21,F,1,3,126.0,12,4,high,2 + 9 - 3 + 5 + 8,21,23,21,22,2394.208545500064,2396.2338510000845,2397.749113099999,2402.7669669000898,2404.10236670007,2404.102371999994,2405.61976520007,2406.636817999999,w,21.0,1.3353997999802232,1,+10,490,6.1476134680974415,0.19359555958524677,0.10176986842433156,2391997.0,-29.671982117201587,-0.7314931702493599,0.03421375245753189,2395531.0,,,,,2397.744518868044,2394.210518868044,
135,30,21,F,1,3,127.0,13,1,high,9 + 7 + 1 + 1 + 1,19,20,18,19,2408.1534336000914,2410.178133700043,2411.6932852000464,2416.711107400013,2417.1823451000964,2417.1823504000204,2418.6987343000947,2419.716687100008,e,19.0,0.471237700083293,1,+10,500,-4.18473353971525,-0.4849055731618037,0.053351210940601135,2405942.0,-6.273894415882059,15.137432497301088,6.751445704811388,2409475.0,,,,,2411.688518868044,2408.155518868044,
136,30,21,F,1,3,128.0,14,3,low,6 + 8 + 7 + 1 - 9,13,15,13,14,2421.2336470000446,2423.257427100092,2424.7724952000426,2429.7925120000727,2432.686471400084,2432.6864773000125,2434.202976300032,2435.2198296000715,w,13.0,2.8939594000112265,1,+1,501,10.483676928722574,0.7126052583158602,-0.013173265549119462,2419021.0,-18.960783619260734,-0.7040352426615639,-0.13307129772300508,2422556.0,,,,,2424.769518868044,2421.2345188680442,
137,30,21,F,1,3,129.0,15,1,high,6 + 9 + 1 + 1 - 1,16,15,16,14,2436.736465400085,2438.762406300055,2440.2777691000374,2445.2954780000728,2446.0783910000464,2446.0783965000883,2447.594676400069,2448.611644400051,w,16.0,0.7829129999736324,1,+10,511,7.120135760897254,-0.023935130812257732,-0.026418885532027314,2434526.0,-26.612991610572628,0.1340398365652451,0.10907063479375312,2438059.0,,,,,2440.2725188680442,2436.739518868044,
138,30,21,F,1,3,130.0,16,1,high,8 - 1 + 1 + 6 + 1,15,14,16,15,2450.128390200087,2452.1560550000286,2453.671009200043,2458.6892873999896,2459.182430600049,2459.18243600009,2460.698174000019,2461.71499950008,e,15.0,0.4931432000594213,1,+10,521,-5.278879605442608,-0.19867837520429887,0.027805340853085614,2447919.0,8.396455310269845,-0.6348948151692664,0.07434994456858623,2451452.0,,,,,2453.6655188680443,2450.132518868044,
139,30,21,F,1,3,131.0,17,1,low,2 + 1 + 1 + 9 - 1,12,13,11,12,2463.2317491000285,2465.2578425999964,2466.773217900074,2471.8339703000383,2472.942469500005,2472.942475100048,2474.458804400056,2475.4755647000857,w,11.0,1.1084991999669,0,+0,521,21.841618094636267,0.0657044740876076,-0.04922345968502517,2461021.0,15.48836794832959,-0.21518845544578546,-0.06117226870699555,2464597.0,,,,,2466.8105188680443,2463.2345188680442,
140,30,21,F,1,3,132.0,18,3,low,3 + 1 + 8 - 5 + 9,16,16,17,15,2476.99222860008,2479.0177178999875,2480.532799600041,2485.55166430003,2486.2064780000364,2486.20648370008,2487.7229372999864,2488.759788400028,q,16.0,0.6548137000063434,1,+1,522,27.279385760843958,0.8417412139563605,-0.15267199034343837,2474781.0,-33.994060232379624,-0.3249511484867469,-0.009423596691725322,2478315.0,,,,,2480.528518868044,2476.994518868044,
141,30,21,F,1,3,133.0,19,3,low,8 + 6 - 7 + 1 - 4,4,3,5,4,2490.2763635000447,2492.30076090002,2493.815819700016,2498.834562700009,2499.566448100028,2499.5664537000703,2501.0829486000584,2502.099581700051,e,4.0,0.7318854000186548,1,+1,523,6.981053612528147,-0.2155437060055947,0.1688240305458495,2488064.0,-2.2533193555116977,0.24054491108860532,0.03384383205497299,2491598.0,,,,,2493.811518868044,2490.277518868044,
142,30,21,F,1,3,134.0,20,3,high,6 - 1 + 7 - 8 + 9,13,12,11,13,2503.615932799992,2505.642035100027,2507.157511800062,2512.175710899988,2512.7424606001005,2512.7424659000244,2514.258374300087,2515.275446500047,e,13.0,0.5667497001122683,1,+10,533,12.518796603378684,-0.19811019981252365,0.012301137986449273,2501405.0,38.495258440238494,-0.806179214951876,-0.08155268397434767,2504939.0,,,,,2507.152518868044,2503.6185188680442,
143,30,21,F,1,3,135.0,21,4,low,3 + 9 - 5 + 8 - 7,8,8,9,7,2516.8073252000613,2518.833587900037,2520.348812500015,2525.3672789999982,2528.5105298000854,2528.510535600013,2530.027369700023,2531.060351500055,w,9.0,3.1432508000871167,0,+0,533,-3.668084994007325,0.4291378251559195,-0.12794024945647187,2514597.0,-24.720588545206084,0.1858465122165116,-0.03989534928694005,2518130.0,,,,,2520.343518868044,2516.8105188680443,
144,30,21,F,1,3,136.0,22,3,high,3 + 1 + 8 - 5 + 6,13,13,14,15,2532.577908300096,2534.603138400009,2536.118089900003,2541.137018700014,2541.710564700072,2541.710570299998,2543.226921600057,2544.24408590002,q,13.0,0.5735460000578314,1,+10,543,2.1243021232937576,0.4669673466987856,0.09649305788478824,2530366.0,-14.71521947091145,-0.03910173617514001,-0.10491918973741843,2533900.0,,,,,2536.113518868044,2532.579518868044,
145,30,21,F,1,3,137.0,23,3,high,4 + 8 - 3 + 5 - 1,13,14,13,12,2545.7605941999936,2547.785410900018,2549.3006200999957,2554.319671300007,2555.0304719000123,2555.0304772000527,2556.547066100058,2557.56495540007,w,13.0,0.7108006000053138,1,+10,553,-9.400485508979934,-0.007928955553530237,-0.1093777158609126,2543548.0,1.6125582516397028,-0.20921756614349718,-0.008210770948329005,2547082.0,,,,,2549.295518868044,2545.761518868044,
146,30,21,F,1,3,138.0,24,3,low,3 + 1 + 6 - 8 + 9,11,13,12,11,2559.0818017000565,2561.10864770005,2562.623558800085,2567.6414649999933,2568.3345419000834,2568.334547400009,2569.851122000022,2570.868048500037,e,11.0,0.6930769000900909,1,+1,554,1.4689652954789025,-0.2708954168995712,-0.11762374923929553,2556872.0,4.276353274794411,-0.16588230673205384,0.07810697252825372,2560404.0,,,,,2562.617518868044,2559.085518868044,
147,30,21,F,1,3,139.0,25,4,low,9 + 4 - 6 + 8 + 7,22,22,24,21,2572.3847098000115,2574.4115120000206,2575.9269096000357,2580.944820200093,2584.6625681000296,2584.6625736000715,2586.1790934000164,2587.1959415000165,e,21.0,3.717747899936512,0,+0,554,-24.721408600027615,-0.33655360840082604,0.028358522623750382,2570175.0,-7.527715348132576,-0.29162027739609897,-0.0321656047702954,2573708.0,,,,,2575.921518868044,2572.3885188680442,
148,30,21,F,1,3,140.0,26,1,high,7 + 1 + 4 + 1 - 1,12,12,13,14,2588.712200600072,2590.737694100011,2592.253428200027,2597.271610900061,2597.950477800099,2597.9504829000216,2599.466447700048,2600.4837471999926,q,12.0,0.6788669000379741,1,+10,564,3.7985690769769036,-0.4061349535826464,-0.07305489694835754,2586501.0,-12.735403634647483,-0.698709690496206,0.12962652223749904,2590034.0,,,,,2592.247518868044,2588.7145188680443,
149,30,21,F,1,3,141.0,27,2,high,9 + 5 - 6 + 1 - 1,8,9,8,7,2602.000683600083,2604.028566300054,2605.543741500005,2610.561602800037,2611.0945838000625,2611.094589499989,2612.611116699991,2613.6286244000075,w,8.0,0.5329810000257567,1,+10,574,-20.753142638477396,0.16254575031366425,-0.055085179214813484,2599790.0,1.432853817163993,-0.5847323065102339,0.1462486741907123,2603325.0,,,,,2605.538518868044,2602.003518868044,
150,30,21,F,1,3,142.0,28,4,high,7 + 6 - 4 + 9 - 5,13,14,13,12,2615.1453226000303,2617.1715471000643,2618.6867643999867,2623.7056927999947,2626.7345000000205,2626.734505700064,2628.250912300078,2629.2679589000763,w,13.0,3.028807200025767,1,+10,584,-14.106629564567088,1.0876883036619724,0.042856702930657686,2612934.0,-13.43191241035049,-0.23539311566948218,0.08006750793344497,2616468.0,,,,,2618.681518868044,2615.1475188680442,
151,30,21,F,1,3,143.0,29,3,low,4 + 7 - 3 + 5 - 1,12,12,11,13,2630.796399000101,2632.8207895000232,2634.335624600062,2639.3541681000497,2643.5106234001,2643.510629400029,2645.027035200037,2646.04391420004,q,12.0,4.156455300049856,1,+1,585,-27.797446605740646,0.9545494161156678,0.04170759181754158,2628583.0,-7.232529951414589,-0.4497043588885985,0.14360902251627095,2632117.0,,,,,2634.3305188680442,2630.796518868044,
152,30,21,F,1,3,144.0,30,2,high,7 + 6 + 1 - 1 - 8,5,3,5,4,2647.560743900016,2649.586234200048,2651.1013129000785,2656.120707300026,2658.566644400009,2658.566650400054,2660.083104200079,2661.1000757000875,w,5.0,2.4459370999829844,1,+10,595,20.801778292221382,-0.042319545086456856,-0.012433273497872932,2645349.0,1.3719219065112007,-0.6226791754947643,-0.16680468642179647,2648883.0,,,,,2651.096518868044,2647.562518868044,
153,30,21,F,1,3,145.0,31,2,high,9 + 6 + 1 + 7 + 1,24,23,25,24,2662.616689400049,2664.641208700021,2666.156171999988,2671.1743141000625,2671.8145643000025,2671.814569900045,2673.3309530999977,2674.348135899985,e,24.0,0.6402501999400556,1,+10,605,-31.47203128371053,-0.0828958770863002,-0.11035132141424886,2660404.0,-21.41973181958467,0.3050797564481118,0.04627141092059772,2663937.0,,,,,2666.150518868044,2662.617518868044,
154,30,21,F,1,3,146.0,32,3,high,8 - 7 + 9 + 1 + 4,15,14,15,16,2675.8648295000894,2677.8902224000776,2679.405428500031,2684.4237768000457,2685.0545805,2685.0545859000413,2686.5705332000507,2687.587658600067,w,15.0,0.6308036999544129,1,+10,615,-4.135328764598102,-1.4883919739535667,2.5061836321114552,2673653.0,-23.80192103167942,0.3216550655651722,-0.77036263223075,2677186.0,,,,,2679.399518868044,2675.866518868044,
155,30,21,F,1,3,147.0,33,2,high,7 + 8 + 1 + 9 + 1,26,24,26,25,2689.1042354000965,2691.1312891000416,2692.646535300068,2697.6650292000268,2698.318614699994,2698.318619900034,2699.8349779000278,2700.852070900029,w,26.0,0.6535854999674484,1,+10,625,-3.85138901067495,0.6331832394149384,-0.74460496431041,2686893.0,22.27476462017244,-0.3665230813353224,0.17554399412401112,2690428.0,,,,,2692.641518868044,2689.106518868044,
156,30,21,F,1,3,148.0,34,4,low,2 + 9 - 6 + 8 - 4,9,9,11,7,2702.368753200048,2704.392821900081,2705.9078903000336,2710.926304200082,2714.326621800079,2714.326627500006,2715.8431820000987,2716.8597926000366,e,7.0,3.4003175999969244,0,+0,625,-7.079219448883177,0.9226024264103185,0.025001203743965306,2700155.0,17.80359036825714,-0.5456147965432647,-0.36906984888844097,2703689.0,,,,,2705.902518868044,2702.3685188680442,
157,30,21,F,1,3,149.0,35,1,low,5 + 8 - 1 + 1 + 1,14,14,12,16,2718.3763959000357,2720.4021143000573,2721.9173021999886,2726.9373391000554,2730.230823900085,2730.230829600012,2731.746828900068,2732.763428800041,q,14.0,3.293484800029546,1,+1,626,-8.602203473729508,0.12618341911838638,-0.12453273282146338,2716164.0,0.5059539258302959,-0.1948787770920708,-0.1891956513807873,2719699.0,,,,,2721.912518868044,2718.3775188680443,
158,30,21,F,1,3,150.0,36,4,high,3 + 8 - 4 + 9 + 6,22,21,23,22,2734.2807103000814,2736.304713400081,2737.819851400098,2742.8377300000284,2743.934676600038,2743.934682000079,2745.4508723000763,2746.467964400072,e,22.0,1.0969466000096872,1,+10,636,28.35014873307436,0.5265363650793349,0.04221479722119348,2732067.0,15.387424879954224,0.18014554483782863,-0.19939127864020034,2735600.0,,,,,2737.813518868044,2734.280518868044,
159,30,21,F,1,3,151.0,37,4,high,6 + 7 + 9 - 3 + 5,24,23,24,22,2747.984700800036,2750.009759300039,2751.524881700054,2756.5438227000413,2758.046719800099,2758.046725400025,2759.5629406000958,2760.580281600007,w,24.0,1.502897100057453,1,+10,646,-1.692987440137589,-0.33554882395475216,-0.03573930666248293,2745771.0,-16.390336333320086,-0.7697424336318588,-0.00384213463412153,2749306.0,,,,,2751.519518868044,2747.9845188680442,
160,30,21,F,1,4,152.0,0,3,low,9 - 1 + 5 - 6 + 8,15,14,15,17,2864.634488700074,2866.660504400032,2868.1752156000584,2873.194411100005,2876.678768100101,2876.6787734000245,2878.1950317000737,2879.271901600063,q,14.0,3.4843570000957698,0,+0,646,-0.5215992021872093,-0.10926853262390779,1.3228986196870214,2862422.0,-5.878759923999157,0.09969634905468805,-0.1655467421933019,2865956.0,,,,,2868.169518868044,2864.635518868044,
161,30,21,F,1,4,153.0,1,2,low,5 + 9 - 8 + 1 + 1,8,7,8,9,2880.7886762000853,2882.8140998000745,2884.3292618000414,2889.364350500051,2890.982764300076,2890.9827697,2892.499271900044,2893.560116000008,w,8.0,1.6184138000244277,1,+1,647,14.804570618012285,-0.18905293430978132,0.15054405585091035,2878576.0,3.5680161995995805,-0.07039052759540265,0.16041148026262464,2882125.0,,,,,2884.338518868044,2880.789518868044,
162,30,21,F,1,4,154.0,2,1,high,8 + 1 + 5 + 1 + 1,16,16,15,17,2895.07668310008,2897.1037383000366,2898.61890900007,2903.6368651000084,2904.2468361000065,2904.246842200053,2905.76289880008,2906.7795190000907,q,16.0,0.6099709999980405,1,+10,657,-20.732075705780694,-1.4889010803504377,-0.15351079173870108,2892865.0,-10.736214819651956,0.11935204186587667,0.07961286669332424,2896398.0,,,,,2898.611518868044,2895.078518868044,
163,30,21,F,1,4,155.0,3,2,high,5 - 1 + 1 + 8 + 9,22,21,23,22,2908.2965027000755,2910.3735265000723,2911.888547300012,2916.9081680000527,2917.6387511000503,2917.63875630009,2919.155224899994,2920.172205000068,e,22.0,0.7305830999976024,1,+10,667,14.414694544744467,-0.036805601788320264,0.1464203501621162,2906135.0,-1.1842174357458504,-0.19005730693481926,0.0536720882905688,2909669.0,,,,,2911.882518868044,2908.3485188680443,
164,30,21,F,1,4,156.0,4,1,high,9 + 8 + 1 + 1 - 1,18,17,20,18,2921.688822200056,2923.715811400092,2925.231178899994,2930.2623799000867,2931.5268667000346,2931.5268779000035,2933.043999599992,2934.074744499987,e,18.0,1.2644867999479177,1,+10,677,2.209922360515712,-0.2351830064661753,0.03169395349457904,2919477.0,3.92133454474477,-0.40854269950678335,-0.14412207525454956,2923024.0,,,,,2925.237518868044,2921.690518868044,
165,30,21,F,1,4,157.0,5,3,high,8 - 1 + 6 - 7 + 5,11,12,11,13,2935.591587300063,2937.615110500017,2939.130294800037,2944.149243500084,2946.415698900004,2946.4157049000496,2947.9322906000307,2948.949571700068,w,11.0,2.2664553999202326,1,+10,687,15.286950525795149,0.20176300718005669,0.03482295459395024,2933377.0,28.640718963020444,0.11161533078018726,-0.07537944736280022,2936910.0,,,,,2939.123518868044,2935.590518868044,
166,30,21,F,1,4,158.0,6,2,high,6 + 1 + 8 + 7 - 1,21,23,19,21,2950.4663933000998,2952.4894014000893,2954.004496400012,2959.0236799000995,2963.2869125000434,2963.286918500089,2964.803120100056,2965.82583960006,w,19.0,4.263232599943876,0,+0,687,19.293317469992488,0.06479806197747129,0.2633537810676174,2948251.0,-0.4076695956098142,-0.07747760076460608,0.14992047591305813,2951784.0,,,,,2953.997518868044,2950.4645188680443,
167,30,21,F,1,4,159.0,7,3,high,5 - 1 - 4 + 6 + 7,13,13,14,15,2967.3423992000758,2969.3667429999914,2970.881828700076,2975.9002346000634,2976.5989306000997,2976.5989367000293,2978.11517860007,2979.13236430008,q,13.0,0.6986960000358522,1,+10,697,-16.127751828181108,-0.07525818240180371,0.15067772550278402,2965128.0,12.265844784413169,-0.1040796808406288,-0.007151236130827687,2968661.0,,,,,2970.874518868044,2967.341518868044,
168,30,21,F,1,4,160.0,8,1,high,2 + 9 + 1 + 1 + 1,14,13,14,12,2980.6490861000493,2982.6815221,2984.1965835000155,2989.2145047000377,2989.7588918000693,2989.7588978999997,2991.3166865000967,2992.333642299985,w,14.0,0.5443871000315994,1,+10,707,-5.679880976115019,-0.013163272478990073,-0.07406252996240426,2978443.0,-2.813757645419482,-0.06914528225970518,0.03922593944238817,2981976.0,,,,,2984.189518868044,2980.6565188680443,
169,30,21,F,1,4,161.0,9,3,high,4 + 7 + 1 + 9 - 5,16,17,16,18,2993.8503293000394,2995.873061900027,2997.388159000082,3002.407972700079,3006.262922600028,3006.262928600074,3007.779469600064,3008.7974671000848,w,16.0,3.854949899949133,1,+10,717,1.7099739652732922,-0.023761920122832958,-0.051067531444005665,2991634.0,-18.407344563760738,0.16139066108151834,-0.11522569160477136,2995169.0,,,,,2997.382518868044,2993.847518868044,
170,30,21,F,1,4,162.0,10,2,low,3 + 8 + 1 - 5 + 1,8,8,9,6,3010.3142043000557,3012.341817400069,3013.8567534000613,3018.874841800076,3020.550847100094,3020.550852800021,3022.0674608000554,3023.084167800029,q,8.0,1.676005300018005,1,+1,718,26.203227843484253,-0.06636875550217702,0.07329334590775338,3008103.0,18.194862164396707,0.13618246391891375,0.02899161353040247,3011636.0,,,,,3013.849518868044,3010.316518868044,
171,30,21,F,1,4,163.0,11,4,high,4 + 7 - 8 + 9 - 4,8,9,7,8,3024.601174400072,3026.626073600026,3028.1411877000937,3033.161162400036,3035.9749671000754,3035.9749733000062,3037.4913904001005,3038.508354800055,w,7.0,2.813804700039327,0,+0,718,3.30689165669777,0.1328903277978175,-0.0008694584509436609,3022387.0,6.358720329246214,0.026262571457941863,0.10207127215547684,3025922.0,,,,,3028.135518868044,3024.600518868044,
172,30,21,F,1,4,164.0,12,2,high,4 + 8 + 1 + 1 - 6,8,7,9,8,3040.025523600052,3042.0525951000163,3043.567683800007,3048.5859193000942,3049.166920799995,3049.16692670004,3050.683586500003,3051.7013792000944,e,8.0,0.5810014999005944,1,+10,728,19.04024521047121,0.010329772235873502,-0.006416385482858278,3037813.0,40.408034269192946,0.11889672300672638,0.05569985424380475,3041347.0,,,,,3043.5605188680443,3040.026518868044,
173,30,21,F,1,4,165.0,13,1,high,3 + 1 + 8 + 1 + 1,14,14,16,13,3053.2179701999994,3055.244748000056,3056.759613300092,3061.7786416000454,3062.4309230000945,3062.4309286000207,3063.9475622000173,3064.965237800032,q,14.0,0.6522814000491053,1,+10,738,-7.395239357308725,0.04921974475726598,0.04178154376864285,3051005.0,-3.5029710446559665,-0.16945280750149916,0.06306893392988688,3054540.0,,,,,3056.753518868044,3053.218518868044,
174,30,21,F,1,4,166.0,14,4,low,5 + 7 - 4 - 6 + 9,11,12,11,13,3066.481585200061,3068.508695500088,3070.0235330000287,3075.042136600008,3075.542904400034,3075.542909900076,3077.0588137999875,3078.075661100098,w,11.0,0.5007678000256419,1,+1,739,-5.177446232463176,0.20935733756426345,-0.002592972572412533,3064269.0,-10.62423154844847,0.2112285285686446,0.01413086580936529,3067803.0,,,,,3070.016518868044,3066.482518868044,
175,30,21,F,1,4,167.0,15,3,high,2 + 9 - 3 + 4 + 1,13,11,14,13,3079.5923728999915,3081.61701799999,3083.131978700054,3088.151125200093,3090.5189980000723,3090.519003499998,3092.035521800048,3093.052642500028,e,13.0,2.367872799979523,1,+10,749,-29.589698941516183,0.5406351036609482,0.12903394066251006,3077378.0,-0.7373755666148654,0.12186179396783325,0.023312015772938732,3080912.0,,,,,3083.125518868044,3079.591518868044,
176,30,21,F,1,4,168.0,16,4,low,3 + 9 - 4 + 7 + 6,21,19,21,20,3094.5695155001013,3096.5968478000723,3098.111852400005,3103.130832700059,3107.047037200071,3107.047042899998,3108.5644700000994,3109.581264700042,w,21.0,3.9162045000121,1,+1,750,-15.87092806070793,0.676354959758759,0.018577259994665196,3092357.0,-9.196530017699661,0.1495494034155196,0.029159256526316124,3095891.0,,,,,3098.104518868044,3094.570518868044,
177,30,21,F,1,4,169.0,17,3,high,5 + 7 + 1 - 4 + 6,15,17,15,13,3111.0979805000825,3113.1234618000453,3114.6385542000644,3119.658228700049,3121.670897600008,3121.6709029000485,3123.1873008999974,3124.204649200081,w,15.0,2.0126688999589533,1,+10,760,-38.43825019340795,0.28628053355571037,0.07400884601849245,3108884.0,-13.466164896691186,0.08938146312896578,0.030855261312686677,3112418.0,,,,,3114.631518868044,3111.097518868044,
178,30,21,F,1,4,170.0,18,1,high,5 + 9 - 1 + 1 + 1,15,13,15,17,3125.721333900001,3127.745169500005,3129.2602413001005,3134.2782872000244,3134.9670067999978,3134.9670127000427,3136.483514600084,3137.501313199988,w,15.0,0.6887195999734104,1,+10,770,-17.98531556898217,0.2987462658971767,0.048174672053713286,3123506.0,10.4292252000923,0.0013850900908387587,-0.23669700772771662,3127039.0,,,,,3129.2525188680443,3125.719518868044,
179,30,21,F,1,4,171.0,19,1,low,8 + 1 + 4 + 1 + 1,15,16,14,15,3139.018142600078,3141.0575079000555,3142.5723317000084,3147.590354099986,3148.1029609000543,3148.102965800092,3149.619690200081,3150.643904900062,e,15.0,0.5126068000681698,1,+1,771,-4.025276827697812,-0.5032707104524552,-0.4758681575438528,3136818.0,-20.748414905911655,-0.25029892576264334,-0.036154604415268965,3140351.0,,,,,3142.564518868044,3139.0315188680443,
180,30,21,F,1,4,172.0,20,1,low,3 + 1 + 1 + 9 - 1,13,12,14,13,3152.1612472001,3154.186617900036,3155.701466000057,3160.719708000077,3161.358971000067,3161.358976699994,3162.875328800059,3163.89200230001,e,13.0,0.6392629999900237,1,+1,772,12.146304913562751,-0.11762347645330662,-0.02077391700036224,3149947.0,-25.052386213715444,0.013162143231558954,-0.04557842632886411,3153480.0,,,,,3155.693518868044,3152.160518868044,
181,30,21,F,1,4,173.0,21,1,low,2 + 1 + 9 + 1 - 1,12,12,11,13,3165.408388000098,3167.4322447000304,3168.9473592999857,3173.9670264000306,3174.679162800079,3174.679170500021,3176.195366100059,3177.2117937000003,q,12.0,0.712136400048621,1,+1,773,3.266188014260919,0.1596685515742231,0.12417995967038742,3163193.0,-12.32293725981907,-0.33111540588542665,-0.0071103069992910495,3166727.0,,,,,3168.940518868044,3165.4065188680443,
182,30,21,F,1,4,174.0,22,2,low,9 + 4 - 6 + 1 - 1,7,8,9,7,3178.728513100068,3180.7540648001013,3182.2690900000744,3187.287481800071,3188.407063700026,3188.407069600071,3189.9234690000303,3190.9401205000468,e,7.0,1.1195818999549374,1,+1,774,3.3271989187926003,-0.07398927110155906,-0.02845582724476703,3176515.0,6.308234110698718,0.05651474754513908,0.05072819445097787,3180047.0,,,,,3182.260518868044,3178.728518868044,
183,30,21,F,1,4,175.0,23,2,low,6 + 1 + 7 - 8 - 1,5,5,7,4,3192.4563847000245,3194.4805704000173,3195.995653100079,3201.0139585,3205.951039500069,3205.9510444999905,3207.4674257000443,3208.4840782000683,e,4.0,4.937081000069156,0,+0,774,9.241949025912046,0.16123353135809904,0.11100681870283857,3190241.0,18.632366924312954,0.005724428678536508,-0.0055948719213798626,3193774.0,,,,,3195.987518868044,3192.454518868044,
184,30,21,F,1,4,176.0,24,3,low,5 + 6 - 4 - 1 + 7,13,14,13,15,3210.000553500024,3212.027590600075,3213.5427400000626,3218.5609891000204,3219.1590198000195,3219.159025600064,3220.674936900032,3221.691621300066,w,13.0,0.5980306999990717,1,+1,775,12.196722740135522,0.18765442748907146,0.08651501478270252,3207788.0,-24.467305380604174,-0.03452180407889127,-0.1065006901292338,3211321.0,,,,,3213.534518868044,3210.001518868044,
185,30,21,F,1,4,177.0,25,1,low,4 + 9 + 1 - 1 - 1,12,13,11,12,3223.209093100042,3225.2343305000104,3226.7494444000768,3231.767473499989,3233.78310780006,3233.783113200101,3235.2995520000118,3236.3166491000447,q,13.0,2.015634300070815,0,+0,775,3.403199981424237,0.0627700073869959,0.1921456277846989,3220995.0,9.884812280374998,0.24360815218962584,0.15061809138785587,3224528.0,,,,,3226.741518868044,3223.208518868044,
186,30,21,F,1,4,178.0,26,4,low,8 + 4 + 7 - 5 - 6,8,9,6,8,3237.833249700023,3239.8600151999854,3241.375314300065,3246.3953332999954,3248.89514170005,3248.8951474000933,3250.411065399996,3251.4275784000056,e,8.0,2.4998084000544623,1,+1,776,16.611119195413814,-0.008769083093298047,-0.05572033855916314,3235620.0,0.4875818309343245,0.42114688491111263,-0.07488638404758308,3239156.0,,,,,3241.369518868044,3237.833518868044,
187,30,21,F,1,4,179.0,27,3,low,7 - 1 + 8 - 6 + 4,12,13,12,11,3252.945075100055,3254.972014800064,3256.4870474000927,3261.505330700078,3264.1830204,3264.183025800041,3265.7000491000945,3266.717684000032,w,12.0,2.677689699921757,1,+1,777,31.47821528664849,0.09610164918981079,0.0219250949591705,3250732.0,-24.35521899707947,-0.21777210278659798,0.035792176563576916,3254266.0,,,,,3256.479518868044,3252.945518868044,
188,30,21,F,1,4,180.0,28,4,high,5 + 6 - 4 + 7 + 9,23,25,24,23,3268.23471790005,3270.258087800001,3271.7732707000105,3276.791614099988,3277.5830837000394,3277.583089500084,3279.0992040000856,3280.116153200041,e,23.0,0.7914696000516415,1,+10,787,-8.266224060850977,-0.14847427931274826,0.3696927476921319,3266018.0,11.338911093961523,-0.13512750121184647,-0.17464498075880952,3269552.0,,,,,3271.765518868044,3268.231518868044,
189,30,21,F,1,4,181.0,29,2,high,3 + 8 - 5 + 1 + 1,8,8,9,6,3281.6324569000863,3283.655624700012,3285.170699900016,3290.1899125000928,3292.143191000097,3292.143196500023,3293.659631300019,3294.677080500056,q,8.0,1.9532785000046715,1,+10,797,-19.08626664008966,-0.07034877195503597,0.09737851286879273,3279416.0,9.67649276775706,0.0607684461535456,0.0221042633502746,3282950.0,,,,,3285.163518868044,3281.629518868044,
190,30,21,F,1,4,182.0,30,1,high,8 + 1 + 1 + 1 - 4,7,8,5,7,3296.194244800019,3298.221379800001,3299.736283400096,3304.754082200001,3305.431158500025,3305.4311642000685,3306.9476949000964,3307.964881599997,e,7.0,0.677076300024055,1,+10,807,-57.45905020078602,-0.8644995014718488,-0.1910588587199591,3293981.0,48.43179222333513,-0.0835100781259066,-0.00044956253227179666,3297514.0,,,,,3299.727518868044,3296.1945188680443,
191,30,21,F,1,4,183.0,31,1,low,3 + 1 + 8 + 1 + 1,14,12,13,14,3309.4815190000227,3311.5066153000807,3313.021856800071,3318.0398145000217,3318.6231119000586,3318.6231175999856,3320.139495200012,3321.156486400054,e,14.0,0.5832974000368267,1,+1,808,0.20432334093803417,-0.03401444344573479,0.09733043090458104,3307267.0,3.7401284618454875,0.0032471864507961357,0.005302115024860665,3310800.0,,,,,3313.0135188680442,3309.480518868044,
192,30,21,F,1,4,184.0,32,1,high,8 + 1 + 1 + 1 - 3,8,8,9,6,3322.67323220009,3324.698649100028,3326.214018500061,3331.2318129000487,3333.1670810000505,3333.16708620009,3334.6837174000684,3335.7010409000795,q,8.0,1.9352681000018488,1,+10,818,-14.92441693986859,0.12890881947326926,0.26427338628478636,3320459.0,-17.89251774321443,-0.5501675494088398,-0.09193131106383867,3323992.0,,,,,3326.2055188680442,3322.672518868044,
193,30,21,F,1,4,185.0,33,2,low,5 + 8 + 1 - 1 + 9,22,22,23,21,3337.21766710002,3339.243184300023,3340.7582459000405,3345.775863000076,3347.6631269000936,3347.6631322000176,3349.179381099995,3350.195857500076,q,22.0,1.8872639000182967,1,+1,819,10.752338702273933,0.23243864368465283,-0.05334455121971837,3335003.0,-6.975827171164511,-0.036571128134264885,0.2075544476840503,3338536.0,,,,,3340.749518868044,3337.216518868044,
194,30,21,F,1,4,186.0,34,2,high,6 + 8 + 1 + 1 - 7,9,9,11,8,3351.712367900065,3353.73783540004,3355.252930500079,3360.2722449,3360.879134200048,3360.8791394000878,3362.395714100101,3363.412822699989,q,9.0,0.6068893000483513,1,+10,829,-27.083816532972016,0.4089484228894338,0.027774070503836068,3349498.0,-32.12561026921844,-0.053250020652578556,0.08406461270911136,3353032.0,,,,,3355.245518868044,3351.711518868044,
195,30,21,F,1,4,187.0,35,2,low,9 + 4 + 5 + 1 - 1,18,18,19,17,3364.929189800052,3366.955554999993,3368.470711300033,3373.488231300027,3375.0871113000903,3375.087116700015,3376.603449300048,3377.6202164000133,q,18.0,1.5988800000632182,1,+1,830,-2.415639462564812,0.036599926226237756,0.026703951168301376,3362715.0,-1.0435128494175583,0.07438617617518828,0.06935927104764494,3366248.0,,,,,3368.461518868044,3364.928518868044,
196,30,21,F,1,4,188.0,36,1,high,6 + 9 + 1 + 1 - 1,16,15,14,16,3379.1372286000988,3381.1628317000577,3382.678075300064,3387.7408005000325,3388.487155500101,3388.487161100027,3390.0040559000336,3391.0214660000056,e,16.0,0.7463550000684336,1,+10,840,9.958419757498746,0.45897185570022847,-0.10334634603983317,3376923.0,-11.505881721708866,-0.11233026213424324,0.0310950545021218,3380500.0,,,,,3382.713518868044,3379.136518868044,
197,30,21,F,1,4,189.0,37,1,low,6 + 9 + 1 + 1 - 1,16,15,16,14,3392.5381236000685,3394.563803700032,3396.078938300023,3401.097596500069,3401.959152000025,3401.959157500067,3403.476473900024,3404.493322300026,w,16.0,0.8615554999560118,1,+1,841,0.2052336855753829,0.2544029576094422,-0.05883320568887629,3390323.0,-8.799685383781975,0.10194130117204026,-0.047435307404134486,3393857.0,,,,,3396.070518868044,3392.536518868044,
198,30,21,F,1,5,190.0,0,3,low,4 + 8 - 9 + 1 + 7,11,9,11,13,3499.899579500081,3501.92684249999,3503.4419163001003,3508.4617091000546,3511.735253300052,3511.735259700101,3513.251834399998,3514.2696545000654,w,11.0,3.273544199997559,1,+1,842,13.963843202795292,1.2381589372306112,2.8920624518953444,3497686.0,-1.841761158461678,-0.12297454005069808,-0.13051874832338317,3501221.0,,,,,3503.434518868044,3499.899518868044,
199,30,21,F,1,5,191.0,1,3,high,8 + 4 + 1 - 7 + 9,15,13,15,16,3515.7863323000493,3517.810947500053,3519.325477800099,3524.3439670000225,3525.4552420000546,3525.4552471000934,3526.9716932000592,3527.9884355000686,w,15.0,1.1112750000320375,1,+10,852,-75.24261244568636,0.18937387486217983,0.07328203495663121,3513570.0,24.15762350128807,0.0793149621746867,0.13661956624300298,3517103.0,,,,,3519.316518868044,3515.783518868044,
