,id,age,sex,cued,block,trial,trialinblock,efflev,rewlev,calc,corAns,option1,option2,option3,tstart,ITI1Time,probTime,respTime,selectTime,ITI2Time,fbTime,ITI3Time,key_press,chosenAns,RT,acc,feedback,total_points,cuescr,cuecor,cuezyg,cuetime,probscr,probcor,probzyg,probtime,fbscr,fbcor,fbzyg,fbtime,probtime_c,cuetime_c,fbtime_c
0,31,23,F,0,Practice,,0,1,0,4 + 1 + 9 + 1 + 1,16,16,14,15,57.88501149998047,,57.885013599996455,63.110455599962734,84.88933459995314,84.8893406999996,86.40666340000462,87.48112969996873,w,14.0,21.77887899999041,0,Incorrect,0,,,,,6.909943485686011,-0.29231477294220154,0.24974593577345683,55566.0,9.867881850211598,-0.4664397144773811,-0.007815968699428133,83937.0,58.10016920295123,,86.47116920295123
1,31,23,F,0,Practice,,1,1,0,3 + 1 + 1 + 8 - 1,12,11,10,12,88.9978553999681,,88.99785819998942,94.01957249990664,126.71328449994326,126.71329220000187,128.23051939997822,129.2486718998989,w,10.0,32.69371200003661,0,Incorrect,0,,,,,3.815956037781989,0.1223115138410793,-0.02412483647393371,86476.0,2.461009522913015,0.4121852026836761,-1.2639671177399878,125704.0,89.01016920295123,,128.2381692029512
2,31,23,F,0,Practice,,2,2,0,8 + 1 + 6 + 1 - 4,12,11,12,10,130.77532509993762,,130.77532989997417,135.79533180000726,137.0811768999556,137.081182599999,138.59789929992985,139.6184231999796,w,12.0,1.2858450999483466,1,Correct,0,,,,,-2.5781268771706713,-0.5758775066125166,-0.12053417149455803,128251.0,-7.439956276986401,-0.4402393050729452,0.26374634095811755,136074.0,130.78516920295124,,138.60816920295125
3,31,23,F,0,Practice,,3,2,0,9 + 4 - 6 + 1 - 1,7,5,7,6,141.1352250999771,,141.1352279999992,146.15426439989824,147.40910329995677,147.40910849999636,148.9254727999214,149.94258389994502,w,7.0,1.2548389000585305,1,Correct,0,,,,,-43.17263515768624,-0.23856830616042313,-0.7559237797719973,138610.0,-15.816515388260008,0.11054446487769853,0.46403372800175147,146398.0,141.14416920295125,,148.93216920295123
4,31,23,F,0,Practice,,4,3,0,9 + 3 - 5 + 6 + 7,20,20,22,21,151.4593819999136,,151.45938489993569,156.528292199946,161.0732440999709,161.07325039990246,162.58998749998864,163.60750639997423,q,20.0,4.544951900024898,1,Correct,0,,,,,-56.1213905747748,-0.09966939823214327,-0.5268794232244765,148984.0,22.696591880276856,0.4173933137072847,-0.00338165839244553,160063.0,151.51816920295124,,162.59716920295122
5,31,23,F,0,Practice,,5,3,0,2 + 1 + 9 - 7 + 6,11,9,10,11,165.12435739999637,,165.12436029990204,170.14370089990553,171.00929799990263,171.0093047999544,172.5262099999236,173.5444742999971,e,11.0,0.8655970999971032,1,Correct,0,,,,,16.546529474589043,-0.5075080388008693,-0.07751525515024538,162600.0,-6.6626368413589665,-0.5964643274189485,-0.11653592984460603,170000.0,165.13416920295123,,172.53416920295123
6,31,23,F,0,Practice,,6,4,0,4 + 8 + 5 - 3 + 7,21,22,23,21,175.06178069999442,,175.0617837999016,180.082388299983,182.2253510999726,182.22535749990493,183.7422193000093,184.76048419997096,q,22.0,2.1429627999896184,0,Incorrect,0,,,,,5.412248565688607,-1.3188610737773896,0.8457474327981127,172538.0,4.419973652793296,0.5738817999934311,-0.023697425893026036,181216.0,175.07216920295124,,183.75016920295124
7,31,23,F,0,Practice,,7,4,0,5 + 8 - 4 + 6 + 9,24,22,23,24,186.2774981999537,,186.27750099997505,191.29744979995303,199.19323400000576,199.19323999993503,200.70986989990345,201.72805759997573,e,24.0,7.895784200052731,1,Correct,0,,,,,22.415550296684916,0.0041563523751451115,-0.15298191293493035,183752.0,25.75423468239343,-0.6179628369567731,-0.0750894591036384,198183.0,186.28616920295124,,200.71716920295123
8,31,23,F,1,0,0.0,0,4,low,4 + 7 - 8 + 9 - 4,8,9,8,7,760.1832726999419,762.2159277999308,763.7311670999043,768.749822499929,772.0633755999152,772.0633811999578,773.5800286999438,774.5970740999328,w,8.0,3.3135530999861658,1,+1,1,-4.33063435603481,0.18602491307972047,-0.049903373914868876,757668.0,6.021106787209398,-0.7197136322823785,0.22481016693770273,761202.0,-5.529663562794836,-0.08455176285750365,0.13535579872851455,771049.0,763.7361692029513,760.2021692029513,773.5831692029512
9,31,23,F,1,0,1.0,1,4,high,7 + 8 - 4 + 6 - 5,12,13,12,11,776.1139365999261,778.1456990999868,779.660919399932,784.6799075999297,785.7033601999283,785.7033656999702,787.2199718999909,788.2374630999984,w,12.0,1.0234525999985635,1,+10,11,5.414434946655875,0.25293169092932777,0.15984848663219964,773598.0,7.478642695658708,0.021854018107789308,-0.19886307202981568,777132.0,10.111423160234686,-0.30350400452540516,1.2046129862181791,784689.0,779.6661692029512,776.1321692029512,787.2231692029512
10,31,23,F,1,0,2.0,2,2,high,6 + 8 + 1 + 1 - 7,9,9,11,8,789.7543104999932,791.786895499914,793.3020781999221,798.3208287999732,799.8314359999495,799.8314415999921,801.3479986999882,802.414787299931,q,9.0,1.5106071999762207,1,+10,21,5.871313536858979,-0.8798460482889974,-0.9852346527278226,787239.0,14.296887099641811,0.05190229861177098,0.031169113504788015,790772.0,5.9649260684256395,0.1471942601979248,0.2807247683289571,798867.0,793.3061692029513,789.7731692029513,801.4011692029512
11,31,23,F,1,0,3.0,3,1,high,5 + 9 - 1 + 1 + 1,15,17,13,15,803.9312817999162,805.9629926999332,807.4791145999916,812.4983885999536,813.4553353999509,813.4553401999874,814.9718487999635,815.9892618999584,e,15.0,0.9569467999972404,1,+10,31,9.630636227350918,-0.9429161204028613,-2.8085734144330505,801415.0,17.28438214875229,-0.06980719439664052,-0.021801103129701627,804950.0,16.516827713757348,1.496673355273978,1.731032058273732,812441.0,807.4841692029513,803.9491692029512,814.9751692029513
12,31,23,F,1,0,4.0,4,1,high,3 + 1 + 9 + 1 - 1,13,12,14,13,817.5062661999837,819.5274474999169,821.0426336999517,826.1076941000065,827.1193706999766,827.119376199902,828.6353936999803,829.6523358999984,e,13.0,1.0116765999700874,1,+10,41,-15.260725760724306,-0.4302252261468622,-0.24077131664475382,814979.0,-5.8998154916889,-0.3464345580600998,-3.1488892736487393,818559.0,17.763333318385797,1.7472242942250449,0.6302131027970921,826104.0,821.0931692029512,817.5131692029513,828.6381692029513
13,31,23,F,1,0,5.0,5,2,high,7 + 6 + 1 + 8 + 1,23,22,23,21,831.1691455999389,833.19198829995,834.7068106000079,839.7251883998979,841.7355075000087,841.7355124999303,843.2520460999804,844.2693252000026,w,23.0,2.010319100110792,1,+10,51,-1.5157616928082103,-0.17798475831402882,-0.12613376744208082,828644.0,-9.062513518619937,-0.2242658216982747,0.18963949137650604,832177.0,0.9997159604475208,0.0570839070844098,-0.023737510387321414,840721.0,834.7111692029513,831.1781692029513,843.2551692029513
14,31,23,F,1,0,6.0,6,3,high,2 - 4 + 9 + 7 + 1,15,15,16,13,845.8016290999949,847.84739479993,849.3626482998952,854.3812743999297,855.5754839999136,855.5754891999532,857.0926210999023,858.1098372999113,q,15.0,1.1942095999838784,1,+10,61,9.231749221392992,0.969897212882247,0.8808168246980868,843299.0,8.942420976537369,0.528955543911271,0.1012674037529786,846833.0,3.3614289499337815,0.4492594447376028,0.07950896136544383,854561.0,849.3671692029512,845.8331692029512,857.0951692029513
15,31,23,F,1,0,7.0,7,1,low,5 + 1 + 1 + 6 + 1,14,16,13,14,859.6268599999603,861.6540314999875,863.1693526000017,868.1871440999676,869.2954420999158,869.2954474999569,870.8118352999445,871.8286424999824,e,14.0,1.1082979999482632,1,+1,62,14.371607911126647,-0.22017943618148728,0.07536014079570763,857105.0,-5.448041115959592,-5.795210731768035,-6.83738063668122,860639.0,19.76822656090222,0.16717804816416493,-0.07607773566108267,868280.0,863.1731692029513,859.6391692029513,870.8141692029512
16,31,23,F,1,0,8.0,8,1,low,6 + 1 + 8 + 1 + 1,17,17,15,16,873.3453382999869,875.3668124999385,876.8820013999939,881.9002022999339,882.9434434999712,882.9434485998936,884.460073199938,885.477561299922,q,17.0,1.0432412000373006,1,+1,63,6.941445748061636,-0.5266437266588513,-0.46201556246220754,870819.0,19.4391878532902,-1.6601857532959223,-0.45322281582813173,874352.0,-33.287741204041794,-0.1351400889973231,0.07382465481032985,881928.0,876.8861692029512,873.3531692029512,884.4621692029513
17,31,23,F,1,0,9.0,9,2,low,8 + 1 + 1 + 9 - 4,15,15,14,16,886.9943257999839,889.0426510999678,890.5581515999511,895.5762213999406,896.3274623999605,896.3274676000001,897.84375609993,898.8604149000021,q,15.0,0.7512410000199452,1,+1,64,5.460544110185486,0.31688818817538156,2.9679110874767307,884494.0,-13.491380445463538,-0.9100250390256268,-1.047858940144105,888028.0,18.45190759975671,0.26282603706523044,0.09863506766724561,895312.0,890.5621692029513,887.0281692029513,897.8461692029513
18,31,23,F,1,0,10.0,10,4,low,2 + 9 - 6 + 8 - 4,9,11,9,7,900.3772995999316,902.4030034999596,903.918046799954,908.9379681999562,911.3754691999638,911.375475299894,912.8923404999076,913.9087003999156,w,9.0,2.4375010000076145,1,+1,65,7.334374360588846,0.08464272287276264,-0.28392673356478704,897854.0,-24.205203764220286,-0.2266747077639657,-0.010376649398745386,901389.0,-30.029076086744134,0.4353609545081927,0.6399359014533519,910360.0,903.9231692029513,900.3881692029513,912.8941692029513
19,31,23,F,1,0,11.0,11,3,low,9 - 5 - 1 - 6 + 8,5,7,5,4,915.4257755998988,917.45357709995,918.9687748999568,923.9874729999574,924.8477415000089,924.8477470999352,926.364239599905,927.3811107999644,w,5.0,0.8602685000514612,1,+1,66,2.768445085298467,0.06328788152716225,-0.5986315288107011,912905.0,-4.76337394655145,0.08997960349299694,-0.26803088743058523,916438.0,-11.615861224178522,1.67042695128141,4.844753030007796,923832.0,918.9721692029512,915.4391692029512,926.3661692029513
20,31,23,F,1,0,12.0,12,4,low,4 + 7 - 8 + 9 - 3,9,9,11,8,928.897796300007,930.9227260999614,932.4377404999686,937.457851099898,939.1675682999194,939.1675732999574,940.684125199914,941.7009853000054,q,9.0,1.7097172000212597,1,+1,67,22.332433793893884,-0.7907135038883815,-0.4390728716076677,926374.0,10.872027524191244,0.44331912234789606,0.20792559177984593,929909.0,23.5595851589311,-0.24407880663840675,0.1579659585714348,938152.0,932.4431692029513,928.9081692029513,940.6861692029513
21,31,23,F,1,0,13.0,13,2,low,7 + 8 + 1 + 9 + 1,26,26,25,24,943.2175362999552,945.2444346999982,946.7600404999685,951.7782859998988,953.1354772999184,953.1354829999618,954.6523796999828,955.6691672999876,q,26.0,1.3571913000196218,1,+1,68,-32.54847456436529,-0.31842830495120733,0.00967208178557133,940695.0,11.553326891710242,-0.24714743530074035,0.03922567401241461,944230.0,5.162171186408152,1.1176956117055328,0.5533722407024406,952120.0,946.7641692029513,943.2291692029513,954.6541692029513
22,31,23,F,1,0,14.0,14,3,low,5 + 7 + 1 - 4 + 6,15,17,13,15,957.1865935999668,959.2137267999352,960.7288862999994,965.7487242999488,966.63158809999,966.6315936999164,968.1480514999712,969.1647825998951,e,15.0,0.8828638000413775,1,+1,69,27.451246902636584,0.13172647639961976,0.2984801731430493,954665.0,10.268688710372823,0.20673292042686242,-0.009553944474368192,958200.0,-12.55852247457386,-0.9916252610165532,-4.872724234323705,965616.0,960.7341692029513,957.1991692029512,968.1501692029512
23,31,23,F,1,0,15.0,15,2,high,8 + 1 + 7 + 1 - 4,13,13,14,12,970.681151799974,972.70795969991,974.2230570999671,979.2414590999252,980.1595383998938,980.1595437999348,981.6754442999372,982.6925465998938,q,13.0,0.9180792999686672,1,+10,79,-1.8508769686358826,-0.48831340320465744,0.0022846696428693303,968159.0,0.056328414419670736,0.5765363786148261,0.5129684885704551,971693.0,15.077707869160882,-0.3953210648691008,0.04446325836206366,979144.0,974.2271692029512,970.6931692029513,981.6781692029513
24,31,23,F,1,0,16.0,16,3,low,7 - 1 + 9 - 5 + 4,14,13,15,14,984.2092229999836,986.234660499962,987.7497489999514,992.769767699996,993.7595984999788,993.7596035999012,995.276227199938,996.2930383000056,e,14.0,0.989830799982883,1,+1,80,-2.4371888121436545,13.372367869294699,13.366439439596837,981686.0,1.266431926159263,-0.36652461984541995,-0.2268258757445174,985221.0,-2.377305480884722,-0.2957225261074985,0.2810950816089095,992744.0,987.7551692029513,984.2201692029513,995.2781692029513
25,31,23,F,1,0,17.0,17,2,high,3 + 9 + 1 - 5 + 1,9,9,7,8,997.8095490999984,999.8778296000092,1001.39292569994,1006.4115463999332,1007.3116072999546,1007.3116124999942,1008.8281006999314,1009.8454022000078,q,9.0,0.9000609000213444,1,+10,90,24.355283139671226,-5.654136191293315,-20.28560433759881,995329.0,33.52080875591189,0.4226498463760131,-1.150615859160642,998862.0,-11.36570867942994,1.1281003488264467,1.0431166815283879,1006296.0,1001.3961692029512,997.8631692029512,1008.8301692029513
26,31,23,F,1,0,18.0,18,2,high,4 + 8 + 1 + 1 - 5,9,8,9,11,1011.3620813000016,1013.3860306999412,1014.901177499909,1019.919316799962,1020.815631299978,1020.8156363999004,1022.332956600003,1023.3507349999854,w,9.0,0.8963145000161603,1,+10,100,12.130105718479626,0.5985540456261251,0.08840137988491015,1008836.0,49.667305546663194,-4.41954366596405,-4.995218178216618,1012370.0,-41.91792680869527,2.9110842237718124,4.8498914647631395,1019802.0,1014.9041692029513,1011.3701692029513,1022.3361692029513
27,31,23,F,1,0,19.0,19,1,high,8 + 1 + 1 - 1 - 4,5,5,6,3,1024.867405099911,1026.8952046999475,1028.4112752999645,1033.4296089999843,1034.591564000002,1034.5915690999243,1036.1077195999678,1037.124738499988,q,5.0,1.1619550000177696,1,+10,110,23.13364636624228,6.169140170650834,6.99416150887669,1022346.0,1.6040380240427368,-1.0344943200245016,-1.9926239758016826,1025880.0,9.311709052043515,0.044493389019183205,0.06725138506075545,1033575.0,1028.4141692029514,1024.8801692029513,1036.1091692029513
28,31,23,F,1,0,20.0,20,2,high,2 + 1 + 9 - 4 + 1,9,9,11,8,1038.641146199894,1040.6675781999948,1042.1825944999,1047.2025755000068,1048.1516406999435,1048.151645999984,1049.6683464999078,1050.686051399913,q,9.0,0.94906519993674,1,+10,120,3.624180090284618,-39.13696606733527,-40.0843326926841,1036118.0,-1.202975878972497,0.3709780197948822,-2.2598816295985475,1039653.0,5.833224696517501,-0.15059318602830718,0.32529069278180245,1047136.0,1042.1871692029513,1038.6521692029512,1049.6701692029512
29,31,23,F,1,0,21.0,21,1,low,4 + 8 + 1 - 1 - 1,11,9,11,13,1052.202869599918,1054.2286262999987,1055.74436719995,1060.7635704999557,1061.783653399907,1061.7836585999466,1063.3001083999409,1064.3171298999805,e,13.0,1.020082899951376,0,+0,120,7.065394674807461,0.14247841632288294,-0.0817022195408077,1049679.0,14.498795553967398,-0.3460487386495519,-0.4508460872391038,1053214.0,-3.821886746177876,-0.19245272312185024,0.06941670202242678,1088176.0,1055.7481692029512,1052.2131692029513,1090.7101692029512
30,31,23,F,1,0,22.0,22,4,high,3 + 8 - 7 + 9 - 5,8,7,9,8,1065.8337097999174,1067.859000699944,1069.3738910999382,1074.3943415998947,1075.6636691999156,1075.6636747999582,1077.1800921999384,1078.197151799919,q,7.0,1.2693276000209153,0,+0,120,-3.8668771775383792,1.158412008740863,-0.041978688946611165,1063310.0,5.418521112630838,-0.5386665796788694,-0.17408049146134164,1066845.0,0.4623444347641126,0.5046250019196998,0.9577849719358309,1101520.0,1069.3791692029513,1065.8441692029512,1104.0541692029512
31,31,23,F,1,0,23.0,23,1,high,7 - 1 + 8 + 1 - 1,14,12,13,14,1079.7138849999756,1081.7378704999574,1083.2530460999114,1088.272040199954,1089.1916161999106,1089.1916212999497,1090.7083420999115,1091.7256395999575,e,14.0,0.919575999956578,1,+10,130,-50.624134968333266,-0.1658574588791475,0.015692714570403332,1077189.0,-7.03406664126816,-0.12466497180486602,-0.30083995464614377,1080723.0,-17.89161468344057,-0.09522997518800613,0.29166605434499293,1196296.0,1083.2571692029512,1079.7231692029513,1198.8301692029513
32,31,23,F,1,0,24.0,24,4,high,2 + 9 - 3 + 5 + 8,21,21,23,22,1093.2421551999869,1095.2682312999386,1096.7834546999077,1101.801545699942,1102.5356370999943,1102.535642099916,1104.0521504000062,1105.069340999937,q,21.0,0.7340914000524208,1,+10,140,1.3928971708861466,-0.18074367204134134,0.12441299367202796,1090719.0,-3.442549442137807,0.19426373136761255,-0.0371956189410263,1094252.0,19.451444484759243,0.0890413810031685,-0.11856168171449855,1115391.0,1096.7861692029512,1093.2531692029513,1117.9251692029513
33,31,23,F,1,0,25.0,25,4,low,8 + 4 - 5 + 7 - 6,8,8,6,7,1106.586116899969,1108.614216899965,1110.1290328999748,1115.1481953999028,1116.407710899948,1116.4077164999908,1117.924153400003,1118.9409711000044,q,8.0,1.2595155000453817,1,+1,141,14.785417411280516,-2.476398288566225,1.4188401948976992,1104065.0,12.19770807901053,-0.15905209867591052,-0.08502913416721336,1107599.0,7.7817325631934935,-0.09952099201098807,0.007402355514599002,1169647.0,1110.1331692029512,1106.5991692029513,1172.1811692029512
34,31,23,F,1,0,26.0,26,2,low,5 - 8 + 7 + 1 + 1,6,8,7,6,1120.4576116999378,1122.483665299951,1123.9988079000032,1129.018633099971,1129.839700799901,1129.8397059999406,1131.3557720999231,1132.372269599931,e,6.0,0.8210676999296993,1,+1,142,-8.924967294588798,-0.9046203243494739,0.7507057523524994,1117934.0,-12.20316155179787,1.0252875531956627,-0.0163171281782164,1121469.0,2.991507957392038,-0.5879698403557501,0.044643252430657254,1128823.0,1124.0031692029513,1120.4681692029512,1131.3571692029514
35,31,23,F,1,0,27.0,27,3,high,7 - 1 + 8 - 6 + 4,12,11,12,13,1133.889956299914,1135.9167758999392,1137.4318697999695,1142.4653825999703,1143.2397058999632,1143.239711400005,1144.756198799936,1145.785287699895,w,12.0,0.7743232999928296,1,+10,152,-32.04061160945625,-0.3574911958328184,0.39970911240246587,1131367.0,20.60539033159452,0.7199387740810081,1.0238136483081184,1134915.0,19.538307056095512,2.5653493478047564,3.171568110859151,1142235.0,1137.4491692029512,1133.9011692029512,1144.7691692029512
36,31,23,F,1,0,28.0,28,2,high,2 + 9 + 1 + 1 - 5,8,6,7,8,1147.3019938999787,1149.3291524999077,1150.8442951999605,1155.8639319000067,1156.5517290999414,1156.5517347999848,1158.0684271999637,1159.085615399992,e,8.0,0.687797199934721,1,+10,162,-11.519167487558297,0.05003618315034419,0.05275360189853484,1144779.0,-8.668421606596688,2.547505932554584,3.8576835246401173,1148314.0,14.376220219186488,0.3093173826216131,-0.07298685016416173,1155536.0,1150.8481692029513,1147.3131692029513,1158.0701692029513
37,31,23,F,1,0,29.0,29,4,high,6 + 9 + 7 - 3 - 5,14,13,14,15,1160.6023197999457,1162.6293226999696,1164.1441780999303,1169.1632626999635,1170.6637902999064,1170.6637953999452,1172.180259799934,1173.197457299917,w,14.0,1.5005275999428704,1,+10,172,-16.48347461399068,0.12410186544702295,0.09643965700075618,1158079.0,6.95249475460859,0.299339130697327,-0.1126884930763894,1161614.0,-2.596546559516149,-0.42022014462505375,-0.1848613577471383,1254703.0,1164.1481692029513,1160.6131692029512,1257.2371692029512
38,31,23,F,1,0,30.0,30,2,low,9 + 1 + 6 + 7 + 1,24,25,24,23,1174.714310599957,1176.742351199966,1178.257428299985,1183.275639200001,1183.9356402999256,1183.9356452999637,1185.4521862999536,1186.4690833999775,w,24.0,0.6600010999245569,1,+1,173,-5.02627139600067,-0.11759051395047626,0.0940466267673763,1172192.0,7.050670568556951,-0.26619926862762266,-0.30718857207777983,1175726.0,-31.59502545681778,0.4564204670273524,-0.12031433649145895,1182919.0,1178.2601692029514,1174.7261692029513,1185.4531692029514
39,31,23,F,1,0,31.0,31,1,high,5 + 8 - 1 + 1 + 1,14,12,14,16,1187.986718299915,1190.0145208999747,1191.5294445999898,1196.5484542999184,1197.3117087999126,1197.311713799951,1198.8285027999664,1199.845768900006,w,14.0,0.7632544999942183,1,+10,183,-12.879250702649127,5.06383504158808,6.553543253252865,1185464.0,-18.073720911059716,-0.10288608622568374,-0.067609169715942,1188998.0,-2.632151233928945,2.0480016864714212,2.9910347917118583,1209640.0,1191.5321692029513,1187.9981692029512,1212.1741692029514
40,31,23,F,1,0,32.0,32,1,high,3 + 1 + 1 + 8 - 1,12,13,12,14,1201.3623877000064,1203.3884897999233,1204.9037695999723,1209.9220873999875,1210.655824599904,1210.6558301999466,1212.1724460999249,1213.1897539999336,w,12.0,0.7337371999165043,1,+10,193,-15.23014095209087,9.546410522797352,9.066181385827793,1198838.0,3.5982241812292806,0.8231116739746458,-0.16932986978811582,1202372.0,-0.3530482295399384,-0.4439875806022071,-0.23433949250125052,1240399.0,1204.9061692029513,1201.3721692029512,1242.9331692029511
41,31,23,F,1,0,33.0,33,3,high,2 + 1 + 9 - 5 + 6,13,13,14,11,1214.7064682999626,1216.7313606999817,1218.2472199999029,1223.2657666999148,1228.167873099912,1228.1678785999538,1229.6843830998987,1230.7014866999816,e,11.0,4.9021063999971375,0,+0,193,16.167877952786615,-7.541901797632081,-4.874465305311076,1212181.0,18.080266477304455,-0.1857621278207544,-0.3008650243820836,1215716.0,17.928671440720855,-0.1877654589965232,-0.2499453149138553,1540454.0,1218.2501692029512,1214.7151692029513,1542.9881692029512
42,31,23,F,1,0,34.0,34,1,high,6 + 1 + 1 + 7 - 1,14,12,13,14,1232.2183078998933,1234.2425060999813,1235.757801199914,1240.7775182999903,1241.415824699914,1241.4158296999522,1242.9323571999555,1243.9494655999588,e,14.0,0.6383063999237493,1,+10,203,0.9015137245501297,-0.26590142596757094,0.22569704816704794,1229692.0,13.03197811212858,-0.9739257656210012,-0.23471982085629994,1233227.0,6.109630520048044,-0.5265246767908196,0.006017994357386147,1364903.0,1235.7611692029514,1232.2261692029513,1367.4371692029513
43,31,23,F,1,0,35.0,35,4,high,3 + 9 - 4 + 7 + 6,21,19,21,20,1245.4661761999596,1247.4925909999292,1249.0077693999046,1254.0262688999064,1255.719852799899,1255.7198578999378,1257.2363998999351,1258.2536901999265,w,21.0,1.693583899992518,1,+10,213,19.198301117989402,-0.30901358785982325,-0.00952076927655865,1242942.0,-5.559800464525068,-0.20147036078815495,0.05345904769079701,1246476.0,-35.26281448120223,-1.7364664719179626,-0.47542749627734704,1408558.0,1249.0101692029514,1245.4761692029513,1411.0921692029513
44,31,23,F,1,0,36.0,36,2,high,3 + 9 - 1 - 5 + 1,7,6,5,7,1259.7704965999585,1261.7957565999825,1263.3106002999702,1268.328808799968,1269.7197216999484,1269.7197265999855,1271.2361383999232,1272.2532839999767,e,7.0,1.3909128999803215,1,+10,223,-9.422457031601168,-1.7302480341497954,-0.2574026899207118,1257245.0,35.9359842947179,0.20293680238345013,0.0016480035694355077,1260778.0,7.605041707588663,14.561905414154486,12.444056392170882,1268703.0,1263.3121692029513,1259.7791692029512,1271.2371692029512
45,31,23,F,1,0,37.0,37,2,high,5 - 1 + 1 + 8 + 9,22,21,22,23,1273.7705222999211,1275.7943181999726,1277.3095543999225,1282.3274162999587,1283.471799199935,1283.471804299974,1284.9884371999651,1286.0055717999348,e,23.0,1.1443828999763357,0,+0,223,5.967588581754146,0.09285232515885289,0.04587573240563625,1271243.0,8.292541394293728,-0.9432002480771979,-0.3680707787428328,1274777.0,3.9534331703775596,0.3349830373880298,0.2727091947161344,1378287.0,1277.3111692029513,1273.7771692029512,1380.8211692029513
46,31,23,F,1,1,38.0,0,1,low,7 + 1 + 6 + 1 + 1,16,16,18,17,1356.5162021999713,1358.5438275999622,1360.058756299899,1365.078106699977,1365.9199360999046,1365.9199411999434,1367.436816399917,1368.4539636999834,q,16.0,0.8418293999275193,1,+1,224,-0.22819141670361276,5.266203927378401,4.922526042332784,1353993.0,7.050988772720759,-2.854113043706694,-4.6454411832984235,1357527.0,-17.39789912043412,-0.08100551753446839,-0.120037470426122,1497550.0,1360.0611692029513,1356.5271692029512,1500.0841692029512
47,31,23,F,1,1,39.0,1,3,high,3 + 1 + 8 - 5 + 9,16,16,15,17,1369.971630799933,1371.9990368,1373.5142485999968,1378.5326025999384,1379.3038222999312,1379.3038275999716,1380.8206710999366,1381.8385500999866,q,16.0,0.7712196999927983,1,+10,234,-11.618664252973819,0.030401180317928933,0.09520292254335683,1367448.0,5.462509120739105,-6.104179791108443,-2.2395148636709816,1370982.0,20.970960439919978,0.7740942870553535,-0.5424274969988785,1608926.0,1373.5161692029512,1369.9821692029514,1611.4601692029512
48,31,23,F,1,1,40.0,2,4,low,8 + 7 - 4 + 5 + 9,25,25,24,26,1383.3556526999455,1385.382715899963,1386.8978203999577,1391.917936499929,1396.023929699906,1396.0239348999455,1397.540144199971,1398.557452899986,e,26.0,4.1059931999770924,0,+0,234,-8.575534741264818,2.1490934816901976,4.215836394811164,1380832.0,-9.115660971354991,-0.43173757439640825,0.011697679876114808,1384367.0,0.9742829022428303,-0.6159783580884102,-0.29029330252457397,1452639.0,1386.9011692029512,1383.3661692029514,1455.1731692029512
49,31,23,F,1,1,41.0,3,4,low,7 + 6 + 8 - 4 + 5,22,22,21,23,1400.074212300009,1402.09756689996,1403.612743899925,1408.6309188999005,1409.575933199958,1409.5759383999975,1411.0923379999583,1412.1091328999028,q,22.0,0.9450143000576644,1,+1,235,4.082229229508425,-0.5150148273414552,-0.007489368283585707,1397546.0,-3.475152432602904,-0.07913219054751996,0.05791280416772526,1401080.0,-1.223600169090675,-1.1416059172742443,-0.45420170277043437,1467999.0,1403.6141692029512,1400.0801692029513,1470.5331692029513
50,31,23,F,1,1,42.0,4,4,low,4 + 8 + 9 - 3 + 7,25,25,26,24,1413.625951499911,1415.649387199897,1417.1639034999534,1422.1823202999076,1424.7519570000004,1424.751962499926,1426.2684844000032,1427.2855322998948,e,24.0,2.569636700092815,0,+0,235,6.491921615038864,-0.12988987111310424,-0.06763815516230931,1411098.0,4.498731221808507,-0.09005879672158068,-0.48024932172503587,1414631.0,-4.612018685220482,0.30871104652291503,-0.20474741309944178,1513558.0,1417.1651692029513,1413.6321692029512,1516.0921692029513
51,31,23,F,1,1,43.0,5,2,high,3 - 1 + 9 - 5 + 1,7,6,5,7,1428.8023527999176,1430.824220999959,1432.3386033999268,1437.3580308998935,1438.0560048999032,1438.056010399945,1439.5725549999624,1440.589640699909,e,7.0,0.6979740000097081,1,+10,245,7.365939729038655,-0.19345717741374058,-0.8314274072275594,1426273.0,7.391775546026636,-3.503223462339558,-3.821361409707504,1429807.0,-10.2438665732307,0.5309783672039523,0.29068336793404526,1437038.0,1432.3411692029513,1428.8071692029512,1439.5721692029513
52,31,23,F,1,1,44.0,6,4,high,4 + 7 + 8 - 3 + 9,25,26,24,25,1442.106372399954,1444.1308451999212,1445.6458062999882,1450.6656757999444,1453.6559210999403,1453.655926399981,1455.171888199984,1456.1898314999416,e,25.0,2.990245299995877,1,+10,255,-6.3745398455587186,0.6330868491588793,0.24697882719473996,1439580.0,3.2912025593471856,-0.47656649415858476,-1.3794642715212393,1443115.0,-0.4511096905583898,-0.05047942389269888,0.02537435481976047,1554022.0,1445.6491692029513,1442.1141692029512,1556.5561692029512
53,31,23,F,1,1,45.0,7,4,high,2 + 9 - 4 + 8 + 7,22,21,23,22,1457.7065475999843,1459.7310821999563,1461.2462197999705,1466.2650303998962,1469.0160246999003,1469.0160304999445,1470.5329440999776,1471.54992879997,e,22.0,2.750994300004095,1,+10,265,9.046514834031244,-0.5751151519814512,-0.6376893950611529,1455180.0,37.52006479382081,-0.9923673062439815,-0.12620535848219627,1458713.0,9.644266106584038,2.6185038524733946,2.8701588220006307,1595333.0,1461.2471692029512,1457.7141692029513,1597.8671692029513
54,31,23,F,1,1,46.0,8,2,low,7 + 6 + 1 - 1 - 8,5,4,5,3,1473.066718599992,1475.0925437998958,1476.607644899981,1481.6259431999642,1485.3520281999372,1485.352033299976,1486.8687205999158,1487.88573129999,q,4.0,3.7260849999729535,0,+0,265,-4.145786892119887,0.18987858691587078,0.36807958726325585,1470541.0,7.79151901692874,-0.016784299543122216,0.02637130547653821,1474074.0,-7.366754278513955,-0.14415920610683042,0.07773141579799514,1567606.0,1476.6081692029513,1473.0751692029512,1570.1401692029513
55,31,23,F,1,1,47.0,9,1,low,3 + 1 + 8 + 1 + 1,14,14,16,13,1489.4024747000076,1491.426683699945,1492.9419207999017,1497.9598436999368,1498.5679696999723,1498.5679745998932,1500.084391099983,1501.101330299978,q,14.0,0.6081260000355542,1,+1,266,13.955009582557974,0.5576425434685888,0.09352422552898898,1486875.0,-5.005236524378744,-0.2700924726978573,-0.05267627329226343,1490408.0,3.625338319716203,1.168000891072079,0.5079662381019405,1526926.0,1492.9421692029512,1489.4091692029513,1529.4601692029512
56,31,23,F,1,1,48.0,10,4,high,5 + 6 - 4 + 7 + 9,23,24,23,25,1502.618010199978,1504.6439719999908,1506.1591412998969,1511.1772994999774,1514.5761131999316,1514.5761185999727,1516.0924333999865,1517.109880400007,w,23.0,3.3988136999541894,1,+10,276,-8.205316970313135,4.711256013979746,5.99520290585032,1500092.0,20.611422312445008,0.6660289698033344,0.24469792563892812,1503626.0,-1.6555497342405232,-6.165687157779557,-8.708122868135957,1779509.0,1506.1601692029512,1502.6261692029514,1782.0431692029513
57,31,23,F,1,1,49.0,11,1,high,6 + 1 + 1 + 9 - 1,16,15,16,14,1518.626620199997,1520.6527642,1522.1676580999049,1527.1856982999016,1527.9440508999396,1527.9440559999784,1529.4605347999604,1530.4779099998996,w,16.0,0.7583526000380516,1,+10,286,-21.30076562718185,0.9196841187585103,0.5845309095398723,1516101.0,-4.407204617657092,-0.6272163135845075,-1.1325361650007582,1519634.0,14.210161475091327,2.892428842543799,3.1735549134639327,1581110.0,1522.1681692029513,1518.6351692029514,1583.6441692029512
58,31,23,F,1,1,50.0,12,3,low,7 + 5 + 9 + 1 - 6,16,16,15,14,1531.9943187999306,1534.0201976998942,1535.5348655999403,1540.5530092999106,1541.472018599976,1541.4720236998985,1542.9890926999506,1544.0060442999238,q,16.0,0.9190093000652269,1,+1,287,31.771870104342828,10.070355176839572,7.54575328405063,1529468.0,-0.6378851490746733,-0.251997865717859,-0.7371448163923249,1533001.0,-21.75138568554404,-0.6143403478189886,-1.1964812644487428,1622285.0,1535.5351692029512,1532.0021692029513,1624.8191692029513
59,31,23,F,1,1,51.0,13,4,high,7 + 8 - 4 + 6 + 5,22,22,21,23,1545.5226617999142,1547.5474711999996,1549.0626473999582,1554.08258009993,1555.040126399952,1555.04013139999,1556.5566351999296,1557.5733063999796,q,22.0,0.9575463000219316,1,+10,297,15.872186461945486,0.30612646478640704,0.2176240771678961,1542995.0,14.601051816480235,-0.4743004068241654,0.09116444135437773,1546531.0,0.71377620594075,-0.28510793491185726,-0.5604222712504576,1837765.0,1549.0651692029512,1545.5291692029512,1840.2991692029514
60,31,23,F,1,1,52.0,14,2,low,7 + 5 + 1 + 9 + 1,23,23,22,21,1559.091043399996,1561.114191100001,1562.6296941000037,1567.6475024999818,1568.6241349999327,1568.6241399999708,1570.1416120999493,1571.1583817999344,q,23.0,0.976632499950938,1,+1,298,0.10411508963274763,-0.08409736767910658,0.14823404554266362,1556562.0,15.182528725653265,-0.4110498049448523,-0.37889851752351245,1560096.0,-21.973851030569733,-1.4856167953682187,-0.7001113541265731,1663054.0,1562.6301692029513,1559.0961692029512,1665.5881692029513
61,31,23,F,1,1,53.0,15,1,low,3 + 1 + 8 + 1 + 1,14,13,14,12,1572.6750156999333,1574.7016355999513,1576.216702100006,1581.2351456999313,1582.1280937999254,1582.1280990999658,1583.644643799984,1584.6614319999935,w,14.0,0.8929480999941006,1,+1,299,15.05329353956176,-0.5550269496631208,0.06810161904107614,1570150.0,7.486456003838457,0.006253852705916607,0.1661398896221009,1573683.0,21.177291732032586,-1.1027163663487483,0.24898739725229602,1635877.0,1576.2171692029513,1572.6841692029514,1638.4111692029512
62,31,23,F,1,1,54.0,16,4,high,3 + 8 - 4 + 9 + 7,23,22,23,24,1586.177834699978,1588.2052654,1589.7203380999854,1594.73852299992,1596.3520561999176,1596.3520612999564,1597.868188399938,1598.8852774999104,w,23.0,1.6135331999976188,1,+10,309,14.036450835589925,-0.5627854853017666,1.6283301188217152,1583653.0,2.6325254346492875,-2.558103352659595,-1.5282868298978833,1587187.0,-22.787240807927546,0.24694326866613192,0.21448904296474636,1867581.0,1589.7211692029512,1586.1871692029513,1870.1151692029512
63,31,23,F,1,1,55.0,17,3,low,3 + 8 - 7 + 1 + 9,14,14,12,13,1600.4023756999522,1602.4251051999163,1603.940342499991,1608.9583774999485,1609.9441627999768,1609.944169199909,1611.461358499946,1612.4777969999705,q,14.0,0.9857853000285104,1,+1,310,3.841455004531234,-1.5576945718998099,-1.3725944880972247,1597873.0,-46.600658193692894,-1.1632925935696594,-0.5870250821613645,1601407.0,13.422644844886673,-0.06576630310023113,0.06555729841406444,1649724.0,1603.9411692029512,1600.4071692029513,1652.2581692029512
64,31,23,F,1,1,56.0,18,3,high,3 + 1 + 8 - 5 + 6,13,15,14,13,1613.9945720999967,1616.0161422999809,1617.530965999933,1622.549094399903,1623.3040746999905,1623.3040797999129,1624.8200596999377,1625.8369605999906,e,13.0,0.7549803000874817,1,+10,320,12.182359754559467,0.7512230805438955,5.5134249055765086,1611464.0,15.82523853659396,-0.6195827361128687,-0.09916217591163234,1614997.0,-18.525278049817487,9.609234423094584,3.7827971233652313,2095012.0,1617.5311692029513,1613.9981692029512,2097.546169202951
65,31,23,F,1,1,57.0,19,1,low,3 + 1 + 1 + 9 - 1,13,14,13,12,1627.3535907999612,1629.380424699979,1630.8955633000005,1635.9138181000017,1636.8960919999518,1636.8960979999974,1638.412217499921,1639.4287783999462,w,13.0,0.9822738999500872,1,+1,321,-6.408265445292422,-0.31268226773441965,0.1250484963992431,1624828.0,11.913916881161754,-1.9887196098504556,-0.2876975844357177,1628362.0,18.553753639487702,0.03884950977845225,0.30271743910387316,1694046.0,1630.8961692029513,1627.3621692029512,1696.5801692029513
66,31,23,F,1,1,58.0,20,3,low,5 - 1 - 4 + 6 + 7,13,15,13,14,1640.9456213999074,1642.9742585999193,1644.4893326999154,1649.507620099932,1650.744144700002,1650.744149999926,1652.259739400004,1653.2762245999184,w,13.0,1.23652460006997,1,+1,322,-2.687007580060464,-3.8463561749583253,-1.5050727012061982,1638422.0,19.030286140423783,-0.08308542974048727,-0.4776560806497625,1641955.0,3.380861352405468,0.6480982105337634,0.1347961139876921,2123196.0,1644.4891692029512,1640.9561692029513,2125.730169202951
67,31,23,F,1,1,59.0,21,2,high,6 + 1 + 8 + 5 - 1,19,17,18,19,1654.7928559998982,1656.818538499996,1658.3336616999004,1663.3517073999392,1664.0721160999965,1664.072121099918,1665.5887088999152,1666.605850599939,e,19.0,0.7204087000573054,1,+10,332,-3.561707566292071,-2.0757267113910243,-2.620636221490552,1652266.0,1.28735397443538,-2.5990448565276933,-2.9093412061932664,1655799.0,0.8242267549343723,0.8760108089691427,0.25574732090747876,1707317.0,1658.3331692029512,1654.8001692029513,1709.8511692029513
68,31,23,F,1,1,60.0,22,3,high,8 + 4 + 1 - 7 + 9,15,15,13,16,1668.1225376999937,1670.1481975999195,1671.663278299966,1676.6816372999456,1681.6992048999527,1681.6992073999718,1683.2156308999984,1684.2367525999434,,,,0,Too Slow!,332,3.05481194605818,-2.1038773410289098,-3.8234131240715525,1665596.0,0.9770558699485541,-0.6663048539104972,-0.2631901599268418,1669129.0,8.999665787549528,-0.7638510756722896,-0.36383518479200383,1680684.0,1671.6631692029512,1668.1301692029513,1683.2181692029512
69,31,23,F,1,1,61.0,23,1,low,8 - 1 + 1 + 6 + 1,15,15,14,16,1685.7536362999815,1687.7779449999798,1689.2928698000032,1694.3109036999522,1695.064239499974,1695.064245199901,1696.5813198999967,1697.598641699995,q,15.0,0.7533358000218868,1,+1,333,-39.238275754974325,0.19745337763706994,-0.7337680719558022,1683226.0,50.390819554764334,-0.5662756614006166,-0.31832004243347845,1686759.0,-50.832236876139376,1.3592172242248224,3.4355712446001934,2268934.0,1689.2931692029513,1685.7601692029514,2271.4681692029512
70,31,23,F,1,1,62.0,24,2,low,3 + 8 + 1 - 5 + 1,8,9,8,6,1699.1161285999697,1701.1449742999391,1702.6599343999987,1707.678302999935,1708.336193599971,1708.3361987998942,1709.8528111999622,1710.8695405999897,w,8.0,0.6578906000358984,1,+1,334,1.6789965113399088,0.0004288330469162105,-0.2030427145773066,1696593.0,-12.581128488644108,-0.11235845157020163,0.09947362631820389,1700126.0,-2.6147953360031146,-0.24427400850197145,-1.2331651687224747,3177214.0,1702.6601692029512,1699.1271692029513,3179.748169202951
71,31,23,F,1,1,63.0,25,1,low,4 + 1 + 1 + 7 - 1,12,12,14,13,1712.3862095999066,1714.410631099949,1715.925954699982,1720.9443196000066,1721.8162101999624,1721.8162153000012,1723.3446428999305,1724.3617631999075,q,12.0,0.8718905999558046,1,+1,335,17.611895660030164,0.07883413992284716,0.18418129873208855,1709858.0,25.788728383406923,0.02514917341110534,0.14168670274056838,1713392.0,1.8054720515564817,0.014201721730782602,0.07382488565758116,3550415.0,1715.9261692029513,1712.3921692029512,3552.949169202951
72,31,23,F,1,1,64.0,26,1,high,7 + 1 + 4 + 1 - 1,12,12,13,11,1725.8784978999756,1727.9044616000028,1729.419644399895,1734.437848099973,1735.0722239000024,1735.0722291999264,1736.5887875999324,1737.6059708999237,q,12.0,0.6343758000293747,1,+10,345,-9.298060435490743,0.12618620302509687,0.3734410275208562,1723352.0,40.96492568267324,-6.049521563748548,-4.499825502105574,1726885.0,,,,,1729.4191692029513,1725.8861692029514,
73,31,23,F,1,1,65.0,27,3,high,4 + 8 - 3 + 5 - 1,13,13,14,12,1739.1226174999028,1741.145258600009,1742.6605203999206,1747.6788056999212,1751.3202459999593,1751.3202519000042,1752.8365006999811,1753.853848699946,w,14.0,3.641440300038085,0,+0,345,-57.9365820422019,-0.0181285329408456,0.07305301695890254,1736592.0,21.362491848925778,0.968508598694743,0.2100409008426607,1740126.0,,,,,1742.6601692029512,1739.1261692029514,
74,31,23,F,1,1,66.0,28,1,high,4 + 7 + 1 - 1 - 1,10,10,9,11,1755.3705916999606,1757.3951555999229,1758.9101381999208,1763.928406199906,1766.6961771999486,1766.6961821999869,1768.2134440999944,1769.231766999932,e,11.0,2.7677710000425577,0,+0,345,-7.99072159944782,-0.05463168366006865,-0.32195209685061754,1752843.0,-0.5174013726912916,-0.5541384490959778,-0.304912819500998,1756376.0,,,,,1758.9101692029512,1755.3771692029513,
75,31,23,F,1,1,67.0,29,4,low,6 + 5 - 7 + 8 - 9,3,3,4,5,1770.7489134999923,1772.7743810999673,1774.2895147999516,1779.3083585998977,1780.528256499907,1780.528261899948,1782.0447481999872,1783.0613926999504,q,3.0,1.2198979000095278,1,+1,346,4.576451071746792,-0.31293758583395404,0.022446571697958717,1768222.0,14.736209498288876,-0.025659985131373908,0.20191305467042087,1771755.0,,,,,1774.2891692029514,1770.7561692029512,
76,31,23,F,1,1,68.0,30,2,low,5 + 8 + 1 - 1 + 9,22,22,23,21,1784.5789316999726,1786.604817799991,1788.1200396999484,1793.13923109998,1794.2561953999102,1794.2562003999485,1795.7727289999602,1796.789492999902,q,22.0,1.1169642999302596,1,+1,347,23.738941715210487,0.0150571693849888,0.12765320005208336,1782052.0,8.609705819697306,-0.8481460719792677,-0.14211866232223302,1785586.0,,,,,1788.1201692029513,1784.5861692029512,
77,31,23,F,1,1,69.0,31,3,low,4 + 7 + 1 + 9 - 5,16,18,17,16,1798.3066674999427,1800.3329777999315,1801.8481511999853,1806.8677102999063,1809.2802266000072,1809.2802312999263,1810.7971530999057,1811.8142197999405,q,18.0,2.412516300100833,0,+0,347,19.171071005517174,0.4954175341773688,-0.24971355355061942,1795780.0,6.636694965692225,-0.10228071402442707,-0.24210938956224837,1799315.0,,,,,1801.8491692029513,1798.3141692029512,
78,31,23,F,1,1,70.0,32,3,high,2 + 9 - 3 + 4 + 1,13,11,13,14,1813.331301899976,1815.3562690999825,1816.871146699996,1821.8894420999568,1825.1122971998996,1825.112302399939,1826.628695099964,1827.6457847999409,e,14.0,3.222855099942535,0,+0,347,-11.598263960983576,-0.07907946005236077,0.3971860769877571,1810803.0,-20.15835165744608,0.5696085468643055,-0.4882492327632062,1814337.0,,,,,1816.8711692029513,1813.3371692029514,
79,31,23,F,1,1,71.0,33,4,low,3 + 8 - 4 + 9 + 6,22,22,23,21,1829.1623995999107,1831.187773999991,1832.7028527999064,1837.7220158999555,1838.7842227999356,1838.7842277999732,1840.300778899924,1841.3175460000057,q,22.0,1.062206899980083,1,+1,348,-1.6897519839755155,-1.2216942208661887,-0.36780741674310047,1826635.0,3.8059945706918654,-0.1146160830151497,0.25735754802653776,1830169.0,,,,,1832.7031692029514,1829.1691692029513,
80,31,23,F,1,1,72.0,34,1,low,3 + 1 + 8 - 1 + 1,12,12,13,10,1842.834750799928,1844.8629373000003,1846.3781861999305,1851.3962744999444,1852.4721887999915,1852.472193699912,1853.9887389999349,1855.005520400009,q,12.0,1.0759143000468612,1,+1,349,8.276473282840035,2.429633527731167,-0.21687648875446275,1840310.0,7.968290547184639,-9.419355873418816,-9.594868270484636,1843843.0,,,,,1846.3771692029513,1842.8441692029512,
81,31,23,F,1,1,73.0,35,4,high,8 + 4 + 7 - 5 - 6,8,9,8,6,1856.5224182999227,1858.547937599942,1860.063062499976,1865.081138099893,1868.6003621999407,1868.600367499981,1870.1168516000037,1871.1337442999936,w,8.0,3.5192241000477225,1,+10,359,15.423467717051166,-0.004159196102503593,-4.060430200188053,1853995.0,15.571383732181927,-0.06583854455788485,-0.018496323685688765,1857528.0,,,,,1860.0621692029513,1856.5291692029512,
82,31,23,F,1,1,74.0,36,3,low,8 - 7 + 9 + 1 + 4,15,14,16,15,1872.6506326999515,1874.675289799925,1876.1903519999469,1881.208853899967,1885.9523481999056,1885.9523538999488,1887.4691244999408,1888.4861628999931,q,14.0,4.743494299938902,0,+0,359,-4.136281986020148,0.2790606771457358,0.03822182499680249,1870122.0,-5.200583458701427,-0.1745341813597121,-0.0022938914446246628,1873656.0,,,,,1876.1901692029512,1872.6561692029513,
83,31,23,F,1,1,75.0,37,2,low,6 + 1 + 7 - 8 - 1,5,7,4,5,1890.0028405999765,1892.0285986999515,1893.5437768999252,1898.563615499996,1899.416357399896,1899.4163629999384,1900.9328825999985,1901.9497302999955,e,5.0,0.8527418999001384,1,+1,360,-17.383594488291514,-0.03610581589097572,-0.34597514367659876,1887475.0,10.95266093348695,-3.157276602899075,-0.4181268735121222,1891011.0,,,,,1893.5451692029512,1890.0091692029512,
84,31,23,F,1,2,76.0,0,2,high,2 + 9 - 4 + 1 + 1,9,8,9,11,2002.541330499924,2004.5689677000048,2006.0844424999088,2011.10435239994,2012.6404244999867,2012.640429999912,2014.1569002999456,2015.174354299903,w,9.0,1.536072100047022,1,+10,370,12.115188468871349,-3.773064011757145,0.5755324897604295,2000015.0,-4.834759498425095,-0.2583742948950005,-0.4246099804268193,2003551.0,,,,,2006.0851692029512,2002.5491692029514,
85,31,23,F,1,2,77.0,1,1,low,9 + 8 + 1 + 1 - 1,18,18,17,19,2016.691071099951,2018.718762399978,2020.233681099955,2025.251939299982,2026.0484448999632,2026.0484499000013,2027.5649633998985,2028.5817123999584,q,18.0,0.7965055999811739,1,+1,371,22.889898118960456,-5.286437141562228,-3.3314481546250962,2014165.0,-5.335531954744745,0.1272297654220278,0.07074782852704842,2017698.0,,,,,2020.2321692029514,2016.6991692029512,
86,31,23,F,1,2,78.0,2,1,high,2 + 1 + 1 + 9 - 1,12,12,11,13,2030.098179099965,2032.123453999986,2033.638699100004,2038.6568953999083,2039.4803847000005,2039.4803898999237,2040.9965475999047,2042.0139086999695,q,12.0,0.8234893000917509,1,+10,381,-15.782745340147965,1.2319913013757233,0.9301541329894425,2027570.0,2.90783474922834,-0.15547949935250616,-0.03000058398129668,2031103.0,,,,,2033.6371692029513,2030.1041692029512,
87,31,23,F,1,2,79.0,3,2,low,9 + 6 + 1 + 7 + 1,24,24,23,25,2043.531064299983,2045.557850499987,2047.0729271000016,2052.091459799907,2054.3204653,2054.3204704999225,2055.8372871999163,2056.854103999911,q,24.0,2.229005500092171,1,+1,382,-15.718588182612393,1.3988941717997796,1.5233181439327044,2041004.0,12.702751037377054,-1.7915298098020254,-3.852871220143343,2044537.0,,,,,2047.0711692029513,2043.5381692029512,
88,31,23,F,1,2,80.0,4,4,low,3 + 9 - 5 + 8 - 7,8,9,7,8,2058.3714927999536,2060.397102499963,2061.912364699994,2066.930844999966,2068.680670599919,2068.68067599996,2070.196836899966,2071.213651199941,e,8.0,1.749825599952601,1,+1,383,-1.0429812153290188,-0.23668594315727098,0.0485234432014805,2055843.0,-12.18452632876955,-0.20074170035426642,0.06012741810598543,2059377.0,,,,,2061.911169202951,2058.377169202951,
89,31,23,F,1,2,81.0,5,4,low,5 + 8 - 6 + 7 + 4,18,19,17,18,2072.730400600005,2074.754065599991,2076.2689860999817,2081.2875498000067,2082.376445099944,2082.376450199983,2083.892839099979,2084.909576999955,e,18.0,1.088895299937576,1,+1,384,10.589835925805568,-1.090602525862788,-1.5312405084493113,2070200.0,1.6494271134452454,-0.28470034780817133,-0.03556809014293094,2073734.0,,,,,2076.268169202951,2072.734169202951,
90,31,23,F,1,2,82.0,6,3,high,6 + 7 + 8 + 1 - 9,13,14,15,13,2086.4264912999934,2088.4521589999786,2089.9672365000006,2094.985395099968,2096.0325051998952,2096.03251109994,2097.548927699914,2098.565971200005,e,13.0,1.0471100999275222,1,+10,394,3.2593125037362984,0.06671847653255014,0.016934936968820757,2083898.0,-27.20568597938693,0.40966886274739744,-0.09423013493038046,2087432.0,,,,,2089.966169202951,2086.432169202951,
91,31,23,F,1,2,83.0,7,1,low,2 + 9 + 1 + 1 + 1,14,12,14,13,2100.082695099991,2102.109943799908,2103.625172699918,2108.6430808999576,2109.3605293999426,2109.3605343999807,2110.877254599938,2111.8936242999043,w,14.0,0.7174484999850392,1,+1,395,-24.683869057269717,0.7169988852285032,0.31191020068652775,2097556.0,3.5828709023892173,-0.12673812301201126,0.0805907542615103,2101089.0,,,,,2103.623169202951,2100.090169202951,
92,31,23,F,1,2,84.0,8,3,low,8 - 1 + 6 - 7 + 5,11,13,11,12,2113.410418399959,2115.4364774998976,2116.9514663999435,2121.969607799896,2124.2165550999343,2124.2165608999785,2125.7335780999856,2126.7506274000043,w,11.0,2.2469473000383005,1,+1,396,8.197949529285472,-22.06820641584012,-21.901694091168153,2110882.0,-18.789288001113338,0.5506423932449347,0.10229706613378298,2114416.0,,,,,2116.950169202951,2113.416169202951,
93,31,23,F,1,2,85.0,9,3,high,2 + 1 + 9 - 4 + 6,14,16,15,14,2128.2676468999125,2130.290801599971,2131.8060321999947,2136.8241107999347,2138.960717699956,2138.960723199998,2140.4768478999613,2141.4940896999324,e,14.0,2.136606900021434,1,+10,406,0.6526388606629405,5.822880284118295,6.7905702069514975,2125737.0,-19.878858865499062,-0.04332332845320508,0.5406723758580574,2129270.0,,,,,2131.804169202951,2128.271169202951,
94,31,23,F,1,2,86.0,10,1,high,6 + 1 + 8 + 1 - 1,15,13,14,15,2143.0109584999736,2145.0357060999377,2146.550877199974,2151.568769500009,2152.392539699911,2152.3925450999523,2153.908896199893,2154.925843999954,e,15.0,0.8237701999023557,1,+10,416,-28.43486781856908,0.158052542179278,0.14652381997532316,2140481.0,-10.521787436084692,-0.24613064872435997,-0.2857142323259949,2144014.0,,,,,2146.548169202951,2143.0151692029513,
95,31,23,F,1,2,87.0,11,2,high,5 + 9 - 8 + 1 + 1,8,9,8,7,2156.442951699952,2158.470469999942,2159.98544989992,2165.0038643999724,2166.472492299974,2166.472497299896,2167.9889426999725,2169.0061334999045,w,8.0,1.468627900001593,1,+10,426,-7.224553742752631,-0.2547017405990797,-0.045053203349422866,2153916.0,-28.184233716226956,0.14799510610593902,-0.02528004470021017,2157449.0,,,,,2159.983169202951,2156.450169202951,
96,31,23,F,1,2,88.0,12,2,low,8 + 1 + 9 + 1 - 5,14,13,15,14,2170.5225123999408,2172.549860299914,2174.0651067999424,2179.0841063999105,2181.144523099996,2181.144528499921,2182.6606345999758,2183.6772645999445,e,14.0,2.060416700085625,1,+1,427,8.61272410774512,2.196267074895491,1.2659832937862432,2167995.0,-1.897274879220486,-1.6808011291891698,-1.2453551828898834,2171530.0,,,,,2174.0641692029512,2170.529169202951,
97,31,23,F,1,2,89.0,13,3,low,7 - 6 + 8 + 1 + 7,17,17,16,15,2185.194161599968,2187.2211058998946,2188.736278099939,2193.75465769996,2196.4164653999032,2196.416470099939,2197.9331310999114,2198.9502014999744,q,17.0,2.6618076999438927,1,+1,428,22.932287002850735,0.8237541497104992,1.228016983785103,2182666.0,29.71201810392315,0.4763645868536166,1.4489186415349755,2186200.0,,,,,2188.734169202951,2185.200169202951,
98,31,23,F,1,2,90.0,14,3,high,3 + 1 + 6 - 8 + 9,11,12,11,13,2200.466884900001,2202.489106999943,2204.004208299913,2209.022507699905,2210.0165310999146,2210.016535999952,2211.533017299953,2212.5501735999715,w,11.0,0.9940234000096098,1,+10,438,-11.86406602803796,0.3608254427639559,0.3541708594173054,2197935.0,-25.071533993743138,-2.7295512673407343,-5.857770076759136,2201469.0,,,,,2204.003169202951,2200.469169202951,
99,31,23,F,1,2,91.0,15,4,high,5 + 7 - 4 + 8 + 6,22,22,24,23,2214.066895499942,2216.088905099896,2217.6039930999978,2222.622332399944,2224.424596500001,2224.4246022999287,2225.9412436999846,2226.9589081999147,q,22.0,1.802264100057073,1,+10,448,20.694768193793593,-6.734769438106881,-3.2291988696552685,2211534.0,11.129700534517504,-0.48844126155563705,-0.1425770091444616,2215068.0,,,,,2217.6021692029512,2214.068169202951,
100,31,23,F,1,2,92.0,16,2,high,6 + 1 + 1 + 7 - 9,6,6,8,4,2228.4751777999336,2230.5032960999524,2232.018604899989,2237.036693999893,2238.4966320999665,2238.496637700009,2240.013008799986,2241.0302665999625,q,6.0,1.4599381000734866,1,+10,458,16.963279019373232,-0.10461456761717747,0.012439936021023668,2225948.0,4.352968528916621,0.4673698543783247,0.24391637696544777,2229482.0,,,,,2232.016169202951,2228.482169202951,
101,31,23,F,1,2,93.0,17,2,low,8 + 1 + 9 + 1 - 4,15,15,14,16,2242.547193199978,2244.574069499969,2246.089227899909,2251.107484999928,2252.328644399997,2252.32864959992,2253.845613399986,2254.862413099967,q,15.0,1.2211594000691548,1,+1,459,-1.584443368383461,0.5339097845774812,0.018251255471308347,2240019.0,4.568486172947528,0.02384566747823813,-0.08844820602897263,2243552.0,,,,,2246.086169202951,2242.553169202951,
102,31,23,F,1,2,94.0,18,2,high,4 + 1 + 9 + 1 - 6,9,9,8,7,2256.379118299926,2258.40462409996,2259.919819599949,2264.937725499971,2269.9545732999686,2269.9545758999884,2271.470553499996,2272.4894548999146,,,,0,Too Slow!,459,-3.386599529908173,1.2381363978112367,2.049232239778263,2253850.0,11.1093952883814,-0.2524401255053492,-0.2261468935868649,2257383.0,,,,,2259.917169202951,2256.384169202951,
103,31,23,F,1,2,95.0,19,2,high,9 + 5 - 6 + 1 - 1,8,8,7,9,2274.005810700008,2276.028426899924,2277.543497599894,2282.561901499983,2283.608688799897,2283.608694299939,2285.125681799953,2286.1428296999075,q,8.0,1.0467872999142855,1,+10,469,-12.18616196240578,-0.23146913040384653,-0.9681675959744838,2271473.0,-2.7020266449015935,-0.5046641599580668,-0.10894346004197564,2275006.0,,,,,2277.540169202951,2274.007169202951,
104,31,23,F,1,2,96.0,20,1,low,9 + 8 + 1 + 1 - 1,18,20,17,18,2287.659659099998,2289.683782699984,2291.198854899965,2296.2165571999503,2296.9687587999506,2296.96876399999,2298.485360499937,2299.502123699989,e,18.0,0.7522016000002623,1,+1,470,-15.302344053280757,-0.07489679862820475,-0.30697709968762,2285129.0,4.511821231746207,-0.2583971381097978,0.03199046289070684,2288662.0,,,,,2291.196169202951,2287.663169202951,
105,31,23,F,1,2,97.0,21,1,low,2 + 1 + 9 + 1 + 1,14,13,12,14,2301.018747899914,2303.043226999929,2304.5584291999694,2309.575811399962,2310.136641499936,2310.1366465999745,2311.6530861000065,2312.6694537999574,e,14.0,0.5608300999738276,1,+1,471,24.9278081827528,-0.013826711958797588,0.0740763573220955,2298487.0,-12.173923825000394,-0.23538997038885734,0.1030933650578838,2302021.0,,,,,2304.555169202951,2301.021169202951,
106,31,23,F,1,2,98.0,22,1,low,5 + 6 + 1 + 1 + 1,14,13,16,14,2314.186084899935,2316.2083743999247,2317.723997099907,2322.7430376999546,2323.64870209992,2323.64870739996,2325.166161899921,2326.182699900004,e,14.0,0.9056643999647348,1,+1,472,-14.198958685190616,0.5564996709235621,0.058920718561049856,2311653.0,-3.4595536542455667,0.9304823831662077,-0.012287334164894137,2315187.0,,,,,2317.721169202951,2314.187169202951,
107,31,23,F,1,2,99.0,23,2,low,7 + 1 + 9 - 1 - 8,8,7,6,8,2327.6991159999743,2329.726934699924,2331.2422328999965,2336.2668803998968,2337.176702399971,2337.1767074998934,2338.6932243999327,2339.710457799956,e,8.0,0.9098220000742004,1,+1,473,-21.380156531068927,-0.4425370151306831,0.02812582249488016,2325172.0,-18.05126405553118,-0.6032880744677005,-0.02505454138317642,2328711.0,,,,,2331.245169202951,2327.706169202951,
108,31,23,F,1,2,100.0,24,4,high,7 + 6 - 4 + 9 - 5,13,14,12,13,2341.227155499975,2343.255676299916,2344.771116299904,2349.804252199945,2350.4647222999483,2350.464727899991,2351.9808470999124,2352.998697699979,e,13.0,0.6604701000032946,1,+10,483,-11.838571274905199,0.24211460082152403,0.08964683423146647,2338700.0,-40.49566506786175,0.09017426287168995,0.1363537999834532,2342249.0,,,,,2344.783169202951,2341.234169202951,
109,31,23,F,1,2,101.0,25,2,low,9 + 6 + 1 + 7 + 1,24,24,23,25,2354.515377899981,2356.540982799954,2358.056131899939,2363.075573399896,2363.7846597000025,2363.7846645999234,2365.300850600004,2366.317159499973,q,24.0,0.7090863001067191,1,+1,484,-64.43989456204076,-17.965169295446756,-19.94640638765283,2351985.0,4.9812171209105784,4.0622156120411645,5.743554079715816,2355519.0,,,,,2358.053169202951,2354.519169202951,
110,31,23,F,1,2,102.0,26,2,high,8 + 1 + 4 - 7 + 1,7,7,5,6,2367.8344715998974,2369.8618689998984,2371.376755299978,2376.404708799906,2377.608632599935,2377.608637599973,2379.1251825999934,2380.1420265999623,q,7.0,1.2039238000288606,1,+10,494,13.32031545612381,-0.9452504455446751,-0.09647892327992191,2365306.0,27.865792136123837,0.7156549401392276,0.2854995792736401,2368849.0,,,,,2371.383169202951,2367.840169202951,
111,31,23,F,1,2,103.0,27,3,high,6 + 1 + 8 + 7 - 9,13,14,13,15,2381.6586313999724,2383.685261899954,2385.20045689994,2390.22071829997,2392.048718499951,2392.0487236999907,2393.565173699986,2394.582462099963,w,13.0,1.8280001999810336,1,+10,504,7.964866180429049,-0.3317614633774153,-0.08498350154612688,2379130.0,0.7012755646789477,-0.8110195315960937,-1.1501065362325753,2382665.0,,,,,2385.199169202951,2381.664169202951,
112,31,23,F,1,2,104.0,28,3,high,6 - 1 + 7 - 8 + 9,13,13,12,11,2396.100591199938,2398.12545079994,2399.640535899904,2404.658925399999,2405.384725099895,2405.384730099933,2406.901146399905,2407.918293799972,q,13.0,0.7257996998960152,1,+10,514,16.4699859082584,0.46916991906291283,0.2350768152283631,2393570.0,-18.941265399456103,-0.5700790681648882,-0.1152136725058952,2397103.0,,,,,2399.637169202951,2396.104169202951,
113,31,23,F,1,2,105.0,29,4,high,9 + 3 - 5 + 8 + 6,21,21,23,19,2409.435665600002,2411.4621772998944,2412.977429299965,2417.995535599999,2420.664708599914,2420.664714799961,2422.1818242999725,2423.1988577999878,w,23.0,2.669172999914736,0,+0,514,-2.5394138976952156,-0.9390983182409234,-0.5281392566785845,2406907.0,-36.63704199289288,-22.4738209323599,-39.74356402023091,2410440.0,,,,,2412.974169202951,2409.441169202951,
114,31,23,F,1,2,106.0,30,3,low,2 + 1 + 9 - 7 + 6,11,13,12,11,2424.715812499984,2426.7430858999724,2428.2581500000088,2433.27647859999,2434.064831799944,2434.0648373999866,2435.580831900006,2436.5981374999974,e,11.0,0.7883531999541447,1,+1,515,-3.4784944587649207,-2.251725650683853,-0.056650325923476075,2422187.0,10.935094071213905,-0.42939208960052255,-0.10625765341628224,2425721.0,,,,,2428.255169202951,2424.721169202951,
115,31,23,F,1,2,107.0,31,1,low,7 + 1 + 4 + 1 - 1,12,13,14,12,2438.1147252999945,2440.1413400999736,2441.6567976999795,2446.675039599999,2447.624805899919,2447.6248110999586,2449.1411501999246,2450.158224099898,e,12.0,0.9497662999201566,1,+1,516,-16.245793814181056,0.8866862739184467,0.06790981518629913,2435585.0,-3.5783224069658903,-0.2544986853259159,0.32226583924641505,2439119.0,,,,,2441.653169202951,2438.119169202951,
116,31,23,F,1,2,108.0,32,1,high,6 + 9 + 1 + 1 - 1,16,15,16,14,2451.6746661999496,2453.7005458999192,2455.2156759999925,2460.2344912999542,2461.000741799944,2461.000746999984,2462.517021699925,2463.5341576999053,w,16.0,0.7662504999898374,1,+10,526,-26.458314004956762,-1.5855373606394503,0.7891603454655649,2449144.0,1.8786542203859287,-3.32162611258235,-4.541385898564814,2452678.0,,,,,2455.212169202951,2451.678169202951,
117,31,23,F,1,2,109.0,33,4,high,3 + 8 - 5 + 9 - 7,8,8,6,7,2465.050581399933,2467.074044299894,2468.589042399893,2473.607691099984,2474.272713399958,2474.272718599997,2475.789243599982,2476.8063932999503,q,8.0,0.6650222999742255,1,+10,536,1.392802867823419,0.4182710381730015,0.576005994665818,2462518.0,-4.175168040363765,1.1253463496600573,0.34927925018738293,2466052.0,,,,,2468.586169202951,2465.052169202951,
118,31,23,F,1,2,110.0,34,1,high,6 + 9 + 1 + 1 - 1,16,15,16,14,2478.323110800004,2480.350248400005,2481.86537289992,2486.883344199974,2487.680790199898,2487.6807955999398,2489.197322999942,2490.214410899905,w,16.0,0.7974459999240935,1,+10,546,-20.912631213718015,0.506882168785141,-0.23104993851432098,2475793.0,-4.424577911923944,-0.059921142186812215,-0.47669523319808205,2479327.0,,,,,2481.8611692029513,2478.327169202951,
119,31,23,F,1,2,111.0,35,3,low,9 - 1 + 5 - 6 + 8,15,15,17,14,2491.731916499906,2493.758985499968,2495.274338999996,2500.308866499923,2501.400737399934,2501.400742399972,2502.917835799977,2503.9343758999603,q,15.0,1.09187090001069,1,+1,547,-21.96570228859393,-2.4743337933910543,-4.113311306288367,2489203.0,-7.5577025841294905,-0.38557559827152854,-0.36399615901203264,2492753.0,,,,,2495.287169202951,2491.737169202951,
120,31,23,F,1,2,112.0,36,1,low,2 + 1 + 9 + 1 - 1,12,13,12,11,2505.450761999935,2507.4770433999365,2508.9922332999995,2514.0105141999666,2514.952782999957,2514.952788399998,2516.469344299985,2517.4857677998957,w,12.0,0.9422687999904156,1,+1,548,-6.740725962739635,2.927107801684004,5.299310323621439,2502921.0,13.282559996141254,-0.9915965492718386,-2.3710079245025817,2506454.0,,,,,2508.988169202951,2505.455169202951,
121,31,23,F,1,2,113.0,37,4,high,6 + 7 + 9 - 3 + 5,24,22,24,23,2519.0021603999194,2521.0287933999207,2522.543927499908,2527.5638103999663,2528.6167997999582,2528.616804999998,2530.133233599947,2531.1504102000035,w,24.0,1.0529893999919295,1,+10,558,18.43101017214874,0.32718655320190715,-0.003721657468503947,2516472.0,5.158453665015724,-0.5568737418237908,-0.42381652874215114,2520007.0,,,,,2522.541169202951,2519.0061692029512,
122,31,23,F,1,3,114.0,0,2,low,4 + 9 - 7 + 1 - 1,6,5,6,8,2563.588774499949,2565.61500729993,2567.1301877999213,2572.1501879999414,2574.4168859999627,2574.416891400004,2575.9334784999955,2576.950292399968,w,6.0,2.266698000021279,1,+1,559,0.44119696525316243,1.7399822471339843,-1.0413366378415976,2561058.0,29.392602091247003,3.6788140056440284,2.4735538639249572,2564593.0,,,,,2567.127169202951,2563.592169202951,
123,31,23,F,1,3,115.0,1,1,low,2 + 1 + 9 + 1 - 1,12,11,12,13,2578.4669762999984,2580.4934019999346,2582.0093587999,2587.0276996999746,2587.792901599896,2587.792907199939,2589.309567799908,2590.326389999944,w,12.0,0.7652018999215215,1,+1,560,-56.03336144039093,0.7184226246515064,0.32269719686514153,2575937.0,12.394969532731546,-0.6687509344608804,-1.0088362321739526,2579471.0,,,,,2582.005169202951,2578.471169202951,
124,31,23,F,1,3,116.0,2,2,high,9 + 4 - 6 + 1 - 1,7,9,7,8,2591.843034599908,2593.86846519995,2595.38373599993,2600.401839499944,2604.552938299952,2604.5529439999955,2606.0691096999217,2607.0856850999407,w,7.0,4.151098800008185,1,+10,570,-29.762668071800867,0.22690474361647306,0.38934518266639273,2589312.0,30.237949207311132,-1.2638525430577099,-3.7921616492063785,2592845.0,,,,,2595.379169202951,2591.846169202951,
125,31,23,F,1,3,117.0,3,1,high,2 + 9 + 1 + 1 + 1,14,13,14,12,2608.6024263999425,2610.6288605999434,2612.1440492999973,2617.1622458999045,2617.9208472999744,2617.920852299896,2619.437122699921,2620.4542094999924,w,14.0,0.7586014000698924,1,+10,580,0.4705330286540135,-0.1392624101196267,-0.44097342651912586,2606071.0,2.249581995601943,0.006715361637612105,0.19750453085551145,2609605.0,,,,,2612.139169202951,2608.605169202951,
126,31,23,F,1,3,118.0,4,4,low,4 + 7 + 9 - 5 + 7,22,23,22,24,2621.970933899982,2623.9965437999927,2625.511441899929,2630.529637499945,2631.5289131999016,2631.528918399941,2633.045451699989,2634.062259499915,w,22.0,0.9992756999563426,1,+1,581,13.469202762953325,2.2803982077896503,6.081189236679728,2619440.0,-14.218074185197322,-0.6299918367718198,-0.11510781116524749,2622973.0,,,,,2625.507169202951,2621.974169202951,
127,31,23,F,1,3,119.0,5,1,low,7 - 1 + 9 + 1 - 1,15,15,13,14,2635.5785083000083,2637.603030600003,2639.118800099939,2644.13878509996,2645.2008516999194,2645.2008565999568,2646.717245299951,2647.7341168998973,q,15.0,1.0620665999595076,1,+1,582,-2.363660401028131,0.16385326339752337,-0.024699551111387663,2633046.0,3.130646558699304,0.0816937875444852,0.8345480572234316,2636582.0,,,,,2639.116169202951,2635.580169202951,
128,31,23,F,1,3,120.0,6,2,low,7 + 5 + 1 - 1 - 8,4,4,3,2,2649.25102039997,2651.278109099949,2652.792770299944,2657.811270799953,2659.424898999976,2659.424904499901,2660.9416080999654,2661.958033600007,q,4.0,1.6136282000225035,1,+1,583,1.4873803913354742,0.6726615062016799,0.28271168289757,2646721.0,-12.799461536808186,0.8036971230610366,-0.5132337754886303,2650254.0,,,,,2652.788169202951,2649.255169202951,
129,31,23,F,1,3,121.0,7,4,high,2 + 5 - 3 + 9 + 8,21,22,19,21,2663.474705899949,2665.500840099994,2667.015914699994,2672.034367199987,2673.632882499951,2673.6328881999943,2675.1492554999422,2676.1666580999736,e,21.0,1.5985152999637648,1,+10,593,15.737166994104548,0.400342438636899,0.8121466051746955,2660943.0,-3.2619905686798756,1.284814619521033,2.7388916418052567,2664477.0,,,,,2667.011169202951,2663.4771692029512,
130,31,23,F,1,3,122.0,8,2,low,4 + 7 + 1 + 1 - 8,5,4,5,7,2677.6834096999373,2679.7091432999587,2681.2240650999597,2686.243314099964,2689.696923099924,2689.696928499965,2691.213600799907,2692.230427799979,w,5.0,3.4536089999601245,1,+1,594,9.667824686510635,-0.38937791162017055,-2.028922532208518,2675152.0,-12.86387907995782,0.4054394249045039,-0.012091919748953739,2678686.0,,,,,2681.220169202951,2677.686169202951,
131,31,23,F,1,3,123.0,9,1,high,4 + 9 + 1 - 1 - 1,12,13,11,12,2693.747100099921,2695.771270899917,2697.286418000004,2702.3045701999217,2706.1690268999664,2706.1690329998964,2707.6856955999974,2708.702989799902,e,12.0,3.864456700044684,1,+10,604,-13.627967611355519,7.753210976950218,9.492380758094885,2691214.0,-32.43477451987437,-0.7319354456818328,-1.3397583586094672,2694747.0,,,,,2697.281169202951,2693.748169202951,
132,31,23,F,1,3,124.0,10,3,high,2 + 9 + 1 - 5 + 7,14,14,12,15,2710.219695399981,2712.244490199955,2713.7595709000016,2718.777929599979,2721.4009815999307,2721.400987299974,2722.917617399944,2723.934990299982,q,14.0,2.623051999951713,1,+10,614,-33.37051007829985,1.404494955350478,0.24666982895808243,2707687.0,5.4075739863993775,-0.021984578684500544,-0.8602522611754164,2711220.0,,,,,2713.754169202951,2710.221169202951,
133,31,23,F,1,3,125.0,11,1,low,8 + 1 + 5 + 1 + 1,16,15,16,17,2725.4517862999346,2727.477862300002,2728.993090999895,2734.0125608999515,2735.3930672999704,2735.3930724998936,2736.9095680000028,2737.9263439999195,w,16.0,1.3805064000189304,1,+1,615,-1.6556003727983608,1.9877906324597694,1.3013197286263596,2722920.0,-2.8729038890572496,0.6986193112167736,0.5626476834630059,2726454.0,,,,,2728.988169202951,2725.454169202951,
134,31,23,F,1,3,126.0,12,3,high,4 + 1 + 8 + 9 - 5,17,19,17,18,2739.442951899953,2741.470576899941,2742.9855102999136,2748.0033429999603,2748.921039699926,2748.921045199968,2750.4378811999923,2751.455237499904,w,17.0,0.9176966999657452,1,+10,625,-5.918973997521299,0.26629918791121554,0.1982469418070254,2736913.0,11.9829103445287,1.3817468172051326,0.3561718357345858,2740446.0,,,,,2742.980169202951,2739.447169202951,
135,31,23,F,1,3,127.0,13,3,low,5 + 6 - 4 - 1 + 8,14,14,15,16,2752.9725575000048,2754.996328199981,2756.5117842999757,2761.529740699916,2762.47329549992,2762.473300899961,2763.9899448999204,2765.006618799991,q,14.0,0.943554800003767,1,+1,626,-8.885093141961258,0.38386450761598123,0.3557923965580878,2750439.0,-3.5152842633898906,0.5161050448523943,2.590698273211252,2753972.0,,,,,2756.5061692029512,2752.973169202951,
136,31,23,F,1,3,128.0,14,1,low,8 + 1 + 1 + 1 - 4,7,5,8,7,2766.523571399972,2768.5492749999976,2770.0654027999844,2775.083586899913,2777.184965299908,2777.18497079995,2778.701557299937,2779.718244899996,e,7.0,2.101378399995156,1,+1,627,6.034093825384382,-0.06947663746901434,-0.6295734575506082,2763992.0,14.431512674148276,0.1126106170801231,-0.6144274093507538,2767526.0,,,,,2770.060169202951,2766.526169202951,
137,31,23,F,1,3,129.0,15,4,high,3 + 9 - 5 + 6 + 8,21,22,21,23,2781.2349118998973,2783.2608141999226,2784.776024999912,2789.794203899917,2790.473056699964,2790.473061900004,2791.9894007999683,2793.0064942999743,w,21.0,0.6788528000470251,1,+10,637,1.2984546589558246,-0.9805527322411671,0.4183956258071895,2778703.0,-8.422284221417682,3.273105873665736,4.347805877464371,2782236.0,,,,,2784.770169202951,2781.237169202951,
138,31,23,F,1,3,130.0,16,4,low,9 + 7 - 5 + 8 + 6,25,24,25,27,2794.5236236999044,2796.548441599938,2798.0632531999145,2803.083188499906,2804.0171027999604,2804.017108,2805.5336763999658,2806.550480999984,w,25.0,0.9339143000543118,1,+1,638,20.479467635299642,0.707441584392738,0.25026706643881225,2791990.0,11.113790950980643,-0.898786147311613,-0.4779478276366542,2795525.0,,,,,2798.059169202951,2794.524169202951,
139,31,23,F,1,3,131.0,17,4,high,5 + 7 - 4 + 6 + 9,23,23,24,25,2808.0671226999257,2810.0947216999484,2811.6098359999014,2816.675300200004,2817.481032599928,2817.481037499965,2818.9973168999422,2820.014665799914,q,23.0,0.8057323999237269,1,+10,648,0.06818935682072791,-0.6232727318547169,-0.26524088761878195,2805537.0,5.6848539916454435,-0.6873992895689987,-0.4540753940739459,2809117.0,,,,,2811.651169202951,2808.071169202951,
140,31,23,F,1,3,132.0,18,2,high,4 + 8 + 1 + 1 - 6,8,7,8,9,2821.5314590999624,2823.5595153999748,2825.0840961999493,2830.102560399915,2830.8011288999114,2830.8011342999525,2832.3174753999338,2833.33420339995,w,8.0,0.6985684999963269,1,+10,658,17.547961309139055,-9.818681477904999,-2.0601290596376236,2819001.0,10.936994829669853,-0.34019078850429096,-0.04656376219753966,2822544.0,,,,,2825.078169202951,2821.5351692029512,
141,31,23,F,1,3,133.0,19,1,low,6 + 9 + 1 + 1 - 1,16,16,15,14,2834.850771899917,2836.876378399902,2838.392011299962,2843.4102271999,2844.433121399954,2844.433126499993,2845.949555099942,2846.966228300007,q,16.0,1.0228942000539971,1,+1,659,12.163829793778179,0.8749922086404265,-0.08165664806201711,2832318.0,-6.655605977589984,-0.36482518273565434,-0.09066845461022899,2835852.0,,,,,2838.386169202951,2834.8521692029512,
142,31,23,F,1,3,134.0,20,4,low,5 + 7 - 4 - 6 + 9,11,12,13,11,2848.482843799982,2850.508381299908,2852.023517699912,2857.0421088999137,2857.6976743999403,2857.6976804999867,2859.214434499969,2860.231213599909,e,11.0,0.6555655000265688,1,+1,660,11.592863711926256,-1.029773601145445,0.23082051018550853,2845950.0,27.7168453929235,-0.23145166479270207,0.03755536437522444,2849484.0,,,,,2852.018169202951,2848.484169202951,
143,31,23,F,1,3,135.0,21,3,high,4 + 5 - 3 + 7 - 1,12,11,12,13,2861.7483350998955,2863.7744172998937,2865.290079199942,2870.3081471999176,2871.121220499976,2871.1212254998973,2872.6376122999936,2873.654724999913,w,12.0,0.8130733000580221,1,+10,670,-3.5305651971823515,0.18434800415089114,-0.15851294931143256,2859216.0,16.98737658953898,-0.5304212979028189,-0.4610011495156172,2862750.0,,,,,2865.284169202951,2861.750169202951,
144,31,23,F,1,3,136.0,22,3,high,5 + 1 + 7 - 8 + 6,11,13,11,9,2875.171164399944,2877.195181399933,2878.7101695999736,2883.7288164999336,2886.377155299997,2886.3771603999194,2887.893624499906,2888.910495999968,w,11.0,2.6483388000633568,1,+10,680,-5.993285557799644,3.1639355069522206,3.1502979677528034,2872637.0,-18.556618011575434,-0.1122146858880404,-0.17996539693098157,2876170.0,,,,,2878.704169202951,2875.171169202951,
145,31,23,F,1,3,137.0,23,2,high,5 + 7 - 8 + 1 + 1,6,7,8,6,2890.4271095999284,2892.455526000005,2893.9706704999558,2898.9891373999417,2899.7210967999417,2899.721101899981,2901.2373967999592,2902.254826099961,e,6.0,0.7319594000000507,1,+10,690,-27.80265935545134,0.4155659493059063,-0.15082514611466502,2887897.0,-4.535096888839233,-0.09769107505343344,0.5352290605219459,2891431.0,,,,,2893.965169202951,2890.431169202951,
146,31,23,F,1,3,138.0,24,1,high,9 + 7 + 1 + 1 + 1,19,19,20,18,2903.7715375999687,2905.7993367000017,2907.314066199935,2912.331911199959,2913.2971725999378,2913.2971777999774,2914.8136564999586,2915.830683499924,q,19.0,0.9652613999787718,1,+10,700,36.96256995017845,0.6610217462814636,0.34683964678192214,2901241.0,-0.5291063460139078,-0.2184625921562735,-0.13948453671329064,2904773.0,,,,,2907.307169202951,2903.775169202951,
147,31,23,F,1,3,139.0,25,1,low,7 + 1 + 5 + 1 - 1,13,12,13,14,2917.3485319999745,2919.373998199939,2920.888849299983,2925.907494099927,2926.6331011999864,2926.6331059999065,2928.149585399893,2929.213622399955,w,13.0,0.7256071000592783,1,+1,701,19.350848574627435,-1.5889092837786354,-2.8469611453576382,2914816.0,50.86972987175133,0.19442180572897705,0.5154257388856918,2918348.0,,,,,2920.882169202951,2917.350169202951,
148,31,23,F,1,3,140.0,26,2,low,6 + 1 + 7 + 5 - 1,18,18,16,17,2930.730605699937,2932.755670399987,2934.270805999986,2939.2891237000003,2940.129203299992,2940.129208599916,2941.6460249999072,2942.662680899957,q,18.0,0.8400795999914408,1,+1,702,35.54807220235379,-0.2255576535216699,-6.989260936808902,2928197.0,-1.0727284985195382,-15.768329279788325,-21.476079224734487,2931730.0,,,,,2934.264169202951,2930.731169202951,
149,31,23,F,1,3,141.0,27,3,low,8 + 6 - 7 + 1 - 4,4,4,5,3,2944.1794576999964,2946.207324799965,2947.7224887999478,2952.740585799911,2953.513193599996,2953.51319879992,2955.030270099989,2956.0479167999,q,4.0,0.7726078000850976,1,+1,703,3.3100072267239327,-0.6366430119412234,0.0377353601932926,2941649.0,-3.1246730303140353,-1.059030642293941,-0.13519134117189235,2945182.0,,,,,2947.716169202951,2944.183169202951,
150,31,23,F,1,3,142.0,28,4,low,5 + 8 - 4 - 6 + 9,12,13,14,12,2957.5645081999246,2959.590394699946,2961.105593999964,2966.1236191999637,2966.9851046999684,2966.9851096000057,2968.5015685999533,2969.518660499947,e,12.0,0.8614855000050738,1,+1,704,13.00567245499737,0.17370003943744283,0.27063385128128425,2955031.0,2.1950308880214244,-0.07114304151768325,-0.08396830972498126,2958565.0,,,,,2961.099169202951,2957.565169202951,
151,31,23,F,1,3,143.0,29,3,low,5 + 6 - 4 - 1 + 7,13,14,13,15,2971.035539299948,2973.0613627999555,2974.5763398999115,2979.594844499952,2980.3291686999146,2980.3291736999527,2981.845556599903,2982.862235799897,w,13.0,0.7343241999624297,1,+1,705,-32.79894434627976,0.6139076664824232,0.1224139091713734,2968502.0,28.82913568329277,-0.5398865881653712,-0.05971982235004569,2972036.0,,,,,2974.570169202951,2971.036169202951,
152,31,23,F,1,3,144.0,30,1,high,3 + 1 + 9 + 1 + 1,15,14,15,17,2984.3789520999417,2986.402136699995,2987.917247699923,2992.935432499973,2993.7933009999106,2993.793306399952,2995.309965299908,2996.327027799911,w,15.0,0.8578684999374673,1,+10,715,-32.74368421949391,0.38420000429246803,2.5340185788419927,2981843.0,2.723306160782922,0.04150830757015278,-0.4654869252744085,2985376.0,,,,,2987.9101692029512,2984.377169202951,
153,31,23,F,1,3,145.0,31,3,low,7 + 1 + 9 + 5 - 6,16,15,16,14,2997.8436957999365,2999.8701229,3001.3853826998966,3006.403566999943,3008.977143099997,3008.9771478999173,3010.493603799958,3011.5104127000086,w,16.0,2.573576100054197,1,+1,716,1.7450497553077096,0.3115402592296683,0.12169791786133444,2995311.0,1.3278811584405936,-0.09418889084805793,-0.26695932709705517,2998845.0,,,,,3001.379169202951,2997.845169202951,
154,31,23,F,1,3,146.0,32,3,low,8 + 3 + 1 - 7 + 9,14,12,15,14,3013.027592199971,3015.052080399939,3016.567260999931,3021.5856881999644,3023.6013092999347,3023.601314399973,3025.117755099898,3026.134194299928,e,14.0,2.0156210999703035,1,+1,717,-28.558520996094256,-0.01707477534267987,-0.262874112217256,3010493.0,-12.647308339390488,-0.7192917788174116,0.1278027273956186,3014026.0,,,,,3016.560169202951,3013.027169202951,
155,31,23,F,1,3,147.0,33,4,low,7 + 6 - 9 + 8 - 3,9,9,8,7,3027.651006400003,3029.678315399913,3031.193096200004,3036.21183159994,3039.521294999984,3039.5212999999058,3041.038300099899,3042.0546022999333,q,9.0,3.3094634000444785,1,+1,718,10.736993743405515,-0.3652966870912673,0.4183144090407298,3025119.0,-6.628240574301582,-0.5069334123288485,-0.036835116011764146,3028652.0,,,,,3031.186169202951,3027.653169202951,
156,31,23,F,1,3,148.0,34,3,low,4 + 8 - 9 + 1 + 7,11,9,11,13,3043.5710293999878,3045.596407699981,3047.111478899955,3052.129779299954,3054.5932432999834,3054.5932531999424,3056.109653799911,3057.1263873999706,w,11.0,2.4634640000294894,1,+1,719,-25.50111317480693,1.3281961699979297,0.44279884477026576,3041037.0,-13.138522450607304,4.598383930350764,8.517312230951626,3044570.0,,,,,3047.104169202951,3043.571169202951,
157,31,23,F,1,3,149.0,35,2,low,5 + 1 + 7 - 6 + 1,8,8,7,6,3058.6439741000067,3060.6701016000006,3062.185138199944,3067.203711699927,3068.0812386999605,3068.081243499997,3069.5975893998984,3070.614317499916,q,8.0,0.8775270000332966,1,+1,720,1.4833071484114377,-0.9326244146632003,-0.39696353232149373,3056111.0,16.93539113729675,-0.533020273240143,-0.10841400247156852,3059644.0,,,,,3062.178169202951,3058.645169202951,
158,31,23,F,1,3,150.0,36,3,high,7 - 1 + 8 - 6 + 4,12,13,12,11,3072.1310422999086,3074.156695399899,3075.6717678999994,3080.690325199976,3081.3532631999115,3081.353268399951,3082.870545999962,3083.887768699904,w,12.0,0.6629379999358207,1,+10,730,-30.37446230063299,-0.467206334436125,-0.6778691239545998,3069597.0,-8.254278369330464,-0.27197631813144163,-0.1510680428338338,3073131.0,,,,,3075.665169202951,3072.1311692029512,
159,31,23,F,1,3,151.0,37,4,low,5 + 9 - 4 + 7 + 6,23,25,24,23,3085.404444499989,3087.429528699955,3088.944676199928,3093.963008599938,3094.6492131999694,3094.649218000006,3096.165564499912,3097.1828127999324,e,23.0,0.6862046000314876,1,+1,731,-8.46337090197217,0.13090361719027355,-1.1227720262422785,3082870.0,-1.5201498433793397,0.22971387820395428,0.11120456895281183,3086403.0,,,,,3088.937169202951,3085.404169202951,
160,31,23,F,1,4,152.0,0,3,high,5 + 6 + 7 - 1 - 9,8,8,9,7,3164.6617374999914,3166.6876446999377,3168.202753499965,3173.222803099896,3178.239852999919,3178.23985569994,3179.756365799927,3180.77469589992,,,,0,Too Slow!,731,-16.308061792271104,-0.27864969068745493,-0.9197218599651595,3162128.0,-24.829249152259937,0.1650950590000635,-0.8982136967693837,3165663.0,,,,,3168.197169202951,3164.662169202951,
161,31,23,F,1,4,153.0,1,4,low,4 + 7 + 8 - 3 + 9,25,25,24,26,3182.2919673,3184.315852599917,3185.8309782999568,3190.849677899969,3191.665420699981,3191.6654262999077,3193.1821433999576,3194.198684599949,q,25.0,0.8157428000122309,1,+1,732,-5.784729626258447,-1.2659321731573843,0.49367121691253146,3179756.0,4.1533710573771785,1.3208260843646595,2.20277291327875,3183289.0,,,,,3185.8231692029512,3182.290169202951,
162,31,23,F,1,4,154.0,2,2,high,6 + 1 + 8 + 7 - 1,21,23,19,21,3195.71525369992,3197.7396879999437,3199.254741899902,3204.2728482999373,3205.657381600002,3205.657387299929,3207.173730499926,3208.190809999942,e,21.0,1.384533300064504,1,+10,742,4.59089670341454,-0.015546483257332433,-0.02852284089908963,3193180.0,-40.5358207933336,-0.07406519598353034,0.04912644710329861,3196713.0,,,,,3199.247169202951,3195.714169202951,
163,31,23,F,1,4,155.0,3,1,high,8 + 1 + 1 + 1 - 3,8,6,9,8,3209.707576499902,3211.733362399973,3213.2486164999427,3218.267784899916,3219.217361899908,3219.2173666999443,3220.733284499962,3221.750474200002,e,8.0,0.9495769999921322,1,+10,752,2.619413199863777,-0.21486637429555921,0.21991082971219322,3207173.0,-7.035547540491414,-0.15996986427329363,-0.14372263180087197,3210707.0,,,,,3213.241169202951,3209.707169202951,
164,31,23,F,1,4,156.0,4,4,high,8 + 4 + 7 - 5 - 6,8,8,7,9,3223.2670938000083,3225.2916240999475,3226.806744799949,3231.825985000003,3232.633466199972,3232.6334715998964,3234.149728899938,3235.166662799893,q,8.0,0.8074811999686062,1,+10,762,-6.2332286826617995,-0.31316028337375945,-0.034581716779174876,3220731.0,38.150677036432654,-0.12570012053110213,-0.08993934301777307,3224265.0,,,,,3226.799169202951,3223.2651692029513,
165,31,23,F,1,4,157.0,5,2,high,4 + 9 + 1 - 7 - 1,6,6,8,5,3236.683449899894,3238.709897599998,3240.225009799935,3245.243377899984,3246.065465099993,3246.0654718999285,3247.581988499965,3248.5992129999213,q,6.0,0.822087200009264,1,+10,772,6.771825175318341,-0.021818219057681,1.0446893134070558,3234149.0,1.4084321433198337,-0.10568324274399199,-0.060966126259929254,3237683.0,,,,,3240.217169202951,3236.683169202951,
166,31,23,F,1,4,158.0,6,2,high,6 + 1 + 1 + 7 - 9,6,6,8,4,3250.6485743999947,3252.672774299979,3254.187916399911,3259.206248099916,3259.8734089999925,3259.873414399917,3261.389740799903,3262.426473999978,q,6.0,0.6671609000768512,1,+10,782,4.019725674618524,-0.2809665795762104,0.0005602851476194104,3248112.0,-11.731833661260348,-4.6004048873570635,-0.7952551038744229,3251646.0,,,,,3254.180169202951,3250.646169202951,
167,31,23,F,1,4,159.0,7,3,high,4 + 7 - 3 + 5 - 1,12,12,11,13,3263.9428608999588,3265.9686937999213,3267.483844799921,3272.502502799965,3273.241582299932,3273.24158729997,3274.7583858999424,3275.7759588999907,q,12.0,0.7390794999664649,1,+10,792,13.704567201839263,-3.203420607932832,-4.727494548145048,3261408.0,-17.979308689684075,1.6159794897437942,0.7164111900140702,3264942.0,,,,,3267.476169202951,3263.942169202951,
168,31,23,F,1,4,160.0,8,3,high,3 - 7 + 5 + 1 + 9,11,11,12,13,3277.293425799929,3279.317202099948,3280.8317902999697,3285.8503540999955,3286.7054487999994,3286.7054544999264,3288.2217455999926,3289.239080899977,q,11.0,0.8550947000039741,1,+10,802,22.452819467339637,0.4036361283378396,-0.053970129157979496,3274757.0,3.044667208062843,0.5628273449407613,0.5624797187699069,3278290.0,,,,,3280.824169202951,3277.291169202951,
169,31,23,F,1,4,161.0,9,4,low,7 + 6 - 9 + 8 - 3,9,9,8,7,3290.755693999934,3292.782259,3294.297330699977,3299.315732399933,3301.35350889992,3301.3535143999616,3302.870409199968,3303.88743969996,e,7.0,2.037776499986649,0,+0,802,14.944303978931062,2.134055883472236,5.209377627551775,3288221.0,5.952524066619288,-0.5295202066155875,0.41098266633211367,3291755.0,,,,,3294.289169202951,3290.755169202951,
170,31,23,F,1,4,162.0,10,3,low,8 + 5 + 1 - 7 + 9,16,14,17,16,3305.404038199922,3307.4314441999886,3308.946602599928,3313.96499639994,3314.59349879995,3314.593504199991,3316.110612299992,3317.1275015999563,e,16.0,0.6285024000098929,1,+1,803,1.2537056097300487,0.9899355245236539,-0.0365362362574575,3302871.0,4.5568340741777895,-0.5432060898528848,-0.752007389534441,3306404.0,,,,,3308.938169202951,3305.405169202951,
171,31,23,F,1,4,163.0,11,1,high,7 - 1 + 1 + 9 - 1,15,13,14,15,3318.6442832999164,3320.6664165999973,3322.181597499992,3327.2002657999983,3327.793561999919,3327.79356739996,3329.310121999937,3330.32727359992,e,15.0,0.5932961999205872,1,+10,813,6.783560157966553,0.04039183146826941,-0.3167343035825172,3316105.0,-47.73670443203557,0.8733958591572448,0.9428141524662279,3319639.0,,,,,3322.173169202951,3318.639169202951,
172,31,23,F,1,4,164.0,12,3,low,9 + 3 - 4 + 6 + 7,21,22,23,21,3331.844084499986,3333.8659297999693,3335.381067599985,3340.3995272999164,3341.345509499893,3341.3455149999354,3342.86207189993,3343.878714999999,e,21.0,0.945982199977152,1,+1,814,0.9241122325911064,4.479613047607817,6.1815455542556865,3329306.0,22.8242787768905,-7.992718489340522,-5.554796593452946,3332838.0,,,,,3335.372169202951,3331.840169202951,
173,31,23,F,1,4,165.0,13,4,low,6 + 9 - 7 + 8 - 5,11,13,12,11,3345.395066899946,3347.4214978999225,3348.9365674,3353.955070499913,3355.681538500008,3355.6815440999344,3357.197757499991,3358.214522699942,e,11.0,1.7264680000953376,1,+1,815,15.816969407266464,-2.8006908552254464,-4.66080724296129,3342860.0,-1.363180404525255,0.22458754039272932,-0.2677865585284085,3346394.0,,,,,3348.928169202951,3345.394169202951,
174,31,23,F,1,4,166.0,14,1,high,7 + 1 + 4 + 1 - 1,12,12,11,13,3359.7309206000064,3361.757489199983,3363.272477499908,3368.290516399895,3369.1695665000007,3369.169571599923,3370.6859582999023,3371.704049599939,q,12.0,0.8790501001058146,1,+10,825,-2.757952074673245,-0.1386690657973011,0.6287687978051437,3357196.0,-13.739206386019259,-0.1284349359293846,-0.7977002665487412,3360730.0,,,,,3363.264169202951,3359.730169202951,
175,31,23,F,1,4,167.0,15,3,high,4 + 1 + 8 + 9 - 5,17,18,17,19,3373.220720399986,3375.2443433000008,3376.7595130999107,3381.7774875999894,3382.4575720999856,3382.4575772999087,3383.98351359996,3385.0166056999005,w,17.0,0.6800844999961555,1,+10,835,-9.90236519499675,-0.1613984352469049,0.2644662911711042,3370684.0,15.550809846165853,-0.04981661210806987,0.09654482740973247,3374217.0,,,,,3376.751169202951,3373.2181692029512,
176,31,23,F,1,4,168.0,16,1,high,5 + 6 + 1 + 1 + 1,14,14,16,15,3386.533322399948,3388.559844399919,3390.074947799905,3395.0925849999767,3395.929511299939,3395.9295163999777,3397.445752699976,3398.462732499931,q,14.0,0.8369262999622151,1,+10,845,-11.252480301833042,0.2727688392004275,-0.07856442746565273,3383999.0,-8.213740089265968,-0.05844234448340613,0.13788144883809483,3387531.0,,,,,3390.065169202951,3386.533169202951,
177,31,23,F,1,4,169.0,17,2,low,6 + 1 + 1 + 8 - 9,7,5,7,9,3399.979702999932,3402.006858699955,3403.5220199999167,3408.540372999967,3413.0656170999864,3413.0656222999096,3414.5827833999647,3415.5996609999565,w,7.0,4.525244100019336,1,+1,846,3.782346668027907,0.15331307763688606,0.14874282258862737,3397445.0,14.820425747381798,-0.7500213182554001,-0.6834186088070822,3400979.0,,,,,3403.513169202951,3399.979169202951,
178,31,23,F,1,4,170.0,18,3,high,3 + 8 + 1 + 5 - 9,8,8,7,9,3417.1163992999354,3419.141925700009,3420.657339899917,3425.675086300005,3427.3775223999983,3427.377527799923,3428.893959499896,3429.911130399909,w,7.0,1.702436099993065,0,+0,846,6.2688697035809655,0.3123895559868264,0.9886108225965811,3414580.0,4.4299628631072165,-2.702742847347218,-1.7659039859585457,3418114.0,,,,,3420.648169202951,3417.114169202951,
179,31,23,F,1,4,171.0,19,3,low,6 + 8 + 7 + 1 - 9,13,15,13,14,3431.4278409999097,3433.4519757999806,3434.967123999959,3439.9855865999125,3440.5856148999883,3440.58561989991,3442.102213899954,3443.1190878999187,w,13.0,0.6000283000757918,1,+1,847,23.442370755440187,1.6257555813985167,2.3296859609470264,3428890.0,16.25226016284816,-1.1161773332344307,0.6673169194647306,3432424.0,,,,,3434.958169202951,3431.424169202951,
180,31,23,F,1,4,172.0,20,3,low,6 - 1 + 7 - 8 + 9,13,11,12,13,3444.6359525999287,3446.6628047999693,3448.1785593999084,3453.196658700006,3453.905614499934,3453.9056196999736,3455.422970899963,3456.439789199969,e,13.0,0.708955799927935,1,+1,848,-1.1849564334691074,-0.6437718094823373,0.3915451753046204,3442101.0,-6.570474489431261,-0.10514528979522897,-0.13001164691519307,3445635.0,,,,,3448.1691692029513,3444.635169202951,
181,31,23,F,1,4,173.0,21,4,high,8 + 4 + 7 - 5 - 6,8,6,9,8,3457.956230299897,3459.981941299978,3461.4972409999464,3466.51713329996,3467.19363949995,3467.1936447999906,3468.710022199899,3469.727122599957,e,8.0,0.6765061999903992,1,+10,858,44.44471378514018,-1.5283077599632904,-1.78873655437161,3455420.0,13.618097238704326,-0.6539148503015291,-4.1987312005847715,3458955.0,,,,,3461.489169202951,3457.954169202951,
182,31,23,F,1,4,174.0,22,2,low,4 + 9 - 7 + 1 - 1,6,5,6,8,3471.2433888999512,3473.268351699924,3474.7834974,3479.8021252999315,3480.457597199944,3480.457602199982,3481.9738613999216,3482.9907485999865,w,6.0,0.6554719000123441,1,+1,859,2.8140310351907907,3.689701863302817,10.331605131845219,3468707.0,12.496512203692351,-0.49372873190469235,-2.0195605355027846,3472240.0,,,,,3474.774169202951,3471.241169202951,
183,31,23,F,1,4,175.0,23,2,low,3 + 1 + 8 - 5 - 1,6,5,7,6,3484.507434699917,3486.529583700001,3488.044697299949,3493.062861299957,3493.945604999899,3493.9456102999397,3495.462254199898,3496.479510299978,e,6.0,0.8827436999417841,1,+1,860,27.718826565902535,-0.1696669880217967,-0.16648048153728556,3481968.0,-2.3558969370498932,0.03221219586156332,-0.11255419474724304,3485501.0,,,,,3488.0351692029512,3484.502169202951,
184,31,23,F,1,4,176.0,24,3,high,7 - 5 + 9 + 1 - 4,8,9,7,8,3497.9961685999297,3500.018758399994,3501.533947799937,3506.5521277999505,3507.1936972999247,3507.193702699966,3508.710253499914,3509.7274501000065,e,8.0,0.641569499974139,1,+10,870,-7.835089136462514,-0.470543041884639,-2.919801307113814,3495457.0,28.42295357908639,-0.15453417638193834,-0.45796844403508175,3498990.0,,,,,3501.524169202951,3497.991169202951,
185,31,23,F,1,4,177.0,25,2,low,9 + 4 + 5 + 1 - 1,18,19,18,17,3511.24400419998,3513.272215899895,3514.7873416999355,3519.805123099941,3520.6176003,3520.617606099928,3522.1338368,3523.150524299941,w,18.0,0.8124772000592202,1,+1,871,-17.855890120202467,0.023401508478742894,-1.3488439531329304,3508710.0,-17.240786210038994,-0.25087451587208065,-0.3584049830555176,3512243.0,,,,,3514.777169202951,3511.244169202951,
186,31,23,F,1,4,178.0,26,2,low,2 + 1 + 9 - 4 + 1,9,9,11,8,3524.667119899997,3526.690526899998,3528.205405299901,3533.2260030999314,3533.817635899992,3533.8176407999126,3535.33365419996,3536.350453299936,q,9.0,0.5916328000603244,1,+1,872,-21.640124432220002,-0.08617846131170781,-0.37997977944382466,3522128.0,23.246867273555694,-0.4752431544160949,-0.2934748996454397,3525663.0,,,,,3528.197169202951,3524.662169202951,
187,31,23,F,1,4,179.0,27,4,high,9 + 4 - 6 + 8 + 7,22,21,24,22,3537.867416699999,3539.8912174999714,3541.406074099941,3546.42443819996,3551.441901699989,3551.441904300009,3552.9584259999683,3553.976647599949,,,,0,Too Slow!,872,2.799023142141742,-10.178135670595136,-6.769673800785046,3535329.0,20.624436172649197,-9.652082772574687,-8.430494453198921,3538862.0,,,,,3541.396169202951,3537.863169202951,
188,31,23,F,1,4,180.0,28,4,high,8 + 5 - 4 + 7 + 9,25,24,26,25,3555.4933934999863,3557.5164847999117,3559.0316368999192,3564.050176299992,3564.8097417999525,3564.809746999992,3566.326157699921,3567.343736199895,e,25.0,0.7595654999604449,1,+10,882,-14.523086700296743,0.32981147407001776,0.0034618435886364374,3552954.0,6.392235852250289,0.5317249803476827,1.4749832115490142,3556488.0,,,,,3559.022169202951,3555.488169202951,
189,31,23,F,1,4,181.0,29,1,high,8 + 1 + 4 + 1 + 1,15,14,16,15,3568.8604778999,3570.88388139999,3572.399104299955,3577.4167313999496,3578.1456323999446,3578.1456374999834,3579.661957699922,3580.679200799903,e,15.0,0.7289009999949485,1,+10,892,19.07176672199736,-4.037222443786772,-7.585919125944882,3566322.0,1.6681930374733702,0.20709671086976122,-0.7930625452305451,3569855.0,,,,,3572.389169202951,3568.856169202951,
190,31,23,F,1,4,182.0,30,4,low,9 + 8 - 5 - 7 + 6,11,13,11,10,3582.1963092999067,3584.219738399959,3585.735034299898,3590.753432999947,3591.841837899992,3591.841843199916,3593.3580013999017,3594.3744804000016,w,11.0,1.088404900045134,1,+1,893,-6.132346006181606,-1.0859305889841524,-3.370900917721287,3579658.0,3.0470213146304115,3.5450980213762016,8.728292039070539,3583191.0,,,,,3585.725169202951,3582.192169202951,
191,31,23,F,1,4,183.0,31,4,low,4 + 9 - 7 + 8 + 5,19,20,21,19,3595.8915356999496,3597.9139396999963,3599.429977199994,3604.447971099988,3605.345767299994,3605.345772499917,3606.862042799941,3607.878964799922,e,19.0,0.8977962000062689,1,+1,894,8.60282264502021,0.4282430216796689,1.4566079996633183,3593352.0,7.100356487734837,0.17085863874059593,0.7371557294234021,3596886.0,,,,,3599.420169202951,3595.886169202951,
192,31,23,F,1,4,184.0,32,4,low,8 + 3 - 4 + 5 + 9,21,22,21,23,3609.395643299911,3611.418779999949,3612.93389799993,3617.953094600002,3618.6977791999234,3618.697784499964,3620.214613299933,3621.231364499894,w,21.0,0.7446845999220386,1,+1,895,13.72020895031574,0.284852350467935,0.49016629697364866,3606856.0,22.621639233538495,-0.09148398832259863,-0.18775563963445663,3610391.0,,,,,3612.925169202951,3609.3901692029513,
193,31,23,F,1,4,185.0,33,4,high,5 + 7 - 4 - 6 + 9,11,12,11,13,3622.748042499996,3624.774815699901,3626.2902501999633,3631.308771199896,3631.937811099924,3631.937816399965,3633.4541055999,3634.471191699966,w,11.0,0.6290399000281468,1,+10,905,6.542700902699382,3.8743348489196086,10.022506384588931,3620212.0,7.188855633169755,-0.7139472834897815,-0.4411299166340479,3623746.0,,,,,3626.280169202951,3622.746169202951,
194,31,23,F,1,4,186.0,34,1,high,5 + 1 + 1 + 9 + 1,17,19,17,16,3635.98833819991,3638.013076699921,3639.528205399984,3644.545681999996,3645.2497693999903,3645.249774899916,3646.7661672999375,3647.783409699914,w,17.0,0.7040873999940231,1,+10,915,6.753024342193017,-0.19660954456242097,-3.934746562156908,3633451.0,12.870906309457698,1.1948285614857408,-0.8107931898903002,3636983.0,,,,,3639.517169202951,3635.985169202951,
195,31,23,F,1,4,187.0,35,2,high,3 + 8 - 5 + 1 + 1,8,9,8,6,3649.299829099909,3651.324825699907,3652.839910499984,3657.858005499933,3658.929857999901,3658.9298632999416,3660.4462423999794,3661.4634823999368,w,8.0,1.0718524999683725,1,+10,925,6.8154939191826145,-0.6079377631609573,-0.42245333476065383,3646762.0,0.2557716894403441,0.5065197732558313,0.6757059336462992,3650295.0,,,,,3652.829169202951,3649.296169202951,
196,31,23,F,1,4,188.0,36,3,low,3 + 8 - 7 - 1 + 9,12,12,14,13,3662.9802995999344,3665.005966899917,3666.520853199996,3671.541464099893,3672.497830299893,3672.497835499933,3674.014322699979,3675.031098899897,q,12.0,0.9563662000000476,1,+1,926,-32.91448318610074,-10.69337258250393,0.1483206161375037,3660444.0,-16.046137167656354,-0.3131595709291428,-0.12496907138789748,3663978.0,,,,,3666.512169202951,3662.978169202951,
197,31,23,F,1,4,189.0,37,1,low,9 + 1 + 1 + 7 - 1,17,16,19,17,3676.547267899965,3678.574476199923,3680.089570299955,3685.108397899894,3686.145764599904,3686.145769499941,3687.662177299964,3688.678956599906,e,17.0,1.0373667000094429,1,+1,927,7.591706748709125,0.010827109006877222,-0.40441684349687157,3674012.0,-13.384462358006537,-0.21536842216551655,-0.06099572252326069,3677545.0,,,,,3680.079169202951,3676.546169202951,
198,31,23,F,1,5,190.0,0,4,low,6 + 9 + 7 - 3 - 5,14,13,12,14,3792.4466940999264,3794.4742088000057,3795.9893589999992,3801.009488399955,3802.7778779999353,3802.777882999973,3804.2953299999936,3805.312438199995,q,13.0,1.7683895999798551,0,+0,927,-15.802543662043693,-0.21375747740652606,0.07637556340080587,3789911.0,51.84002219289599,-3.5887640986979195,-0.06548891987328509,3793446.0,,,,,3795.980169202951,3792.445169202951,
199,31,23,F,1,5,191.0,1,3,low,6 - 1 + 7 - 8 + 9,13,11,12,13,3806.829245099914,3808.85649019992,3810.371649699984,3815.3898064999375,3816.0338480999926,3816.033853199915,3817.550479999976,3818.5671720999526,e,13.0,0.6440416000550613,1,+1,928,-23.362270079712516,1.580165004962542,0.7185640211170068,3804293.0,23.855043905516297,-0.21636212857504145,0.03335389287289803,3807827.0,,,,,3810.3611692029513,3806.827169202951,
