,id,age,sex,cued,block,trial,trialinblock,efflev,rewlev,calc,corAns,option1,option2,option3,tstart,ITI1Time,probTime,respTime,selectTime,ITI2Time,fbTime,ITI3Time,key_press,chosenAns,RT,acc,feedback,total_points,cuescr,cuecor,cuezyg,cuetime,probscr,probcor,probzyg,probtime,fbscr,fbcor,fbzyg,fbtime,probtime_c,cuetime_c,fbtime_c
0,32,23,f,0,Practice,,0,1,0,4 + 1 + 9 + 1 + 1,16,14,16,15,99.5975310000358,,99.5975331000518,104.8375220000744,109.44987140002196,109.44987780007068,110.9672841000138,111.98953630006872,w,16.0,4.612349399947561,1,Correct,0,,,,,-19.71246299727242,-0.5667036756456181,-0.5252189766920283,98281.0,2.176996192780395,-1.0525377941357643,0.0045442818248275785,109433.0,99.82625813203386,,110.97825813203386
1,32,23,f,0,Practice,,1,1,0,3 + 1 + 1 + 8 - 1,12,10,12,11,113.50751270004548,,113.50751560006756,118.53007920004892,127.49782609997784,127.49783230002504,129.01481279998552,130.05633799999487,e,11.0,8.967746899928898,0,Incorrect,0,,,,,38.37319226968344,-1.7247618792360306,-0.413656025066218,111974.0,-10.07709197131798,0.5433654088767739,-2.4373576185448207,127500.0,113.51925813203385,,129.04525813203387
2,32,23,f,0,Practice,,2,2,0,8 + 1 + 6 + 1 - 4,12,12,10,11,131.57425180007704,,131.57425700000022,136.59440320008434,138.28179080004338,138.28179680008907,139.79875449999236,140.81697020004503,q,12.0,1.6873875999590382,1,Correct,0,,,,,13.754686647507365,-0.5728902697390321,-0.09530724628683984,130038.0,-36.219561888462415,-1.3639041488479329,-2.5904530984713023,138261.0,131.58325813203388,,139.80625813203386
3,32,23,f,0,Practice,,3,2,0,9 + 4 - 6 + 1 - 1,7,6,7,5,142.33416179998312,,142.3341650000075,147.35348260006867,152.02582380000968,152.0258302000584,153.54283619998023,154.5612411000766,e,5.0,4.672341199941002,0,Incorrect,0,,,,,-17.32876139532229,1.0997110519722995,-0.11479385400779485,140797.0,10.868012713543886,-1.6576169053159742,0.30964939236164035,152005.0,142.34225813203386,,153.55025813203386
4,32,23,f,0,Practice,,4,3,0,9 + 3 - 5 + 6 + 7,20,20,21,22,156.07823410001583,,156.07823740004096,161.098759500077,169.33780229999684,169.33780870004557,170.8548248000443,171.8722125000786,w,21.0,8.239042799919844,0,Incorrect,0,,,,,-26.382413869084232,-0.09744442042222445,-0.31092668010335434,154542.0,6.150846989665636,-1.2935600118405173,-0.778379686734211,169316.0,156.08725813203387,,170.86125813203387
5,32,23,f,0,Practice,,5,3,0,2 + 1 + 9 - 7 + 6,11,11,9,10,173.38951010000892,,173.38951320003252,178.41013440000825,187.44987430004403,187.449880600092,188.9669732000912,189.98503670003265,e,10.0,9.039739900035784,0,Incorrect,0,,,,,-2.68941410429961,-0.6731939577198123,-1.3164629896260949,171854.0,-34.34157897800344,-1.6120362665553074,0.016586328853504195,187429.0,173.39925813203388,,188.97425813203387
6,32,23,f,0,Practice,,6,4,0,4 + 8 + 5 - 3 + 7,21,22,23,21,191.50224800000436,,191.50225080002565,196.5228053000756,207.72986610000956,207.729872200056,209.24708510003984,210.2656330000609,q,22.0,11.20706079993397,0,Incorrect,0,,,,,17.793214396775884,0.8572385257155339,-0.04428883658697025,189966.0,-7.101457734037212,0.3121023653451811,1.1919614080256964,207709.0,191.51125813203387,,209.25425813203387
7,32,23,f,0,Practice,,7,4,0,5 + 8 - 4 + 6 + 9,24,24,22,23,211.7829281000886,,211.78293099999428,216.8028032000875,221.3859392000595,221.38594529998957,222.90252310002688,223.9215407000156,q,24.0,4.583135999972001,1,Correct,0,,,,,11.917455121337726,-0.47836624318661514,3.700753758889244,210246.0,-55.56365283369969,-0.8986802770695377,0.2231642468239876,221364.0,211.79125813203387,,222.90925813203387
8,32,23,f,1,0,0.0,0,4,high,8 + 4 + 7 - 5 - 6,8,8,9,7,423.2396910000825,425.2840293999761,426.7989388999995,431.8318214000901,436.8487837000284,436.8487863000482,438.3654515000526,439.3874738999875,,,,0,Too Slow!,0,43.4565546850185,-2.203851967165873,-2.715875896916496,421726.0,-32.4331214874175,1.4647760329038295,-0.9886371212922236,425274.0,-8.782885157722028,-0.8894856535236784,-0.020919289118560336,436830.0,426.81925813203384,423.27125813203384,438.3752581320338
9,32,23,f,1,0,1.0,1,4,low,7 + 6 - 9 + 8 - 3,9,7,8,9,440.9044954000274,442.9823443000205,444.4977225000039,449.51644759997725,452.0157159999944,452.0157218000386,453.5329431000864,454.5509629000444,w,8.0,2.499268400017172,0,+0,0,26.09038253959589,1.045764915969439,0.034613013765518286,439425.0,-18.11792295580267,0.46796606468224766,0.13830350164129124,442959.0,-23.231689845126667,-2.0888833608267774,0.017394855717909108,1277883.0,444.50425813203384,440.97025813203385,1279.428258132034
10,32,23,f,1,0,2.0,2,3,low,6 + 8 + 7 + 1 - 9,13,15,14,13,456.0681407999946,458.1481513000326,459.6633859000867,464.68181900004856,468.0077088000253,468.0077144000679,469.5251470999792,470.5423805000028,w,14.0,3.3258897999767214,0,+0,0,5.063341264107381,1.2907229629818016,-1.1573440457172604,454590.0,7.912785885936119,0.06993769782359038,-0.15094749738958102,458124.0,1.096343550205586,-1.8449697119992834,-0.17014347709687083,2836316.0,459.66925813203386,456.1352581320338,2837.8612581320335
11,32,23,f,1,0,3.0,3,1,low,3 + 1 + 8 - 1 + 1,12,13,10,12,472.0594044000609,474.0831860000035,475.5984546000837,480.6167970000533,482.3037460000487,482.303751999978,483.82046010007616,484.8373907000059,e,12.0,1.6869489999953655,1,+1,1,-8.931344731738838,0.1615842498640152,-1.790881218194924,470525.0,-39.46131654754174,-0.36067065869271,-0.2884951114441727,474059.0,2.438204055879302,-0.4069428975329892,-0.10752860543163534,3828049.0,475.60425813203386,472.0702581320338,3829.5942581320337
12,32,23,f,1,0,4.0,4,3,low,2 - 4 + 9 + 7 + 1,15,15,16,13,486.3541629000101,488.38019870000426,489.8954617000418,494.9140229000477,498.9196507000597,498.919656699989,500.4363700000104,501.4691744000884,w,16.0,4.005627800012007,0,+0,1,17.272688722756463,0.8544370247637953,-0.631571346567279,484822.0,28.116891642618366,2.327716553319627,-2.1946971342125834,488356.0,,,,,489.90125813203383,486.36725813203384,
13,32,23,f,1,0,5.0,5,3,low,4 + 7 - 3 + 5 - 1,12,12,11,13,502.9867438999936,505.0107030000072,506.5257422000868,511.5444453000091,514.6556383999996,514.6556438000407,516.1722535000881,517.1892553999787,q,12.0,3.111193099990487,1,+1,2,7.821596730468346,-1.1529250650835134,-0.11795880676930004,501453.0,6.078353859020348,-0.08361293668100522,0.12818588928484065,504986.0,,,,,506.5312581320338,502.9982581320338,
14,32,23,f,1,0,6.0,6,3,high,5 + 1 + 7 - 8 + 6,11,9,13,11,518.70610760001,520.7434729000088,522.2587369000539,527.2779169999994,531.1118208999978,531.1118270000443,532.6289581999881,533.6461506000487,e,11.0,3.833903899998404,1,+10,12,-13.058604283298997,0.007956787518450525,-1.0335565193566927,517185.0,-2.7600660696954495,-0.5354326935726341,-0.19385472786556557,520720.0,,,,,522.2652581320339,518.7302581320338,
15,32,23,f,1,0,7.0,7,1,high,4 + 8 + 1 - 1 - 1,11,11,9,13,535.1768516000593,537.2129943000618,538.728239600081,543.7475371999899,545.0717188999988,545.071724700043,546.5882165000075,547.6057307000738,q,11.0,1.324181700008921,1,+10,22,9.190785226891723,-0.5201071633342256,-0.030005208302121833,533655.0,11.327738807183398,-0.872656972443103,-0.546551563591438,537190.0,,,,,538.7352581320339,535.2002581320338,
16,32,23,f,1,0,8.0,8,2,high,8 + 1 + 4 - 7 + 1,7,7,6,5,549.122467200039,551.1629348000279,552.6779166000197,557.6960849000607,561.9758026000345,561.9758085000794,563.4925682999892,564.524896100047,w,6.0,4.279717699973844,0,+0,22,14.054763350068301,-0.635186730226895,-0.20950860276543137,547605.0,-13.123071892922802,0.4072929768091189,0.26570348859196935,551138.0,,,,,552.6832581320339,549.1502581320339,
17,32,23,f,1,0,9.0,9,2,low,7 + 5 + 1 - 1 - 8,4,4,3,2,566.041718200082,568.0803273000056,569.5955922000576,574.6152508000378,577.4717799000209,577.4717864000704,578.9885020999936,580.0054976000683,q,4.0,2.856529099983163,1,+1,23,-46.95442176950626,-0.07685403165245042,0.03598103374225525,564522.0,-7.419603674048906,-0.9769091007179362,-0.17365060524425546,568056.0,,,,,569.6012581320339,566.0672581320339,
18,32,23,f,1,0,10.0,10,4,high,4 + 7 - 8 + 9 - 3,9,9,8,11,581.5225615000818,583.5497427000664,585.0649890999775,590.0842033000663,593.1917766000843,593.1917823000113,594.7086518000579,595.7259751000674,e,11.0,3.1075733000179757,0,+0,23,18.367898481154615,1.916214933869508,-0.19692962990636342,579991.0,-38.868710912753095,0.9067852020166391,0.062382957977061615,583525.0,,,,,585.0702581320338,581.5362581320338,
19,32,23,f,1,0,11.0,11,1,high,8 - 1 + 1 + 6 + 1,15,15,16,14,597.242589200032,599.2668491000077,600.7820814000443,605.8006248000311,607.5920459000627,607.5920517999912,609.1084998000879,610.125960299978,q,15.0,1.7914211000315845,1,+10,33,3.421662390782984,-0.7555601429391405,-0.13773078332510513,595709.0,6.527594666717178,0.4591596416553223,0.07541911898292275,599242.0,,,,,600.7872581320338,597.2542581320338,
20,32,23,f,1,0,12.0,12,2,low,9 + 4 + 5 + 1 - 1,18,18,19,17,611.6430427000159,613.67040860001,615.185596400057,620.2044206000865,622.0877542999806,622.0877601000248,623.6044709000271,624.6218696000287,q,18.0,1.8833336998941377,1,+1,34,-3.0639876885826096,0.9667257193894354,0.8178044453252067,610112.0,1.069376339475351,-3.065538327198448,0.6040026485714707,613645.0,,,,,615.1902581320338,611.6572581320338,
21,32,23,f,1,0,13.0,13,3,high,7 - 1 + 8 - 6 + 4,12,11,12,13,626.1387729999842,628.1673140000785,629.6824909000425,634.7013364000013,637.4158583000535,637.415864199982,638.9322475000517,639.9493345000083,w,12.0,2.7145219000522047,1,+10,44,-5.51327508916043,-0.5296347746800212,0.03302201919404446,624609.0,3.317519402935922,1.3220705344151575,1.4898968928057847,628143.0,,,,,629.6882581320339,626.1542581320339,
22,32,23,f,1,0,14.0,14,2,high,9 + 5 - 6 + 1 - 1,8,7,9,8,641.4659779000795,643.4921933000442,645.0071825999767,650.0264846000355,653.5439386999933,653.5439445000375,655.061129800044,656.078135900083,e,8.0,3.517454099957831,1,+10,54,8.692755980868156,-0.9194667823203613,-0.5908658514362202,639933.0,-13.721986728757452,1.4339116095956808,0.9653044044509178,643468.0,,,,,645.0132581320338,641.4782581320338,
23,32,23,f,1,0,15.0,15,3,low,3 + 8 + 1 + 5 - 9,8,9,8,7,657.594679400092,659.6203305000672,661.1360162000638,666.1544055000413,669.951848900062,669.9518554999959,671.4681992999977,672.4852531000506,w,8.0,3.797443400020711,1,+1,55,-35.11631439770149,-0.7999322866994465,0.46306461228469376,656062.0,24.377115109501396,1.327995161081768,-0.40253191374055186,659596.0,,,,,661.1412581320338,657.6072581320338,
24,32,23,f,1,0,16.0,16,4,high,7 + 6 - 4 + 9 - 5,13,12,13,14,674.0020656000124,676.02506860008,677.5403454999905,682.5586976000341,686.3038346000249,686.303840000066,687.8212474000175,688.838487100089,w,13.0,3.745136999990791,1,+10,65,-14.295400726777439,-0.5219582447812527,-0.11421089731485035,672466.0,-23.77027540051958,-1.274863379313377,-0.2353016810720434,676000.0,,,,,677.5452581320338,674.0112581320338,
25,32,23,f,1,0,17.0,17,2,low,7 + 6 + 1 - 1 - 8,5,4,3,5,690.3553489000769,692.3824531000573,693.8982931000646,698.9167608000571,700.927861400065,700.927867499995,702.4456207000185,703.4628576000687,q,4.0,2.011100600007921,0,+0,65,22.091533591894063,0.08297536763744873,-0.1562768338647178,688823.0,-47.801555551971504,0.16635642258497363,-0.12423022662384264,692358.0,,,,,693.9032581320338,690.3682581320338,
26,32,23,f,1,0,18.0,18,2,low,5 + 9 - 8 + 1 + 1,8,7,9,8,704.9804033000255,707.0040324000875,708.519103800063,713.5372059000656,716.3438683000859,716.3438740000129,717.8605250000255,718.887330800062,w,9.0,2.8066624000202864,0,+0,65,-27.877095027907473,-0.9690864312691669,-2.091943703381684,703445.0,-23.66286618983521,-0.6219432122355464,-0.2860592773152755,706978.0,,,,,708.5232581320338,704.9902581320339,
27,32,23,f,1,0,19.0,19,1,high,5 + 1 + 1 + 9 + 1,17,19,17,16,720.4037601000164,722.4277190000284,723.9429917000234,728.96057320002,732.6399599000579,732.6399655999849,734.1566697000526,735.1740218000486,w,17.0,3.679386700037867,1,+10,75,8.603486015138841,-0.29984367781850096,0.29075843706323656,718869.0,-24.34816869843238,1.381324796397184,-0.010059147379562372,722402.0,,,,,723.9472581320339,720.4142581320339,
28,32,23,f,1,0,20.0,20,4,low,7 + 8 - 4 + 6 + 5,22,22,23,21,736.6906438000733,738.7148899000604,740.2301501000766,745.2487601999892,748.2399458000436,748.2399518000893,749.7562060999917,750.7734705000184,e,21.0,2.9911856000544503,0,+0,75,-6.912955198339779,0.768515380025617,-1.019159358169829,735156.0,6.927904786115107,0.2261188349129899,0.7152073240781394,738690.0,,,,,740.2352581320339,736.7012581320338,
29,32,23,f,1,0,21.0,21,1,high,7 - 1 + 1 + 9 - 1,15,15,14,13,752.2902896000305,754.316009500064,755.8309252000181,760.8495252000866,762.1918877999997,762.1918933000416,763.7083805000875,764.7258681000676,q,15.0,1.3423625999130309,1,+10,85,21.95855412655306,0.8331128984052754,0.3734331272438389,750757.0,-23.37073316939917,1.4267602742425076,-0.6556249411943207,754290.0,,,,,755.8352581320338,752.3022581320338,
30,32,23,f,1,0,22.0,22,1,low,5 + 6 + 1 + 1 + 1,14,16,13,14,766.2426711000735,768.2702604000224,769.7856612000614,774.8035208000802,777.9040116000688,777.9040177999996,779.420406899997,780.4375147999963,e,14.0,3.10049079998862,1,+1,86,-8.300359504252064,-0.8945128036070411,-0.34259151836325374,764711.0,15.529619168475044,0.538220400603322,-0.2372035705734623,768244.0,,,,,769.7892581320339,766.2562581320338,
31,32,23,f,1,0,23.0,23,1,high,3 + 1 + 9 + 1 - 1,13,12,14,13,781.9542833000887,783.9802954000188,785.4955007000826,790.5147204999812,793.711985800066,793.7119915999938,795.2287738000741,796.2460067999782,q,12.0,3.197265300084837,0,+0,86,10.698972055803054,-0.7509750560604829,-3.069013647635245,780420.0,18.083876228400538,-0.6614631480403403,-0.4778505154807515,783955.0,,,,,785.5002581320339,781.9652581320338,
32,32,23,f,1,0,24.0,24,1,high,8 + 1 + 1 + 1 - 4,7,7,8,5,797.763105400023,799.7880560000194,801.3032997000264,806.3214452000102,808.7761790000368,808.7761850000825,810.292678900063,811.3101545000682,q,7.0,2.454733800026588,1,+10,96,-5.197139195886136,-1.123850609987036,-0.692837301403487,796229.0,30.4298249665934,-1.009795735221937,0.6787173868560386,799762.0,,,,,801.3072581320338,797.7742581320339,
33,32,23,f,1,0,25.0,25,3,high,5 + 7 + 1 - 4 + 6,15,13,17,15,812.8270273000235,814.8530457000015,816.3685731000733,821.3871031000745,822.8799330000766,822.8799395000096,824.3965316000395,825.4137663000729,e,15.0,1.492829900002107,1,+10,106,23.475493172114646,0.8416409659376374,0.010356814485234622,811293.0,6.276350531542308,0.6077701806402285,0.004901379201930567,814827.0,,,,,816.3722581320338,812.8382581320338,
34,32,23,f,1,0,26.0,26,4,low,2 + 9 - 4 + 8 + 7,22,21,22,23,826.9305317000253,828.9587416000431,830.4740104000084,835.4922915999778,838.8800260000862,838.8800323000178,840.3966929999879,841.4141855000053,q,21.0,3.3877344001084566,0,+0,106,13.615036268530222,1.1100256410393037,-0.7280364841497966,825399.0,9.780047853053155,0.6887440718736375,-0.037456811007177127,828933.0,,,,,830.4782581320338,826.9442581320338,
35,32,23,f,1,0,27.0,27,3,high,8 + 5 + 1 - 7 + 9,16,17,16,14,842.9309632000513,844.9563665000023,846.471358400071,851.4897550999885,853.8959788000211,853.8959840000607,855.4125040000072,856.4293475000886,e,14.0,2.406223700032569,0,+0,106,-24.04094825554613,-0.6560854792081869,0.16637965887380401,841397.0,8.98091970813712,0.8423355003728155,0.3570387603962728,844930.0,,,,,846.4752581320338,842.9422581320339,
36,32,23,f,1,0,28.0,28,2,low,3 + 8 - 5 + 1 + 1,8,9,6,8,857.9458367000334,859.9715835000388,861.4867723999778,866.5047827999806,868.9040543000447,868.9040602000896,870.4204749000492,871.4372450000374,e,8.0,2.39927150006406,1,+1,107,21.637354806834278,-0.9864617099420041,-0.5555064343472753,856412.0,-36.00252355381679,-0.3610029224299147,1.2875077128160228,859945.0,,,,,861.4902581320339,857.9572581320339,
37,32,23,f,1,0,29.0,29,3,high,3 - 7 + 5 + 1 + 9,11,12,11,13,872.9541190000018,874.9800708000548,876.4950230000541,881.513348700013,884.3920481000096,884.3920540000545,885.9087396999821,886.925845000078,w,11.0,2.878699399996549,1,+10,117,-10.034934210656555,-0.19318827930889704,0.5068958980681657,871420.0,-19.216200935548876,1.6493244532030022,0.20804670414745408,874954.0,,,,,876.4992581320338,872.9652581320338,
38,32,23,f,1,0,30.0,30,4,high,8 + 3 - 4 + 5 + 9,21,23,22,21,888.4427668000571,890.4661063000094,891.9813104000641,896.9995071000885,898.4959492000053,898.4959546000464,900.0125497999834,901.029841599986,e,21.0,1.4964420999167487,1,+10,127,0.6833563911520315,0.8660708498520489,-0.9714333296499529,886906.0,30.12236157102055,-0.6618799259572548,-0.4870206998447748,890440.0,,,,,891.9852581320339,888.4512581320338,
39,32,23,f,1,0,31.0,31,4,low,6 + 9 - 7 + 8 - 5,11,11,12,13,902.5467320000752,904.569584700046,906.0847827000543,911.103783800034,914.375991399982,914.3759973000268,915.8922450999962,916.9091486000688,q,11.0,3.2722075999481604,1,+1,128,-3.242795310426075,0.33859489463500836,-0.34685842189269156,901010.0,25.74193630124917,0.6738843099954952,0.1413063153251497,904543.0,,,,,906.0882581320338,902.5552581320338,
40,32,23,f,1,0,32.0,32,4,low,5 + 8 - 6 + 7 + 4,18,18,17,19,918.426076499978,920.4520821000916,921.9670469000704,926.985605200054,930.5601011000108,930.560106500052,932.0767805000067,933.0936666000634,q,18.0,3.5744958999566734,1,+1,129,5.344637757242705,1.7778119421481247,-0.922204676336082,916892.0,25.79205297437983,2.970091547351789,-1.1980406289648755,920426.0,,,,,921.9712581320339,918.4372581320339,
41,32,23,f,1,0,33.0,33,4,high,8 + 7 - 4 + 5 + 9,25,26,24,25,934.6106162000216,936.6386993000052,938.1540222000332,943.1740117000882,946.3360719999764,946.3360778000206,947.8528071000474,948.8700298999902,w,24.0,3.162060299888253,0,+0,129,8.847806271028059,-0.13642909388306634,0.02695433203032005,933078.0,20.857098634071402,0.9096122730330354,0.14852514602038136,936614.0,,,,,938.1592581320339,934.6232581320338,
42,32,23,f,1,0,34.0,34,2,low,2 + 9 - 4 + 1 + 1,9,11,8,9,950.3868845000396,952.4104238,953.9257229000796,958.945965400082,960.568068500026,960.5680743000704,962.0846544000088,963.1018686000024,w,8.0,1.62210309994407,0,+0,129,-1.7795631475746756,-0.2420733440883165,0.6565832266818452,948850.0,-1.0372744000832466,0.4794071769348722,-3.2752983974929597,952385.0,,,,,953.9302581320338,950.3952581320339,
43,32,23,f,1,0,35.0,35,4,low,6 + 9 + 7 - 3 - 5,14,12,13,14,964.6191092000809,966.644748400082,968.16000839998,973.1787516000912,977.376160899992,977.3761732000858,978.892793499981,979.9098020000384,e,14.0,4.197409299900755,1,+1,130,24.75639406524136,0.45718701534679695,-0.4783613942788807,963084.0,11.47150991417624,0.09316966309359387,-0.3660953385882171,966618.0,,,,,968.1632581320339,964.6292581320338,
44,32,23,f,1,0,36.0,36,3,high,2 + 1 + 9 - 7 + 6,11,13,11,12,981.4268901000032,983.4512953000376,984.9664660000708,989.984718700056,993.9441610000796,993.9441666000056,995.4608980000484,996.4821840000805,w,11.0,3.959442300023511,1,+10,140,2.5274591147814247,-0.6333577536924277,-0.8723091663556044,979891.0,-1.806387413464087,-2.8965620033142496,-0.25109555722473953,983424.0,,,,,984.9692581320338,981.4362581320338,
45,32,23,f,1,0,37.0,37,3,low,4 + 1 + 8 + 9 - 5,17,18,17,19,997.9990493999794,1000.0236572000432,1001.5389767000452,1006.5573256000644,1010.0482310000808,1010.048237800016,1011.564818700077,1012.5871638000244,w,17.0,3.490905400016345,1,+1,141,2.3968700629920017,-1.8304468612078502,-0.2333648333072178,996463.0,-12.028126931381797,0.7348116453737443,-0.4239499449046895,999997.0,,,,,1001.5422581320338,998.0082581320338,
46,32,23,f,1,1,38.0,0,1,low,7 + 1 + 6 + 1 + 1,16,16,18,17,1128.7889007000483,1130.8161501000868,1132.3314196000574,1137.3512668000767,1139.560397800058,1139.5604040999897,1141.0772523999913,1142.0961452000774,e,17.0,2.2091309999814257,0,+0,141,15.451514203331918,0.9272776372933009,-0.014058649316638583,1127255.0,5.860905067636163,0.5430457588133848,1.2782891500577738,1130790.0,,,,,1132.335258132034,1128.800258132034,
47,32,23,f,1,1,39.0,1,4,low,4 + 7 + 8 - 3 + 9,25,26,25,24,1143.6131805999903,1145.6403367000166,1147.1556807000889,1152.1753873000853,1155.8082568000536,1155.80826239998,1157.3250855000224,1158.343000599998,e,24.0,3.632869499968365,0,+0,141,6.499516157748486,0.2081587684721491,-0.9110211690522427,1142079.0,-50.08995390215375,2.78761430601854,1.0797222987131863,1145614.0,,,,,1147.159258132034,1143.624258132034,
48,32,23,f,1,1,40.0,2,2,high,7 + 5 + 1 + 9 + 1,23,23,21,22,1159.8600475999992,1161.883107200032,1163.3984275000405,1168.4162549000466,1170.832202800084,1170.8322087000124,1172.3482736999867,1173.3656918000197,q,23.0,2.415947900037281,1,+10,151,49.4905215817579,0.7166115898649341,0.17133322259755523,1158322.0,37.49273165978955,0.062137551972494265,1.3948537661893763,1161855.0,,,,,1163.400258132034,1159.8672581320338,
49,32,23,f,1,1,41.0,3,3,high,4 + 5 - 3 + 7 - 1,12,11,12,13,1174.8826179000316,1176.9073962999971,1178.4227042000275,1183.4413317000726,1185.2322547000367,1185.2322598000756,1186.7487468000036,1187.7658852000022,q,11.0,1.7909229999640957,0,+0,151,-12.888726830162222,-0.45208717835746803,0.03848991309405658,1173346.0,-36.26737327440204,-0.11444477329743563,0.019309798246593957,1176880.0,,,,,1178.425258132034,1174.891258132034,
50,32,23,f,1,1,42.0,4,3,high,6 + 1 + 8 + 7 - 9,13,13,14,15,1189.2828474000562,1191.3067510999972,1192.822042100015,1197.8401697999798,1200.976304300013,1200.9763099000556,1202.492782299989,1203.5098456999986,q,13.0,3.136134500033222,1,+10,161,-20.103968796523592,-0.1638010066111626,-1.9726146252089571,1187745.0,-13.267044483713555,-0.8285931566546108,0.00446871274792926,1191279.0,,,,,1192.824258132034,1189.2902581320338,
51,32,23,f,1,1,43.0,5,1,high,6 + 9 + 1 + 1 - 1,16,15,14,16,1205.0267440000316,1207.0523084000451,1208.567495800089,1213.5869162000015,1215.184355000034,1215.1843606000766,1216.7007450000383,1217.718196699978,e,16.0,1.5974388000322506,1,+10,171,-12.574208871798458,-0.9859016317540483,0.01834725396835646,1203490.0,10.179393346912827,-0.39024466035178307,-0.15066857844852288,1207025.0,,,,,1208.570258132034,1205.035258132034,
52,32,23,f,1,1,44.0,6,4,low,5 + 7 - 4 + 8 + 6,22,24,23,22,1219.234933000058,1221.262886899989,1222.7780212999787,1227.7968159000156,1230.2642615999794,1230.2642678000266,1231.781541400007,1232.7989600000435,e,22.0,2.4674456999637187,1,+1,172,4.031068113813812,-0.7426384901019976,0.5693234354682077,1217701.0,3.638989161146028,0.5243352906069401,0.10841011775500009,1221235.0,,,,,1222.7802581320339,1219.246258132034,
53,32,23,f,1,1,45.0,7,2,low,6 + 1 + 8 + 5 - 1,19,19,17,18,1234.316461200011,1236.34281130007,1237.8580472000176,1242.876173900091,1244.3202475000871,1244.3202534000156,1245.8370316000655,1246.8543111000909,w,17.0,1.4440735999960452,0,+0,172,-13.817526918318588,-0.5341535985683308,0.03769040869701712,1232781.0,1.7464146678890582,-1.4954139803933888,-0.5546628733357561,1236314.0,,,,,1237.859258132034,1234.326258132034,
54,32,23,f,1,1,46.0,8,1,low,6 + 1 + 1 + 9 - 1,16,16,15,14,1248.3712669999804,1250.3989259999944,1251.914788300055,1256.9336826000365,1260.2803815000225,1260.2803871000651,1261.797106300015,1262.8144638000522,w,15.0,3.3466988999862224,0,+0,172,13.036604501309762,-0.15702805175805779,0.17162302132918694,1246837.0,-5.319628115071158,0.3552442791452659,0.13904192744817712,1250372.0,,,,,1251.917258132034,1248.382258132034,
55,32,23,f,1,1,47.0,9,4,high,7 + 6 - 9 + 8 - 3,9,7,8,9,1264.331402900047,1266.3578864000738,1267.8731115000555,1272.892476900015,1277.9093457000563,1277.909348300076,1279.4258541000308,1280.4445844000438,,,,0,Too Slow!,172,16.074032879825086,-0.7621144346464046,0.2663383295179864,1262796.0,-3.6542656899109467,-0.284920099165225,-1.0710419316804736,1266330.0,,,,,1267.8752581320339,1264.341258132034,
56,32,23,f,1,1,48.0,10,3,high,3 + 8 - 7 - 1 + 9,12,14,13,12,1281.961494200048,1283.984569900087,1285.4992516000057,1290.5179448000854,1294.1604372999864,1294.1604432000313,1295.6775739000875,1296.6948828999884,w,13.0,3.642492499900982,0,+0,172,10.443981182953351,0.5877662089016429,0.4585861475441364,1280423.0,21.072719523423686,0.42011545380856674,0.5802483327675667,1283956.0,,,,,1285.5012581320339,1281.968258132034,
57,32,23,f,1,1,49.0,11,2,low,5 + 1 + 7 - 6 + 1,8,7,6,8,1298.2119861000683,1300.282945199986,1301.7983014000347,1306.8167340999937,1310.0563423000276,1310.0563477000687,1311.5728355000028,1312.5900400000392,e,8.0,3.239608200034126,1,+1,173,16.284811646427563,1.2934627624406385,-0.25101768178510264,1296721.0,13.23108761243473,-0.7589218713361312,1.4024492333057017,1300255.0,,,,,1301.800258132034,1298.266258132034,
58,32,23,f,1,1,50.0,12,3,low,3 + 1 + 8 - 5 + 9,16,17,16,15,1314.1065897999797,1316.1327419000445,1317.648099299986,1322.666433700011,1325.5044318999862,1325.5044382000342,1327.0210927000735,1328.0390662000282,q,17.0,2.837998199975118,0,+0,173,31.75898808187367,-1.2046333396772226,-0.08023925746802796,1312571.0,-26.82190486085176,0.9325306610423176,0.32487707939440424,1316104.0,,,,,1317.649258132034,1314.1162581320339,
59,32,23,f,1,1,51.0,13,1,low,4 + 7 + 1 - 1 - 1,10,11,10,9,1329.5558922999771,1331.583480900037,1333.098532599979,1338.1170620999765,1341.104441100033,1341.1044469000772,1342.6207457000855,1343.637693900033,w,10.0,2.987379000056535,1,+1,174,-74.36496145061076,0.9902890272088847,0.09719289658139063,1328021.0,4.877416316029244,-0.5123215482653709,0.2222681610074524,1331555.0,,,,,1333.100258132034,1329.566258132034,
60,32,23,f,1,1,52.0,14,4,low,3 + 8 - 7 + 9 - 5,8,9,7,8,1345.1547037999844,1347.1800902000396,1348.6952943999786,1353.714440700016,1356.6885924000526,1356.688598299981,1358.205134900054,1359.223209900083,w,7.0,2.9741517000366,0,+0,174,18.21265106320634,0.49426308670832775,-0.28026224603870276,1343618.0,-11.796445692626277,0.3765261173482557,-0.20551339411987302,1347152.0,,,,,1348.697258132034,1345.163258132034,
61,32,23,f,1,1,53.0,15,4,high,2 + 5 - 3 + 9 + 8,21,21,19,22,1360.7401525999885,1362.7664495999925,1364.28168990009,1369.3003080000635,1372.536395900068,1372.536401499994,1374.0531276999973,1375.070574100013,e,22.0,3.2360879000043496,0,+0,174,39.79636197431787,0.5526918398685403,0.07421398474913499,1359204.0,16.25409945148086,0.16892807624861028,-0.3017566904412947,1362738.0,,,,,1364.283258132034,1360.749258132034,
62,32,23,f,1,1,54.0,16,2,low,3 - 1 + 9 - 5 + 1,7,5,7,6,1376.5873513000552,1378.6140066999942,1380.129008500022,1385.147298200056,1387.880526300054,1387.8805317999795,1389.3973594000563,1390.414626199985,e,6.0,2.7332280999980867,0,+0,174,17.166797643084433,0.11745729573077845,-0.15582313550747173,1375051.0,48.99445746792338,1.5564438335543507,1.180746974803577,1378585.0,,,,,1380.130258132034,1376.5962581320339,
63,32,23,f,1,1,55.0,17,1,high,9 + 8 + 1 + 1 - 1,18,17,20,18,1391.931563500082,1393.9572819999885,1395.4722795999842,1400.4911499000154,1402.7685071000597,1402.768513099989,1404.2847306000767,1405.3116099000908,e,18.0,2.2773572000442077,1,+10,184,-31.86206746130928,0.2433983023778623,-0.41159048303198187,1390395.0,3.550600992442332,1.0873251193861115,-0.005686396990070008,1393928.0,,,,,1395.473258132034,1391.940258132034,
64,32,23,f,1,1,56.0,18,3,high,6 - 1 + 7 - 8 + 9,13,13,11,12,1406.8285179000814,1408.8524593000766,1410.3679681000067,1415.386767200078,1418.1444113000762,1418.144417500007,1419.6612655000065,1420.678652600036,e,12.0,2.757644099998288,0,+0,184,-16.2417795681825,-2.061166062361284,0.09810686746537867,1405290.0,-51.60007023124571,-1.191057328599225,1.7290298617005622,1408824.0,,,,,1410.369258132034,1406.835258132034,
65,32,23,f,1,1,57.0,19,2,high,4 + 8 + 1 + 1 - 6,8,8,9,7,1422.1954403000418,1424.2210742000025,1425.7364463000558,1430.754502600059,1434.5925394999797,1434.5925461000295,1436.1095502000535,1437.1862771000017,q,8.0,3.838036899920553,1,+10,194,-9.514625370291819,0.1101375920973009,0.08199699284235829,1420658.0,-12.49954316551559,-1.0772401136899639,0.24297504643956636,1424192.0,,,,,1425.737258132034,1422.2032581320339,
66,32,23,f,1,1,58.0,20,1,high,9 + 1 + 1 + 7 - 1,17,16,19,17,1438.703683400061,1440.729212300037,1442.2445623000383,1447.263332500006,1449.5684726000763,1449.5684782000026,1451.0849798000418,1452.1022135000676,e,17.0,2.305140100070276,1,+10,204,7.884906593485948,-0.8197665978546507,0.03435253206696398,1437166.0,20.634944624142186,0.3576370641474824,0.11239891321985573,1440701.0,,,,,1442.246258132034,1438.711258132034,
67,32,23,f,1,1,59.0,21,3,low,8 + 6 - 7 + 1 - 4,4,3,4,5,1453.6191435999935,1455.6435928000135,1457.15891940007,1462.1778308000648,1465.7524599999888,1465.752466200036,1467.2691108,1468.286227600067,w,4.0,3.5746291999239475,1,+1,205,9.729996382247544,-0.08991210862110677,0.23996791682045604,1452081.0,10.809261102853792,1.7559140086165765,-0.32296538663578866,1455615.0,,,,,1457.160258132034,1453.6262581320339,
68,32,23,f,1,1,60.0,22,4,low,3 + 9 - 5 + 8 - 7,8,7,9,8,1469.802933000028,1471.82917729998,1473.3444411000237,1478.3647064000834,1481.5445536000188,1481.5445595000638,1483.061306299991,1484.078266800032,e,8.0,3.179847199935466,1,+1,206,12.850562180388993,1.0831745160445205,-0.7818884347135424,1468266.0,-3.330563970585498,-0.20603902068724267,0.11500306585260622,1471802.0,,,,,1473.3472581320339,1469.811258132034,
69,32,23,f,1,1,61.0,23,2,high,6 + 1 + 1 + 7 - 9,6,6,4,8,1485.594886000035,1487.6178765000077,1489.13326770009,1494.153786699986,1496.7444661000045,1496.744471300044,1498.2609771999996,1499.2782061999897,e,8.0,2.5906794000184163,0,+0,206,4.223758674103127,0.13086250050393744,-0.8006324619663996,1484055.0,-1.046989873949796,0.775289881168252,1.0512780016904286,1487591.0,,,,,1489.1362581320338,1485.600258132034,
70,32,23,f,1,1,62.0,24,2,high,6 + 1 + 8 + 7 - 1,21,19,21,23,1500.7957919000182,1502.81814019999,1504.3329801000657,1509.3598608000902,1512.1365149000194,1512.1365204000613,1513.6539436000166,1514.671433200012,w,21.0,2.7766540999291465,1,+10,216,7.16434568313527,-1.512072241244093,0.4154050596067127,1499255.0,-0.26567070557555184,0.388856827120728,0.24680163659210108,1502797.0,,,,,1504.342258132034,1500.800258132034,
71,32,23,f,1,1,63.0,25,3,high,3 + 8 - 7 + 1 + 9,14,12,13,14,1516.188346000039,1518.215739100007,1519.731114000082,1524.749873300083,1528.2406775000272,1528.240683500073,1529.7573142000474,1530.774676000001,q,12.0,3.4908041999442503,0,+0,216,25.37032684466412,1.2331537347270256,0.37129301369190437,1514652.0,0.1915669079686424,0.5860124401694193,-0.039107076188098056,1518187.0,,,,,1519.7322581320338,1516.197258132034,
72,32,23,f,1,1,64.0,26,3,low,5 + 6 + 7 - 1 - 9,8,7,9,8,1532.2916065000463,1534.3614043000853,1535.876765800058,1540.8953492,1545.7285237000324,1545.7285296000773,1547.2458552999888,1548.2627899000654,w,9.0,4.833174500032328,0,+0,216,4.563976378173239,-0.5199910855132188,-0.19799014934114245,1530798.0,9.175785817171228,0.16249767933572912,1.3922382267397064,1534332.0,,,,,1535.877258132034,1532.343258132034,
73,32,23,f,1,1,65.0,27,4,high,5 + 7 - 4 - 6 + 9,11,13,12,11,1549.779692800017,1551.804695100058,1553.3199576000916,1558.3518693000078,1562.0325620999793,1562.0325683000265,1563.5492112999782,1564.566735100001,q,13.0,3.680692799971439,0,+0,216,26.163019676105108,-0.9977430920059014,-0.05676301022365049,1548241.0,14.39376187363894,0.15389773456310252,1.4190886259301208,1551789.0,,,,,1553.334258132034,1549.786258132034,
74,32,23,f,1,1,66.0,28,3,high,7 + 1 + 9 + 5 - 6,16,16,14,15,1566.0836954000406,1568.1107892000582,1569.6257104000542,1574.6453698000405,1578.6567004000535,1578.6567060999805,1580.1732653999934,1581.191251900047,q,16.0,4.011330600013025,1,+10,226,7.128408892817166,0.13798518516919955,-0.35108823451487803,1564547.0,5.436614278534667,-0.6249374927966098,2.4815167499480717,1568082.0,,,,,1569.627258132034,1566.092258132034,
75,32,23,f,1,1,67.0,29,4,low,5 + 6 - 4 + 7 + 9,23,24,25,23,1582.7081251000054,1584.7349614000414,1586.2502545000752,1591.2702889000066,1594.840584199992,1594.8405899000354,1596.3572332999902,1597.3746450000908,q,24.0,3.570295299985446,0,+0,226,6.203325340673327,-0.1401435542037337,3.182983978478049e-05,1581171.0,-4.709009556396307,1.3839444475435254,0.1531582320764895,1584707.0,,,,,1586.252258132034,1582.716258132034,
76,32,23,f,1,1,68.0,30,3,high,9 - 1 + 5 - 6 + 8,15,14,17,15,1598.891454000026,1600.9156361999922,1602.4309010000434,1607.4491950999943,1610.5926104000537,1610.59261599998,1612.109495199984,1613.1267831000732,q,14.0,3.1434153000591323,0,+0,226,-1.844484901559568,-0.684274230862929,-0.04740205179375945,1597352.0,2.489707567259389,0.29759580080989245,1.179086180362821,1600886.0,,,,,1602.431258132034,1598.897258132034,
77,32,23,f,1,1,69.0,31,2,high,9 + 1 + 6 + 7 + 1,24,23,25,24,1614.6435263000894,1616.6690676000435,1618.1843698000305,1623.2025930000236,1626.4086311000865,1626.4086608000798,1627.925385700073,1628.9435135000383,e,24.0,3.206038100062869,1,+10,236,10.712638308450677,0.22796173307463974,0.26001219028704137,1613105.0,10.33634185707431,0.8071060125965754,1.2138601295704405,1616639.0,,,,,1618.1842581320338,1614.650258132034,
78,32,23,f,1,1,70.0,32,4,low,4 + 8 + 9 - 3 + 7,25,24,26,25,1630.4602773999795,1632.4837505000178,1633.998851499986,1639.0175832000095,1642.5127153000794,1642.5127217000118,1644.0293900000397,1645.0470029000426,w,26.0,3.4951321000698954,0,+0,236,14.835983396671896,-0.1626261994885443,-0.5226870505043895,1628920.0,7.029965137707295,0.5143185093669018,0.14078676448857363,1632454.0,,,,,1633.999258132034,1630.465258132034,
79,32,23,f,1,1,71.0,33,3,low,8 - 1 + 6 - 7 + 5,11,11,12,13,1646.5635526999831,1648.589149700012,1650.1045509000542,1655.1231819000095,1658.7609939000104,1658.7609996000538,1660.277585200034,1661.3041754000587,q,11.0,3.63781200000085,1,+1,237,18.568705992893424,2.140658019629109,-0.1677659132384779,1645025.0,-33.98875915684789,-0.4364285099434184,0.6970332128107746,1648559.0,,,,,1650.104258132034,1646.570258132034,
80,32,23,f,1,1,72.0,34,1,low,9 + 8 + 1 + 1 - 1,18,17,18,19,1662.820897800033,1664.8468733000336,1666.3621795000508,1671.381139400066,1673.648759600008,1673.6487657000544,1675.1652381999884,1676.181983600021,w,18.0,2.26762019994203,1,+1,238,-5.774241819755461,-0.700394062061906,-0.5291992505055765,1661283.0,25.911214753397502,1.2997489929357187,0.4281295429124543,1664816.0,,,,,1666.361258132034,1662.8282581320339,
81,32,23,f,1,1,73.0,35,3,high,7 - 1 + 9 - 5 + 4,14,15,14,13,1677.698544300045,1679.7247892000014,1681.239988300018,1686.258992600022,1687.6246419000672,1687.624647699995,1689.1411725999787,1690.158516400028,w,14.0,1.3656493000453338,1,+10,248,10.090507665791526,3.216683479383928,-0.09062857683250058,1676161.0,-32.669088107591904,-0.06605905009105051,1.358286885191363,1679695.0,,,,,1681.240258132034,1677.706258132034,
82,32,23,f,1,1,74.0,36,1,low,5 + 1 + 1 + 6 + 1,14,13,16,14,1691.6754779000769,1693.7022670999868,1695.2176467999816,1700.2354791000253,1701.7767336000688,1701.7767393999966,1703.2933170000324,1704.3106052000076,q,13.0,1.5412545000435784,0,+0,248,20.424492343241386,1.1450292219455225,0.2335514035978017,1690138.0,-15.702803700419379,0.27428765189831417,-0.1801162936566718,1693671.0,,,,,1695.216258132034,1691.6832581320339,
83,32,23,f,1,1,75.0,37,4,high,3 + 9 - 5 + 6 + 8,21,21,23,22,1705.8274436000502,1707.8533796999836,1709.36876089999,1714.3865459000226,1718.1846927000445,1718.1846981000854,1719.7015987000195,1720.718551500002,e,22.0,3.798146800021641,0,+0,248,-1.2367319405272799,-1.7746194302019287,-0.06261589129819223,1704289.0,-20.557736955861078,4.1711400528906575,-0.08880485823894135,1707823.0,,,,,1709.368258132034,1705.834258132034,
84,32,23,f,1,2,76.0,0,2,high,8 + 1 + 1 + 9 - 4,15,16,15,14,1828.9334261000624,1830.9608424000908,1832.4759237000253,1837.5435337000529,1839.1127488000784,1839.112754200003,1840.629570799996,1841.6468266000736,w,15.0,1.569215100025758,1,+10,258,-34.63024374361751,-0.06789603260667221,-0.7440980773146628,1827396.0,11.92536467348458,0.37305835589095615,0.061012038422218584,1830979.0,,,,,1832.524258132034,1828.941258132034,
85,32,23,f,1,2,77.0,1,4,high,5 + 9 - 4 + 7 + 6,23,23,24,25,1843.163739299984,1845.1908990000372,1846.706103799981,1851.7246296000667,1854.5128578000003,1854.512863500044,1856.0295538000064,1857.0465454000516,w,24.0,2.788228199933656,0,+0,258,-3.2195667631481086,-0.5775176070709165,-0.030850034108839353,1841626.0,-1.8179882259892608,0.09928535006461647,0.22672386377624543,1845160.0,,,,,1846.705258132034,1843.171258132034,
86,32,23,f,1,2,78.0,2,4,low,4 + 9 - 7 + 8 + 5,19,20,19,21,1858.563462399994,1860.5899261999875,1862.1050797000064,1867.1244647999995,1870.032819400076,1870.0328253000043,1871.5493810999903,1872.5662725000875,w,19.0,2.908354600076564,1,+1,259,-1.8873382308350646,0.9985054172293548,0.5869709133491141,1857024.0,-0.7153956535670236,-0.6112759319697636,0.8010276084822188,1860559.0,,,,,1862.104258132034,1858.5692581320338,
87,32,23,f,1,2,79.0,3,4,high,7 + 8 - 4 + 6 - 5,12,12,11,13,1874.0831044000809,1876.1092993000057,1877.6246814000187,1882.643221299979,1885.3608878999949,1885.3608936000385,1886.877512200037,1887.8947286000475,w,11.0,2.7176666000159457,0,+0,259,63.19910159089168,0.02556625950714686,0.11438999996827182,1872544.0,24.088965328755858,0.3982876163535378,-1.0054174410159953,1876078.0,,,,,1877.623258132034,1874.089258132034,
88,32,23,f,1,2,80.0,4,4,high,4 + 7 + 8 - 3 + 9,25,24,26,25,1889.4115296000384,1891.4358085000424,1892.9511204999872,1897.969587999978,1901.968843700015,1901.9688506000675,1903.485209500068,1904.5023890000305,q,24.0,3.9992557000368834,0,+0,259,-51.309589051696236,1.43822487561948,-0.03287566957265886,1887871.0,-5.242251058707652,-1.48262143786331,1.516291852431904,1891405.0,,,,,1892.950258132034,1889.416258132034,
89,32,23,f,1,2,81.0,5,1,high,2 + 9 + 1 + 1 + 1,14,12,13,14,1906.0191881000064,1908.042954100063,1909.5582012999805,1914.577096400084,1916.1769791999832,1916.176984700025,1917.6935888000296,1918.7109598000532,e,14.0,1.5998827998992056,1,+10,269,29.50521452174535,1.00251348629196,0.11845715297427284,1904478.0,15.018092050312386,-0.054474490978821954,-0.9395481051138335,1908012.0,,,,,1909.557258132034,1906.023258132034,
90,32,23,f,1,2,82.0,6,1,high,8 + 1 + 4 + 1 + 1,15,16,14,15,1920.227780300076,1922.2539201000477,1923.7691973000765,1928.7991543000096,1931.992863300024,1931.99286940007,1933.509526000009,1934.5264926999807,q,16.0,3.1937090000137687,0,+0,269,15.786274051416285,0.4937527554156613,-0.07583371413146489,1918689.0,-31.669154749613703,0.6867573958672493,0.1535770237742513,1922234.0,,,,,1923.7792581320339,1920.234258132034,
91,32,23,f,1,2,83.0,7,3,low,3 + 1 + 6 - 8 + 9,11,12,11,13,1936.0433365000645,1938.068255500053,1939.5834962000367,1944.602886400069,1945.9208271000532,1945.92083269998,1947.437523300061,1948.454457600019,w,11.0,1.3179406999843195,1,+1,270,-2.0253182131702374,0.10927425402898105,0.7430522191716502,1934503.0,-23.355787620430696,0.7525857154500208,0.08679036290044229,1938038.0,,,,,1939.583258132034,1936.0482581320339,
92,32,23,f,1,2,84.0,8,4,low,8 + 4 + 7 - 5 - 6,8,9,8,6,1949.9715019,1951.9982585000107,1953.513518200023,1958.531928100041,1961.960857800092,1961.960863300017,1963.4774235000368,1964.4945755000224,q,9.0,3.428929700050503,0,+0,270,1.446658196117557,0.5029543893832278,-0.010585562069163723,1948433.0,15.120289725361108,-1.6073659042507575,0.16971003818306274,1951967.0,,,,,1953.512258132034,1949.978258132034,
93,32,23,f,1,2,85.0,9,2,high,6 + 1 + 1 + 8 - 9,7,7,5,9,1966.0112091000192,1968.035728999996,1969.5511295000324,1974.569367700024,1978.4089800000656,1978.408985899994,1979.9262251000616,1980.9434457999887,w,5.0,3.839612300042063,0,+0,270,-20.119472481692924,0.3224815409295161,-4.146109304925379,1964470.0,-19.994521617037115,-0.3660773675954818,-1.045018805652906,1968004.0,,,,,1969.5492581320339,1966.015258132034,
94,32,23,f,1,2,86.0,10,1,low,7 + 1 + 4 + 1 - 1,12,13,14,12,1982.4602160999784,1984.4865125999784,1986.0017505000576,1991.021887900075,1992.3770016999915,1992.3770076000364,1993.8935537000648,1994.9104249000084,e,12.0,1.3551137999165803,1,+1,271,31.36791552175758,-1.6172026028847668,-0.5757023643892722,1980920.0,-39.25020465860245,0.3854381692551243,1.8945423183080166,1984456.0,,,,,1986.0012581320339,1982.465258132034,
95,32,23,f,1,2,87.0,11,1,high,5 + 6 + 1 + 1 + 1,14,14,16,15,1996.426946600084,1998.4542538999813,1999.969427400036,2004.9873260000024,2007.4489929000847,2007.448998500011,2008.965540400008,2009.9829565000252,q,14.0,2.461666900082492,1,+10,281,25.51461144478744,-1.2993746776501727,-0.20047522732481293,1994889.0,-0.971103332479375,0.8860233198377472,0.08608161855372254,1998422.0,,,,,1999.967258132034,1996.4342581320338,
96,32,23,f,1,2,88.0,12,1,high,3 + 1 + 8 + 1 + 1,14,16,14,13,2011.499784399988,2013.5232017000671,2015.038283800008,2020.0563412000192,2021.23300690006,2021.233012599987,2022.749354999978,2023.7666182999965,w,14.0,1.1766657000407577,1,+10,291,-32.16242935982412,-0.9068278737252253,-0.1493029605751226,2009957.0,-0.10836302999210545,-0.8529288772489636,-1.4549972931093285,2013491.0,,,,,2015.036258132034,2011.502258132034,
97,32,23,f,1,2,89.0,13,3,high,7 - 5 + 9 + 1 - 4,8,8,9,7,2025.283594300039,2027.3060455999805,2028.8212712000825,2033.8397433999928,2036.568990000058,2036.5689958999865,2038.0866918000395,2039.10396940005,q,8.0,2.7292466000653803,1,+10,301,13.292045803727719,0.47339238867400546,0.16567604682925374,2023740.0,12.679639858132987,0.8729323501196982,0.037977591126055144,2027274.0,,,,,2028.8192581320338,2025.285258132034,
98,32,23,f,1,2,90.0,14,2,high,7 + 6 + 1 + 8 + 1,23,23,21,22,2040.6208809000675,2042.649552399991,2044.1648229000857,2049.183375100023,2052.369018999976,2052.3690248000203,2053.8855541000376,2054.9027260000585,w,21.0,3.185643899952993,0,+0,301,14.54785355841735,0.3599237803171178,-0.28661516060769054,2039083.0,7.597699362154933,0.7725981170099185,1.7981712334042215,2042617.0,,,,,2044.162258132034,2040.628258132034,
99,32,23,f,1,2,91.0,15,1,high,8 + 1 + 1 - 1 - 4,5,3,6,5,2056.4196320000337,2058.444275100017,2059.959533000016,2064.9778300999897,2067.848923200043,2067.848929000087,2069.365452100057,2070.3825575000374,e,5.0,2.8710931000532582,1,+10,311,5.2917980201228385,0.26429376328539433,0.047747779507540944,2054878.0,-11.645272465614003,0.7093053646923089,0.334374746883209,2058412.0,,,,,2059.9572581320335,2056.423258132034,
100,32,23,f,1,2,92.0,16,2,low,8 + 1 + 9 + 1 - 5,14,13,15,14,2071.8992500000168,2073.9252909000497,2075.440362800029,2080.45866470004,2083.6649228000315,2083.6649282000726,2085.1814845000627,2086.198785000015,w,15.0,3.206258099991828,0,+0,311,23.118972154309084,0.015825094509606785,1.8437565181668512,2070359.0,17.14198742909815,0.4096472528121389,0.12597400089083388,2073893.0,,,,,2075.4382581320338,2071.9042581320336,
101,32,23,f,1,2,93.0,17,3,low,6 - 1 + 7 - 8 + 9,13,12,13,11,2087.715656300076,2089.753476300044,2091.2687898000004,2096.287639099988,2099.464941299986,2099.4649479000363,2100.981893200078,2101.998972699977,w,13.0,3.177302199997939,1,+1,312,16.22124789186263,0.014084036996573346,0.32407109770370557,2086187.0,-3.1542991506934435,-1.1436935328729767,0.5009018475991089,2089721.0,,,,,2091.2662581320337,2087.7322581320336,
102,32,23,f,1,2,94.0,18,2,low,2 + 1 + 9 - 4 + 1,9,9,8,11,2103.5154544999823,2105.5418036000337,2107.0569542000303,2112.0756119000725,2113.9050230000867,2113.905028400012,2115.4218589999946,2116.438513600034,q,9.0,1.829411100014113,1,+1,313,-5.281973604775025,1.5140739410725121,0.8539663400653104,2101976.0,18.309388332524343,-1.988190351501574,0.6321203427573441,2105509.0,,,,,2107.0542581320337,2103.521258132034,
103,32,23,f,1,2,95.0,19,2,high,6 + 1 + 1 + 7 - 9,6,6,8,4,2117.9552941999864,2119.981095300056,2121.4963504000334,2126.5153106000507,2129.7531267000595,2129.753132099984,2131.269712200039,2132.2869129000464,q,6.0,3.2378161000087857,1,+10,323,10.194080413746356,-0.011193501493742986,-0.45360046981668756,2116415.0,-12.838581239596909,-0.5381379291211772,0.09274174577889793,2119949.0,,,,,2121.494258132034,2117.9602581320337,
104,32,23,f,1,2,96.0,20,1,low,4 + 9 + 1 - 1 - 1,12,12,11,13,2133.803711000015,2135.8291963000083,2137.34419600002,2142.362674100092,2143.9930874999845,2143.993093400029,2145.5094209000235,2146.5262562000426,q,12.0,1.6304133998928592,1,+1,324,-4.356171435342548,1.1108197541957363,0.12197269859828319,2132263.0,15.710856432374605,-1.0764645485528366,0.18167710424762062,2135796.0,,,,,2137.3412581320335,2133.8082581320336,
105,32,23,f,1,2,97.0,21,2,high,4 + 8 + 1 + 1 - 5,9,11,8,9,2148.043012500042,2150.068586700014,2151.58384029998,2156.6021859000903,2158.7530872999923,2158.753092800034,2160.2799818000058,2161.29733500001,e,9.0,2.150901399902068,1,+10,334,-68.57087817568207,-1.0765522676288075,0.024641486859428685,2146502.0,36.24785593275951,1.084388386991515,0.01751861296819146,2150035.0,,,,,2151.5802581320336,2148.0472581320337,
106,32,23,f,1,2,98.0,22,2,high,8 + 1 + 9 + 1 - 4,15,14,16,15,2162.8265667000087,2164.850744300056,2166.366072600009,2171.384088300052,2173.9371776999906,2173.937183100032,2175.4553879000014,2176.472495599999,w,16.0,2.553089399938472,0,+0,334,-20.963937587015533,-0.1050750126472213,3.370495710154121,2161284.0,15.739492352751103,-0.24634306295231134,-0.23791714465087344,2164818.0,,,,,2166.363258132034,2162.829258132034,
107,32,23,f,1,2,99.0,23,1,high,3 + 1 + 8 + 1 + 1,14,12,14,13,2177.9892989000077,2180.015592199983,2181.5308684000047,2186.548798899981,2187.953067400027,2187.9530730000697,2189.469561500009,2190.486950200051,w,14.0,1.4042685000458732,1,+10,344,-21.845432776911775,1.4545548385647553,0.3951744811750797,2176449.0,-16.477109916200856,0.5201424548788474,0.2913813084433132,2179982.0,,,,,2181.5272581320337,2177.994258132034,
108,32,23,f,1,2,100.0,24,1,low,7 + 1 + 4 + 1 - 1,12,13,12,11,2192.0037253000773,2194.030193499988,2195.545231300057,2200.56503920001,2201.865078200004,2201.865083700046,2203.381523600081,2204.3982256000163,w,12.0,1.3000389999942854,1,+1,345,24.83453207884262,-0.87090065184805,-0.18763650800158338,2190463.0,-4.877555690499776,-0.4573790700697913,0.14007585997094574,2193998.0,,,,,2195.5432581320338,2192.008258132034,
109,32,23,f,1,2,101.0,25,3,low,6 + 7 + 8 + 1 - 9,13,13,14,15,2205.914932499989,2207.940637600026,2209.455870200065,2214.4758851000806,2216.953219900024,2216.953225300065,2218.469892500085,2219.486951100058,q,13.0,2.477334799943492,1,+1,346,-19.499641807092505,-1.1349409133095705,-0.09467149025240307,2204374.0,-39.53216770972347,0.8959868012581893,0.6172521950784695,2207909.0,,,,,2209.454258132034,2205.9192581320335,
110,32,23,f,1,2,102.0,26,3,low,8 - 7 + 9 + 1 + 4,15,14,15,16,2221.0039101000875,2223.027826500009,2224.54318040004,2229.5722961000865,2232.681047299993,2232.681052800035,2234.1978053000057,2235.214711799985,w,15.0,3.108751199906692,1,+1,347,-22.718335592600408,1.654698589141594,0.19592599440101477,2219461.0,32.603727803679064,-0.6624927683989839,0.11040271680823777,2223005.0,,,,,2224.550258132034,2221.0062581320335,
111,32,23,f,1,2,103.0,27,2,high,9 + 4 - 6 + 1 - 1,7,7,9,8,2236.731518000015,2238.755695100059,2240.2710975999944,2245.289284700062,2248.31306830002,2248.3130743000656,2249.829526200076,2250.8465389000485,w,9.0,3.023783599957824,0,+0,347,0.30454379700260503,0.020834243939509278,-0.0963522299245283,2235189.0,71.90672345775886,0.1855850954533107,0.01154437968033406,2238722.0,,,,,2240.267258132034,2236.7342581320336,
112,32,23,f,1,2,104.0,28,1,high,5 + 8 - 1 + 1 + 1,14,16,12,14,2252.363642000011,2254.3909266000846,2255.906200800091,2260.92430459999,2262.353138000006,2262.3531437000493,2263.8699582000263,2264.8873406000203,e,14.0,1.4288334000157192,1,+10,357,-64.65060203707776,-0.3282820353344764,0.08183518627058017,2250824.0,42.95219873216596,-0.3067289049507238,0.028646516447881076,2254357.0,,,,,2255.9022581320337,2252.369258132034,
113,32,23,f,1,2,105.0,29,2,low,3 + 9 - 1 - 5 + 1,7,7,6,5,2266.404245499987,2268.430123700062,2269.945119500044,2274.9629886000184,2277.481158500072,2277.4811647000024,2278.997814400005,2280.014710800024,q,7.0,2.5181699000531808,1,+1,358,40.36785279624217,0.07679517686901072,-0.13031708930240615,2264863.0,16.323715730809774,0.06099412438048191,-0.24294042082655576,2268396.0,,,,,2269.941258132034,2266.4082581320336,
114,32,23,f,1,2,106.0,30,3,low,4 + 1 + 8 + 9 - 5,17,18,19,17,2281.5312288000714,2283.5568061000668,2285.0718658000696,2290.0894830999896,2292.6891826000065,2292.689189000055,2294.206106800004,2295.223371500033,q,18.0,2.599699500016868,0,+0,358,-2.1360236412752727,2.4984350408083316,0.0889864087163792,2279990.0,4.538070345359236,0.39844350672690965,0.5896900150481614,2283523.0,,,,,2285.068258132034,2281.5352581320335,
115,32,23,f,1,2,107.0,31,3,high,2 + 9 + 1 - 5 + 7,14,14,15,12,2296.7403536000056,2298.765138000017,2300.2800486000488,2305.298396700062,2307.569227500004,2307.569233300048,2309.0854132000823,2310.1025454000337,e,12.0,2.270830799941905,0,+0,358,16.862691719473762,0.539587713619353,0.4285490117731987,2295198.0,12.011903541266586,0.501469720668398,-0.24724422650425248,2298731.0,,,,,2300.276258132034,2296.7432581320336,
116,32,23,f,1,2,108.0,32,4,high,3 + 8 - 4 + 9 + 6,22,22,21,23,2311.6194882000564,2313.6444492000155,2315.1597700000275,2320.178593500052,2323.9452066000085,2323.9452120000497,2325.4613129000645,2326.479451399995,w,21.0,3.766613099956885,0,+0,358,-12.3141937273729,-1.8859963672204962,0.00508206148803847,2310077.0,9.236497491406375,-0.06447472727904291,0.17075517995344658,2313611.0,,,,,2315.1562581320336,2311.622258132034,
117,32,23,f,1,2,109.0,33,2,high,5 + 7 - 8 + 1 + 1,6,7,8,6,2327.9962663000915,2330.0220630000117,2331.537783000036,2336.557818100089,2338.105279200012,2338.105285100057,2339.621524300077,2340.639350200072,e,6.0,1.547461099922657,1,+10,368,-8.005372025654625,0.4894556357130426,0.4972589016437745,2326455.0,-7.443848912668621,0.618250029650838,0.3569868894140953,2329990.0,,,,,2331.5352581320335,2328.0002581320337,
118,32,23,f,1,2,110.0,34,4,high,3 + 8 - 5 + 9 - 7,8,7,6,8,2342.156401799992,2344.183980000089,2345.699200300034,2350.717700000037,2354.585361400037,2354.5853674000828,2356.10186220007,2357.1187460999936,q,7.0,3.8676613999996334,0,+0,368,-13.202879499315767,3.060603009664786,-5.15605181077704,2340616.0,9.781624473697928,-0.8113759888738414,0.17896305597253237,2344150.0,,,,,2345.695258132034,2342.1612581320337,
119,32,23,f,1,2,111.0,35,2,low,3 + 9 + 1 - 5 + 1,9,9,8,7,2358.635675700032,2360.6610106000444,2362.1761954000685,2367.194457100006,2371.3293521000305,2371.3293584000785,2372.846691400045,2373.863301699981,q,9.0,4.134895000024699,1,+1,369,12.6925599489696,0.6538461018005268,0.20266490887320332,2357093.0,4.2525604507175885,-0.23281903096626166,0.027124600651944775,2360627.0,,,,,2362.1722581320337,2358.6382581320336,
120,32,23,f,1,2,112.0,36,4,high,8 + 4 - 5 + 7 - 6,8,8,6,7,2375.3798331000144,2377.404527100036,2378.919470300083,2383.938141599996,2386.1933827000903,2386.193388200016,2387.7097155000083,2388.7269447,q,8.0,2.255241100094281,1,+10,379,-9.879040932563095,-0.07235910989956373,0.1375693377158811,2373837.0,25.586191784839144,-0.4216494929306229,-0.20303677853540902,2377370.0,,,,,2378.9152581320336,2375.3822581320337,
121,32,23,f,1,2,113.0,37,3,high,7 - 1 + 8 - 6 + 4,12,11,12,13,2390.2436711000046,2392.2684680999955,2393.783755099983,2398.802434900077,2402.8972550000763,2402.8972611000063,2404.413311099983,2405.430892100092,e,13.0,4.094820099999197,0,+0,379,-23.7637444781738,0.9372296896960997,0.004416822709814916,2388700.0,16.5950256953843,-1.0460271455420607,-0.1045380666868061,2392235.0,,,,,2393.780258132034,2390.2452581320335,
122,32,23,f,1,3,114.0,0,3,low,2 + 1 + 9 - 4 + 6,14,14,15,16,2479.0626092000166,2481.088697100058,2482.604088800028,2487.6221765000373,2490.457411600044,2490.4574173000874,2491.974170300062,2492.9912541999947,q,14.0,2.8352351000066847,1,+1,380,14.464869711244615,1.880196467502591,-0.1910671892850111,2477521.0,23.00250287593403,-0.813388582538602,-0.5502722827985775,2481054.0,,,,,2482.599258132034,2479.066258132034,
123,32,23,f,1,3,115.0,1,2,low,4 + 9 - 7 + 1 - 1,6,8,6,5,2494.5081828000257,2496.536274900078,2498.0515394000104,2503.07014299999,2504.545390299987,2504.5453959000297,2506.062031200039,2507.079266100074,e,5.0,1.475247299997136,0,+0,380,-7.282630899610269,0.9568293240782397,0.2700419502169009,2492968.0,-11.151971687881979,1.497041153901483,0.09150889700015385,2496502.0,,,,,2498.0472581320337,2494.5132581320336,
124,32,23,f,1,3,116.0,2,1,high,6 + 9 + 1 + 1 - 1,16,16,14,15,2508.5960080000805,2510.623128100065,2512.138447000063,2517.1578501000768,2518.625343200052,2518.625348599977,2520.1419604000403,2521.168273900053,q,16.0,1.4674930999753997,1,+10,390,-4.106308305495121,-0.8545351340827887,-0.21693525224161503,2507054.0,-72.8957121238612,-2.0125984033159483,-0.14674925038438147,2510589.0,,,,,2512.1342581320337,2508.599258132034,
125,32,23,f,1,3,117.0,3,4,low,8 + 4 + 7 - 5 - 6,8,6,9,8,2522.6851450999966,2524.7126227000263,2526.227919900092,2531.246612900053,2534.0574189000763,2534.0574245000025,2535.574126400053,2536.591236500069,e,8.0,2.810806000023149,1,+1,391,27.41361438669959,2.525814134651463,0.09081851410938357,2521144.0,-32.66141655121831,-0.5307891799237332,0.5836986151468975,2524678.0,,,,,2526.2232581320336,2522.6892581320335,
126,32,23,f,1,3,118.0,4,1,low,8 + 1 + 5 + 1 + 1,16,17,15,16,2538.1076527000405,2540.132774900063,2541.647915699985,2546.6669732000446,2548.2334306000266,2548.233436700073,2549.7503334999783,2550.7671431000344,e,16.0,1.5664573999820277,1,+1,392,-9.700466024497413,-1.1133724099576305,-0.006501808549745469,2536564.0,8.86042440157356,-0.262139904173571,0.05341110658860315,2540098.0,,,,,2541.6432581320337,2538.1092581320336,
127,32,23,f,1,3,119.0,5,4,high,2 + 9 - 6 + 8 - 4,9,11,7,9,2552.283975000028,2554.311507300008,2555.826734800008,2560.859252399998,2562.585485700052,2562.585491699981,2564.102137100068,2565.1196611000923,e,9.0,1.726233300054446,1,+10,402,-32.79349632195913,0.5794527189228331,0.08527264233087672,2550743.0,6.654581759193206,-1.0317730384866266,0.7753851045816924,2554291.0,,,,,2555.836258132034,2552.2882581320337,
128,32,23,f,1,3,120.0,6,4,low,3 + 9 - 4 + 7 + 6,21,20,19,21,2566.636988000013,2568.6627343000146,2570.178824400064,2575.197341400082,2578.473547499976,2578.4735533000203,2579.9898577000718,2581.0076836000662,w,19.0,3.2762060998938978,0,+0,402,-11.564814588358775,-0.5539156081246759,-0.14787707123116856,2565094.0,37.23949134992456,-0.3314632775436177,-0.03481950157155511,2568628.0,,,,,2570.173258132034,2566.639258132034,
129,32,23,f,1,3,121.0,7,1,high,8 + 1 + 1 + 1 - 3,8,9,8,6,2582.5244736000896,2584.548713200027,2586.0643026999896,2591.082493300084,2592.625532099977,2592.62553770002,2594.142124200007,2595.160065100062,w,8.0,1.543038799893111,1,+10,412,8.665078137879187,-1.1559040336738384,-0.08086448732489915,2580980.0,13.767426162492509,0.45969003559439514,0.26078352488589607,2584514.0,,,,,2586.059258132034,2582.5252581320337,
130,32,23,f,1,3,122.0,8,3,high,5 + 6 - 4 - 1 + 7,13,15,13,14,2596.6770611000247,2598.701592000085,2600.216517699999,2605.234505600063,2608.753397500026,2608.75340330007,2610.2698738999898,2611.287185100024,e,14.0,3.518891899962909,0,+0,412,26.57854165186736,0.2544277441141265,-0.37731934518983934,2595133.0,39.617969177675135,-2.07250115735148,0.28004974683481687,2598666.0,,,,,2600.211258132034,2596.6782581320335,
131,32,23,f,1,3,123.0,9,4,high,7 + 6 + 8 - 4 + 5,22,22,23,21,2612.804140500026,2614.829004700063,2616.344287100015,2621.3641680000583,2623.5134348000865,2623.5134404000128,2625.0299737000605,2626.0476100000087,e,21.0,2.149266800028272,0,+0,412,4.360115945579903,0.10152097237952695,0.10266683361917206,2611260.0,27.549851530452884,-2.2692057573340474,0.05703666510011618,2614795.0,,,,,2616.340258132034,2612.805258132034,
132,32,23,f,1,3,124.0,10,3,low,4 + 8 - 3 + 5 - 1,13,12,14,13,2627.564470799989,2629.591179599985,2631.106480100076,2636.1247070999816,2639.40938810003,2639.4093949000817,2640.9257817000616,2641.942514800001,e,13.0,3.2846810000482947,1,+1,413,-29.346026918154788,-1.6705943163766719,-1.515210464657173,2626022.0,-24.61081480066652,0.7089824167301302,0.632184702368042,2629556.0,,,,,2631.1012581320338,2627.5672581320337,
133,32,23,f,1,3,125.0,11,4,high,5 + 7 - 4 + 6 + 9,23,25,23,24,2643.459307000041,2645.4838501000777,2646.998911499977,2652.018696199986,2653.737539199996,2653.73754500004,2655.2542463000864,2656.271349200048,e,24.0,1.718843000009656,0,+0,413,17.523017996579597,0.8061465890356292,0.030241568403153618,2641915.0,-19.083342087922503,0.18586793297842163,-0.17966123191652095,2645450.0,,,,,2646.9952581320335,2643.4602581320337,
134,32,23,f,1,3,126.0,12,4,low,3 + 8 - 4 + 9 + 7,23,24,23,22,2657.788056200021,2659.8152453000657,2661.3304952000035,2666.3489097000565,2669.1455886000767,2669.1455944000045,2670.6619516999926,2671.6790201000404,e,22.0,2.796678900020197,0,+0,413,39.28847922162437,0.9579569405984962,0.18892382283818954,2656246.0,-29.528899109128275,1.4633593825353355,-0.9341369294841773,2659780.0,,,,,2661.325258132034,2657.791258132034,
135,32,23,f,1,3,127.0,13,2,low,2 + 1 + 9 - 4 + 1,9,9,11,8,2673.195780500071,2675.2217838000506,2676.7365282999817,2681.756804700009,2684.961568500032,2684.9615754000843,2686.478339100024,2687.4950513000367,q,9.0,3.2047638000221923,1,+1,414,19.739095926560626,-1.3190933106113025,-0.15396749660965137,2671652.0,-15.133352956934637,-0.25077637854380797,0.11585647484003214,2675187.0,,,,,2676.7322581320336,2673.1972581320338,
136,32,23,f,1,3,128.0,14,1,low,2 + 1 + 9 + 1 - 1,12,13,11,12,2689.011822600034,2691.0355607999954,2692.5507562999846,2697.5687990000006,2698.945824000053,2698.945830199984,2700.462393100024,2701.479384500068,e,12.0,1.3770250000525266,1,+1,415,27.67200536038124,-0.6307231166645586,-0.32596801584562884,2687466.0,-91.1176797995148,0.8424067531133623,0.15371115490713727,2691000.0,,,,,2692.5452581320337,2689.0112581320336,
137,32,23,f,1,3,129.0,15,4,low,6 + 7 + 9 - 3 + 5,24,24,22,23,2702.996306200046,2705.022122800001,2706.5379588999785,2711.5568974000635,2714.881615700084,2714.8816215000115,2716.398147400003,2717.4154050999787,e,23.0,3.324718300020322,0,+0,415,21.635822005976124,0.11568505022863462,-0.13528847666077892,2701453.0,21.281960730418565,-0.6700767780473207,0.05381326464460212,2704987.0,,,,,2706.532258132034,2702.9982581320337,
138,32,23,f,1,3,130.0,16,1,low,2 + 1 + 9 + 1 - 1,12,11,12,13,2718.932184700039,2720.958455800079,2722.473700300092,2727.492373300018,2728.82552459999,2728.8255303000333,2730.341987400083,2731.3588124000235,w,12.0,1.3331512999720871,1,+1,416,-29.285210739438412,0.45700378621315174,0.09893418370681228,2717389.0,81.47260869966742,0.01089317411648949,0.11494777045151094,2720922.0,,,,,2722.4672581320337,2718.934258132034,
139,32,23,f,1,3,131.0,17,4,low,6 + 9 + 7 - 3 - 5,14,15,14,13,2732.875658100005,2734.9017615000485,2736.417181800003,2741.435779900057,2743.1456140000373,2743.1456202000845,2744.661844099988,2745.678623800049,w,14.0,1.7098340999800712,1,+1,417,18.981514106299418,-0.5816862890607748,-0.06144608292079701,2731332.0,-46.91235837656056,0.5510903408796413,0.18379397434218214,2734866.0,,,,,2736.4112581320337,2732.8772581320336,
140,32,23,f,1,3,132.0,18,2,high,6 + 1 + 7 + 5 - 1,18,17,18,16,2747.2440140000544,2749.267921300023,2750.782598900026,2755.8012270000763,2757.0095947000664,2757.009600599995,2758.525916100014,2759.5430376000004,w,18.0,1.208367699990049,1,+10,427,-8.6076843167688,-0.33513849503166604,-0.0353598836719895,2745698.0,19.11866548940589,0.31434867479114637,0.2101015436934952,2749232.0,,,,,2750.7772581320337,2747.2432581320336,
141,32,23,f,1,3,133.0,19,4,high,9 + 4 - 6 + 8 + 7,22,22,24,21,2761.0598303000443,2763.088003600016,2764.603209400084,2769.6219477000413,2773.4654935,2773.4654991000425,2774.981922400068,2775.999019099981,w,24.0,3.84354579995852,0,+0,427,27.81099414983451,-1.0682853320141312,-0.0538861368917436,2759518.0,-6.370781224788018,-0.32043504599711525,0.135014273453411,2763052.0,,,,,2764.597258132034,2761.0632581320338,
142,32,23,f,1,3,134.0,20,3,low,2 + 1 + 9 - 5 + 6,13,13,11,14,2777.5158152000517,2779.5400906000286,2781.0553240000736,2786.073093899992,2788.385721000028,2788.3857266000705,2789.9022897999967,2790.9190058000386,q,13.0,2.3126271000364795,1,+1,428,-11.897946857120381,1.073900615342012,-1.9490369580647107,2775970.0,-24.354336986092044,-0.18036722051025578,-0.04696012287345552,2779504.0,,,,,2781.0492581320336,2777.5152581320335,
143,32,23,f,1,3,135.0,21,4,high,9 + 3 - 5 + 8 + 6,21,23,19,21,2792.4358932999894,2794.4613001000835,2795.9765625,2800.995019200025,2802.769618200022,2802.769624000066,2804.285988299991,2805.3029465000145,e,21.0,1.7745989999966696,1,+10,438,18.580826398689794,1.458669581215542,0.15324217952736308,2790891.0,-28.002083551565107,0.3705798956004429,0.01791278848126665,2794425.0,,,,,2795.970258132034,2792.436258132034,
144,32,23,f,1,3,136.0,22,3,low,6 - 1 + 7 - 8 + 9,13,13,12,11,2806.819828800042,2808.847109000082,2810.3622894000728,2815.380917500006,2818.721574400086,2818.721580000012,2820.237985100015,2821.2551722000358,e,11.0,3.340656900079921,0,+0,438,-17.156211281813484,-0.9402252343790245,0.040935615232271516,2805276.0,17.691819324919415,1.4144200057799683,0.04366341717380218,2808811.0,,,,,2810.356258132034,2806.8212581320336,
145,32,23,f,1,3,137.0,23,3,low,7 + 5 + 9 + 1 - 6,16,16,15,14,2822.772132500075,2824.796823800076,2826.312029200024,2831.333177800057,2836.350366000086,2836.350368599989,2837.867520500091,2838.886487900046,,,,0,Too Slow!,438,-3.168684042548861,-0.07464436030518762,0.01607610215394839,2821227.0,22.63430353775996,-0.41516621502474393,0.17624620183434825,2824762.0,,,,,2826.307258132034,2822.7722581320336,
146,32,23,f,1,3,138.0,24,1,low,6 + 1 + 8 + 1 - 1,15,13,15,14,2840.403307300061,2842.4291680000024,2843.944230300025,2848.963543000049,2850.4576307000825,2850.457636200008,2851.974172400078,2852.9909874000587,w,15.0,1.4940877000335604,1,+1,439,-9.409671626694822,2.3720246705847385,0.28399125857100005,2838859.0,20.92603307701728,-1.3301675149339367,0.2038843861022277,2842393.0,,,,,2843.9382581320338,2840.4042581320336,
147,32,23,f,1,3,139.0,25,4,low,4 + 7 + 9 - 5 + 7,22,22,23,24,2854.5078680000734,2856.535195900011,2858.0505833000643,2863.069049200043,2866.2176743000746,2866.217679900001,2867.7342419000342,2868.7510506000835,q,22.0,3.148625100031495,1,+1,440,20.10946747507585,0.6099471845170239,-0.10585090327816626,2852965.0,0.5823090621534343,0.7900107698663117,-0.18540722124925813,2856499.0,,,,,2858.0442581320335,2854.510258132034,
148,32,23,f,1,3,140.0,26,4,low,8 + 5 - 4 + 7 + 9,25,25,24,26,2870.2678665000712,2872.291181400069,2873.806413699989,2878.825458000065,2881.585732400068,2881.5857391000027,2883.1030984000536,2884.150643400033,q,25.0,2.7602744000032544,1,+1,441,17.45892901614856,-1.7119286889636882,0.09047605682550586,2868721.0,19.385912824828,-1.0726783511353286,0.23732017245827786,2872254.0,,,,,2873.7992581320336,2870.2662581320337,
149,32,23,f,1,3,141.0,27,1,high,2 + 1 + 1 + 9 - 1,12,11,13,12,2885.6675651000114,2887.694782900042,2889.20966589998,2894.228141900036,2896.7936847000383,2896.793690900085,2898.310229100054,2899.327488600044,e,12.0,2.5655428000027314,1,+10,451,-44.98546918192469,-0.6164664670983147,-0.014503291042437638,2884125.0,-30.85591937303699,-0.37969498835385984,0.18688884637832848,2887657.0,,,,,2889.202258132034,2885.6702581320337,
150,32,23,f,1,3,142.0,28,4,high,9 + 8 - 5 - 7 + 6,11,10,13,11,2900.8448590000626,2902.867214300088,2904.382043700083,2909.400838600006,2913.1296673000325,2913.1296728000743,2914.6464801999973,2915.66343960003,q,10.0,3.728828700026497,0,+0,451,-15.735770053811084,0.7235630403452227,0.5033223031729914,2899297.0,-26.60977125326423,-0.22410194964710506,0.10485038754485099,2902830.0,,,,,2904.3752581320337,2900.8422581320337,
151,32,23,f,1,3,143.0,29,3,high,4 + 7 + 1 + 9 - 5,16,17,16,18,2917.18012819998,2919.2070566000184,2920.722279699985,2925.7408590000123,2929.7057737000287,2929.7057796000736,2931.2224152000854,2932.2395113999955,q,17.0,3.9649147000163794,0,+0,451,-1.8093878426170633,4.6717517306133,0.026986296435209667,2915637.0,-19.067265079069145,-0.08058182635434896,-0.013245890655201542,2919170.0,,,,,2920.715258132034,2917.182258132034,
152,32,23,f,1,3,144.0,30,1,high,7 - 1 + 9 + 1 - 1,15,14,15,13,2933.7559700000565,2935.7805238000583,2937.295797000057,2942.3157643000595,2945.281758100027,2945.28176370007,2946.798283400014,2947.8153075000737,w,15.0,2.9659937999676917,1,+10,461,-14.941718487399084,-1.2383026396302448,0.39251370270926866,2932210.0,-5.398231829708552,1.1174087784607298,0.06488450043473426,2935745.0,,,,,2937.2902581320336,2933.7552581320338,
153,32,23,f,1,3,145.0,31,2,low,7 + 1 + 9 - 1 - 8,8,8,7,6,2949.3322137000505,2951.359215100063,2952.8750816000397,2957.8935358000454,2960.6498528000666,2960.649858699995,2962.1661812000675,2963.183077600086,q,8.0,2.7563170000212267,1,+1,462,-11.308343630129752,0.1670255613875522,0.8323546264089927,2947788.0,-0.35835023325938,0.36212131292557537,-0.162714258508305,2951323.0,,,,,2952.8682581320336,2949.3332581320337,
154,32,23,f,1,3,146.0,32,4,high,5 + 8 - 4 - 6 + 9,12,14,12,13,2964.699609800009,2966.727180900052,2968.242189200013,2973.260603300063,2975.993683599984,2975.993689200026,2977.5102988000726,2978.5274636000395,q,14.0,2.7330802999204025,0,+0,462,34.24941101224401,0.6712096333163053,0.4461480620010707,2963156.0,28.00875945676663,-0.30215313210978856,0.21281250611111657,2966689.0,,,,,2968.2342581320336,2964.7012581320337,
155,32,23,f,1,3,147.0,33,1,low,6 + 1 + 8 + 1 + 1,17,17,16,15,2980.044481900055,2982.0703628000338,2983.585498700035,2988.604061500053,2989.865781600005,2989.865787200048,2991.382470200071,2992.399698800058,q,17.0,1.261720099952072,1,+1,463,2.625676058202295,0.493973050433941,0.3150513911035602,2978499.0,13.913863282333663,-0.750193806139432,-0.03388866628664644,2982033.0,,,,,2983.5782581320336,2980.0442581320335,
156,32,23,f,1,3,148.0,34,2,high,2 + 9 + 1 + 1 - 5,8,8,6,7,2993.9170142000075,2995.942342100083,2997.457577300025,3002.475976200076,3006.4818334000884,3006.481839200016,3007.9988994000014,3009.016247200081,q,8.0,4.005857200012542,1,+10,473,7.135742534986054,-0.5314676329905037,0.03493868002915068,2992371.0,-8.868593950866458,-0.4366592146253687,0.011523156952828906,2995905.0,,,,,2997.450258132034,2993.916258132034,
157,32,23,f,1,3,149.0,35,4,low,5 + 7 - 4 - 6 + 9,11,12,11,13,3010.5337827000767,3012.5568877999904,3014.07207330002,3019.09069360001,3020.2737698000856,3020.273775800015,3021.790887500043,3022.8087303000502,w,11.0,1.1830762000754476,1,+1,474,2.4349568936549026,4.6572521656325145,0.07314714642811815,3008986.0,5.81983143444195,-0.9794676189669946,-0.05332503457295168,3012519.0,,,,,3014.0642581320335,3010.5312581320336,
158,32,23,f,1,3,150.0,36,1,high,3 + 1 + 1 + 8 - 1,12,13,12,14,3024.3251845000777,3026.351103299996,3027.86645020009,3032.884857300087,3034.2897642999887,3034.289769600029,3035.80657460005,3036.823655300075,e,14.0,1.4049069999018684,0,+0,474,-13.442510681128365,0.021848042650962185,0.24565518220292226,3022780.0,2.6263301842817537,0.6010666477654532,0.11026023044815325,3026314.0,,,,,3027.8592581320336,3024.325258132034,
159,32,23,f,1,3,151.0,37,1,low,2 + 1 + 9 + 1 + 1,14,12,14,13,3038.3401885000058,3040.365784500027,3041.8809853000566,3046.8994926000014,3048.657793499995,3048.657799900044,3050.1742299000034,3051.1913540000096,w,14.0,1.7583008999936285,1,+1,475,-22.16399319518066,0.20307919582158895,0.10128334520322158,3036795.0,-29.775410757942016,1.6019407476642957,-2.1930111231350025,3040327.0,,,,,3041.872258132034,3038.340258132034,
160,32,23,f,1,4,152.0,0,1,high,6 + 1 + 1 + 7 - 1,14,13,12,14,3118.686120000086,3120.713571300032,3122.2287166999886,3127.248863200075,3130.1779195000418,3130.177925600088,3131.694607599988,3132.711709000054,q,13.0,2.92905629996676,0,+0,475,50.235341350965605,4.3664117144861505,0.17546877828636398,3117142.0,15.097101915410498,-0.6322053780181509,6.0987175247165775,3120677.0,,,,,3122.222258132034,3118.6872581320335,
161,32,23,f,1,4,153.0,1,2,low,7 + 8 + 1 + 9 + 1,26,24,25,26,3134.228466300061,3136.2554823000683,3137.7704592000227,3142.7906175000826,3145.1779781000223,3145.1779839000665,3146.694733500015,3147.712359099998,e,26.0,2.3873605999397114,1,+1,476,-31.92048656377326,3.995886124365059,0.13099983363058465,3132683.0,-56.371926781937574,0.25978494249420336,2.1894451137300175,3136219.0,,,,,3137.764258132034,3134.2282581320337,
162,32,23,f,1,4,154.0,2,2,low,3 + 8 + 1 - 5 + 1,8,8,6,9,3149.2293173000216,3151.254427300068,3152.769116700045,3157.8021323999856,3160.4659955999814,3160.4660014000256,3161.9826616999926,3162.9994941999903,q,8.0,2.6638631999958307,1,+1,477,39.53363863607939,-0.35175884490807796,-0.329653185363898,3147682.0,4.077859588359315,0.5426313170613692,-0.14586486570018398,3151230.0,,,,,3152.7752581320337,3149.2272581320335,
163,32,23,f,1,4,155.0,3,2,high,6 + 1 + 7 - 8 - 1,5,7,5,4,3164.516527700005,3166.5421407000395,3168.057182600023,3173.075984199997,3175.3858767000493,3175.38588289998,3176.9020421000896,3177.918897000025,w,5.0,2.309892500052229,1,+10,487,-30.278717525738344,-0.5678186075327325,-0.26351590078573883,3162970.0,49.1016443276204,-4.158500649306921,-0.18581924549812956,3166504.0,,,,,3168.0492581320336,3164.5152581320335,
164,32,23,f,1,4,156.0,4,1,low,5 + 9 - 1 + 1 + 1,15,13,15,17,3179.435684800032,3181.463676300016,3182.978979300009,3187.996984900092,3189.881834400003,3189.881840300048,3191.3984880000357,3192.415181300021,w,15.0,1.8848494999110696,1,+1,488,-19.108975961104008,-1.7201591455229002,-0.07835601511891066,3177891.0,23.895238757412812,0.4572989733418531,0.020700344722575315,3181425.0,,,,,3182.970258132034,3179.436258132034,
165,32,23,f,1,4,157.0,5,2,low,6 + 8 + 1 + 1 - 7,9,11,8,9,3193.9321403000504,3195.9579730000114,3197.472906299983,3202.493042499991,3205.817980300053,3205.817986199981,3207.3346939000767,3208.351796500036,q,11.0,3.324937800061889,0,+0,488,-44.750371209326325,-0.15451728833901157,-0.01818295191674668,3192386.0,-17.401375029428902,-0.8062490689212467,-0.2268991434508929,3195921.0,,,,,3197.4662581320335,3193.9312581320337,
166,32,23,f,1,4,158.0,6,2,high,5 - 8 + 7 + 1 + 1,6,8,7,6,3209.868700399995,3211.893762400025,3213.4090628999984,3218.428086500033,3221.3379479000578,3221.337953699985,3222.8544668999966,3223.871700700023,q,8.0,2.9098614000249654,0,+0,488,12.496404873472297,1.1204950465038408,0.06219677929530798,3208320.0,13.727657744660608,0.7422494067862893,0.09695776807169931,3211856.0,,,,,3213.401258132034,3209.865258132034,
167,32,23,f,1,4,159.0,7,2,high,4 + 7 + 1 + 1 - 8,5,5,7,4,3225.3885197000345,3227.41311590001,3228.92831410002,3233.9467547000386,3236.6579956000205,3236.658001600066,3238.1747712000506,3239.192184100044,q,5.0,2.711240899981931,1,+10,498,19.626334314689984,1.953221407773869,-0.14633016901670604,3223841.0,31.887319130981506,0.13260848484989118,-0.009548250569249905,3227374.0,,,,,3228.9192581320335,3225.3862581320336,
168,32,23,f,1,4,160.0,8,2,low,4 + 1 + 9 + 1 - 6,9,9,8,7,3240.7094360999763,3242.735279000015,3244.250561000081,3249.268702700036,3250.4899061000906,3250.4899114000145,3252.0070505000185,3253.0239376000827,q,9.0,1.2212034000549463,1,+1,499,-2.7415116865548796,3.0343235609496864,0.10012191634028889,3239163.0,-15.919922510417521,1.6302199295151691,-0.027198545746638825,3242696.0,,,,,3244.2412581320336,3240.7082581320337,
169,32,23,f,1,4,161.0,9,4,high,9 + 7 - 5 + 8 + 6,25,25,27,24,3254.5403935000068,3256.5687000000617,3258.08395,3263.102752499981,3265.59407360002,3265.5940793000627,3267.1107413000427,3268.127973500057,e,24.0,2.4913211000384763,0,+0,499,-3.380579031981279,-1.165876134210702,0.1582611839813135,3252996.0,-2.591333146746072,1.3147919501123786,-0.10737274455780543,3256530.0,,,,,3258.075258132034,3254.541258132034,
170,32,23,f,1,4,162.0,10,2,low,4 + 9 + 1 - 7 - 1,6,5,8,6,3269.644999100012,3271.6697510000085,3273.1849794000154,3278.20593549998,3279.7779138000915,3279.777919300017,3281.2942645000294,3282.311259399983,e,6.0,1.5719783001113683,1,+1,500,26.909740414332916,0.5012054393039485,0.03162667025140631,3268097.0,7.928384895952755,1.3719245282812915,0.030818404006308642,3271633.0,,,,,3273.1782581320335,3269.642258132034,
171,32,23,f,1,4,163.0,11,3,low,8 + 3 + 1 - 7 + 9,14,15,14,12,3283.828012800077,3285.855868200073,3287.3711907999823,3292.3906405000016,3295.1621420000447,3295.162147800089,3296.6806658999994,3297.697551600053,w,14.0,2.7715015000430867,1,+1,501,2.565161559814065,-0.13936635858221358,0.029227455816847714,3282283.0,17.774129089970778,0.741540627208856,0.17963733189109132,3285817.0,,,,,3287.3622581320337,3283.8282581320336,
172,32,23,f,1,4,164.0,12,2,high,5 - 1 + 1 + 8 + 9,22,21,22,23,3299.214802399976,3301.2408796000527,3302.756077200058,3307.7742283000844,3309.3780695000896,3309.378075100016,3310.894803800038,3311.9118723000865,e,23.0,1.603841200005263,0,+0,501,11.620390361204333,-0.5087383051622023,-0.10671139900294335,3297668.0,-21.539299528121013,1.1458217882093713,0.08080869496600007,3301201.0,,,,,3302.7462581320337,3299.213258132034,
173,32,23,f,1,4,165.0,13,1,high,6 + 9 + 1 + 1 - 1,16,15,16,14,3313.4290941000218,3315.454342400073,3316.969476700062,3321.9881808999926,3324.6739634000696,3324.6739690999966,3326.19057560002,3327.2077293000184,w,16.0,2.685782500077039,1,+10,511,-0.12971755023614762,-2.028461380291188,-0.10473153597104945,3311882.0,1.9982589917295641,1.2058482048689072,0.19444735056395768,3315415.0,,,,,3316.9602581320337,3313.427258132034,
174,32,23,f,1,4,166.0,14,1,low,9 + 7 + 1 + 1 + 1,19,19,20,18,3328.725198799977,3330.7528540000785,3332.267985200044,3337.286134700058,3338.602020299993,3338.602025900036,3340.1190707000205,3341.13596330001,q,19.0,1.3158855999354273,1,+1,512,-7.962668776409382,0.8782645348178271,0.09127537570192734,3327179.0,-8.882589529396775,1.2389985333810696,-0.07939529375400456,3330713.0,,,,,3332.258258132034,3328.724258132034,
175,32,23,f,1,4,167.0,15,3,low,7 - 6 + 8 + 1 + 7,17,16,15,17,3342.6528030000627,3344.67836260004,3346.193680300028,3351.2137107000453,3353.714111300069,3353.7141170999967,3355.230809599976,3356.247469300055,e,17.0,2.500400600023568,1,+1,513,32.169536086497374,-1.346330395275647,-0.12529852162642463,3341105.0,-34.99211377030174,1.6702562395236757,0.09418458545479336,3344640.0,,,,,3346.1852581320336,3342.6502581320337,
176,32,23,f,1,4,168.0,16,1,low,7 + 1 + 5 + 1 - 1,13,14,13,12,3357.76422500005,3359.791695900029,3361.307423799997,3366.325632299995,3369.098066200037,3369.0980716000777,3370.61461290007,3371.631609300035,q,14.0,2.7724339000415057,0,+0,513,-12.4117674627712,-0.25994016731035785,0.27986721561884687,3356218.0,109.76731673597708,0.06421450264515016,0.12211267286459848,3359753.0,,,,,3361.298258132034,3357.7632581320336,
177,32,23,f,1,4,169.0,17,2,low,5 + 8 + 1 - 1 + 9,22,22,21,23,3373.1491320000496,3375.1752992999973,3376.6905723999957,3381.709634600091,3384.810051599983,3384.810057600029,3386.3266235999763,3387.3431639000773,q,22.0,3.100416999892332,1,+1,514,-13.278708214402975,-3.762900603238763,0.12414354025020202,3371602.0,-2.8138750756603974,-1.8570552734206984,-0.24540302323371344,3375137.0,,,,,3376.682258132034,3373.1472581320336,
178,32,23,f,1,4,170.0,18,4,low,2 + 9 - 3 + 5 + 8,21,21,23,22,3388.8599273000145,3390.8875735000474,3392.402816800052,3397.42125340004,3400.2981767000165,3400.2981821000576,3401.81483170006,3402.845276999986,q,21.0,2.8769232999766245,1,+1,515,2.216803104932133,0.39479473646705543,-0.04515293302700729,3387314.0,-17.715362936327683,0.14556707494271848,0.007825390955897404,3390848.0,,,,,3392.3932581320337,3388.8592581320336,
179,32,23,f,1,4,171.0,19,1,low,7 + 1 + 4 + 1 - 1,12,12,13,11,3404.362019299995,3406.3881163999904,3407.903400500072,3412.9233500000555,3414.034147100057,3414.034152699984,3415.550745800021,3416.567725500092,q,12.0,1.110797100001946,1,+1,516,-13.712988071025219,-1.4967927659559042,-0.04185728942407252,3402814.0,-27.992532106644852,-0.38730760905151307,0.1516583981943802,3406350.0,,,,,3407.8952581320336,3404.3592581320336,
180,32,23,f,1,4,172.0,20,4,low,6 + 5 - 7 + 8 - 9,3,5,3,4,3418.084151700022,3420.1109507000074,3421.626340500079,3426.645080300048,3429.346173200058,3429.3461786999837,3430.862726500025,3431.8797818000894,q,5.0,2.701092900009826,0,+0,516,8.800453642573189,-0.04085825951252531,-0.13933187319591234,3416538.0,-20.09024731441,-0.9982596758434408,-0.14938850597461295,3420071.0,,,,,3421.6162581320336,3418.0832581320337,
181,32,23,f,1,4,173.0,21,3,low,5 + 6 - 4 - 1 + 8,14,15,16,14,3433.3969052000903,3435.422884600004,3436.938360000029,3441.958635100047,3445.5541981999995,3445.5542044000467,3447.070791200036,3448.087895000004,q,15.0,3.595563099952414,0,+0,516,46.615691914879164,1.1417733069459874,-0.10614375871742099,3431849.0,-12.591150314903592,0.5895909568033293,-0.050957794339015594,3435384.0,,,,,3436.9292581320337,3433.394258132034,
182,32,23,f,1,4,174.0,22,3,high,5 - 1 - 4 + 6 + 7,13,13,15,14,3449.604481599992,3451.6286521999864,3453.1438449000707,3458.162552800029,3461.074203300057,3461.074210299994,3462.591404100065,3463.608567000017,q,13.0,2.911650500027463,1,+10,526,-48.61135334547472,-0.3916372157156385,0.7875181229155288,3448054.0,20.286478308551278,1.1067868456504808,0.17824918365388154,3451589.0,,,,,3453.1342581320337,3449.599258132034,
183,32,23,f,1,4,175.0,23,3,high,9 - 5 - 1 - 6 + 8,5,4,5,7,3465.125351800001,3467.147329700063,3468.6630075,3473.68096040003,3476.8821885000216,3476.8821988999844,3478.398715700023,3479.416297800024,e,7.0,3.2012280999915674,0,+0,526,-48.67290371536105,0.5632763591093237,-0.6677131336703543,3463574.0,25.574378869078433,-0.41669068564273104,-0.021831409125179446,3467107.0,,,,,3468.6522581320337,3465.119258132034,
184,32,23,f,1,4,176.0,24,3,high,2 + 9 - 3 + 4 + 1,13,13,14,11,3480.933194200042,3482.957444800064,3484.4727677999763,3489.500720800017,3491.778245100053,3491.7782510999823,3493.2948297000257,3494.312500900007,q,13.0,2.277524300036021,1,+10,536,21.946911979714965,-1.2280965001924038,0.17475082347174764,3479384.0,-27.775102783077493,0.14318342415703178,0.1361414551314215,3482926.0,,,,,3484.4712581320337,3480.9292581320337,
185,32,23,f,1,4,177.0,25,4,high,4 + 7 - 8 + 9 - 4,8,8,9,7,3495.8292825000826,3497.855628199992,3499.3708418000024,3504.405180800008,3506.858174300054,3506.858179599978,3508.375252000056,3509.392616600031,w,9.0,2.452993500046432,0,+0,536,-9.975776746901559,0.9226669320464307,-4.45895859977781,3494281.0,2.0860170722030524,0.21727325104965622,-0.00043475775298262853,3497831.0,,,,,3499.376258132034,3495.8262581320337,
186,32,23,f,1,4,178.0,26,2,low,9 + 6 + 1 + 7 + 1,24,24,25,23,3510.958805900067,3512.984572899993,3514.499736900092,3519.5176812000573,3524.242254300043,3524.2422600000864,3525.7589680000674,3526.776098000002,q,24.0,4.724573099985719,1,+1,537,-8.330855304650107,-5.2160616894187255,0.10347530735602017,3509411.0,8.589350620449183,1.6487743564967747,0.1604845068456484,3512944.0,,,,,3514.4892581320337,3510.956258132034,
187,32,23,f,1,4,179.0,27,1,low,3 + 1 + 1 + 9 - 1,13,13,14,12,3528.2928308000555,3530.3184287000918,3531.833679000032,3536.8516631000675,3539.2822747000027,3539.282280500047,3540.7989958000835,3541.815802099998,q,13.0,2.4306115999352187,1,+1,538,31.312189157261766,-0.4604061761210474,0.13912764095087793,3526744.0,-20.273685285797065,0.053062549639729895,1.0937774756942424,3530278.0,,,,,3531.8232581320335,3528.289258132034,
188,32,23,f,1,4,180.0,28,2,high,3 + 1 + 8 - 5 - 1,6,6,7,5,3543.3323905,3545.3592413000297,3546.874552000081,3551.8924618000165,3555.314160300069,3555.314167100005,3556.830783799989,3557.848054900067,q,6.0,3.421698500053026,1,+10,548,-67.34842057752164,-1.6972974641678356,-0.14663031787977188,3541785.0,5.743904119171138,0.12488951403536319,0.14079044589935452,3545319.0,,,,,3546.8642581320337,3543.3302581320336,
189,32,23,f,1,4,181.0,29,1,low,2 + 9 + 1 + 1 + 1,14,14,13,12,3559.364896500017,3561.3891519000754,3562.9044365000445,3567.922502100002,3569.8021693000337,3569.8021776999813,3571.3186615000013,3572.3358776000096,q,14.0,1.8796672000316903,1,+1,549,1.45666602045182,-0.5176165489640141,0.11531434023933906,3557815.0,6.46202956658267,0.5010366242609408,0.4796306229495344,3561348.0,,,,,3562.8932581320337,3559.360258132034,
190,32,23,f,1,4,182.0,30,2,low,4 + 9 - 7 + 1 - 1,6,5,6,8,3573.8523317000363,3575.8789269999834,3577.3941496000625,3582.412826900021,3585.1381873000646,3585.1381934999954,3586.654815600021,3587.671613499988,q,5.0,2.725360400043428,0,+0,549,4.985538006371592,-0.46410298327857724,-0.0023124667437102175,3572304.0,-20.22749104349425,-0.3036438458890416,0.18185111635235374,3575838.0,,,,,3577.383258132034,3573.849258132034,
191,32,23,f,1,4,183.0,31,1,low,4 + 1 + 1 + 7 - 1,12,14,12,13,3589.188440900063,3591.2151059000757,3592.730647600023,3597.749113099999,3599.5542578999884,3599.554263600032,3601.071277100011,3602.0871956000337,w,12.0,1.805144799989648,1,+1,550,9.47097536422967,1.357534721003633,-0.15246497299856765,3587640.0,1.996098962291116,-0.13044083414241925,0.021700421293403105,3591175.0,,,,,3592.720258132034,3589.1852581320336,
192,32,23,f,1,4,184.0,32,3,high,4 + 8 - 9 + 1 + 7,11,13,9,11,3603.6041529000495,3605.628135100007,3607.143272700021,3612.1641325000674,3615.130324700032,3615.130330800079,3616.647149400087,3617.6647349999994,e,11.0,2.966192199965008,1,+10,560,22.989183036367187,0.11819844055389517,-0.07203472476205453,3602054.0,-1.1281452926040565,1.274821361331215,0.00765340393510372,3605589.0,,,,,3607.1342581320337,3603.599258132034,
193,32,23,f,1,4,185.0,33,3,high,8 + 4 + 1 - 7 + 9,15,13,16,15,3619.1818161000265,3621.2078283000737,3622.723072300083,3627.742128700018,3631.242282900028,3631.2422886000713,3632.7587084000697,3633.775623199996,q,13.0,3.5001542000100017,0,+0,560,-2.22551704795373,-1.147308075109402,-0.1203358200843394,3617633.0,-13.784893456199253,-0.4060435062498069,0.03666239557804363,3621167.0,,,,,3622.7122581320336,3619.1782581320335,
194,32,23,f,1,4,186.0,34,1,high,7 - 1 + 8 + 1 - 1,14,14,12,13,3635.292276200024,3637.31773920008,3638.833097100025,3643.853184300009,3645.986262700055,3645.986268699984,3647.502847100026,3648.519813599996,q,14.0,2.1330784000456333,1,+10,570,15.976594178103099,-1.3765354415621989,0.03757036771954758,3633742.0,-36.09384991215979,-0.3381550263877724,0.02469418576406812,3637279.0,,,,,3638.8242581320337,3635.287258132034,
195,32,23,f,1,4,187.0,35,2,high,8 + 1 + 7 + 1 - 4,13,13,12,14,3650.037037900067,3652.06436650001,3653.57955470006,3658.598208400072,3660.7383705000393,3660.7383762000823,3662.254874599981,3663.282190000056,q,13.0,2.1401620999677107,1,+10,580,9.518301477140568,-0.5880859920709653,0.10100100904676323,3648489.0,6.051205011610456,0.4531297746603382,0.1186985130002085,3652023.0,,,,,3653.568258132034,3650.0342581320338,
196,32,23,f,1,4,188.0,36,3,low,3 + 1 + 8 - 5 + 6,13,15,14,13,3664.808936299989,3666.8359731000382,3668.3511182999937,3673.3693381000776,3677.546369699994,3677.5463755000383,3679.063013500068,3680.0801495000487,q,15.0,4.177031599916518,0,+0,580,36.78776447760129,3.2035768148074144,-0.14114474877233074,3663261.0,6.717439093240273,-0.012896204132758271,0.041841489641544216,3666795.0,,,,,3668.340258132034,3664.8062581320337,
197,32,23,f,1,4,189.0,37,2,high,9 + 6 + 1 + 7 + 1,24,24,25,23,3681.596881699981,3683.622433100012,3685.137524500024,3690.155617400073,3694.770418700064,3694.770424599992,3696.287280200049,3697.30458440003,q,24.0,4.614801299991086,1,+10,590,-30.630761079196926,-2.6232346473141925,-0.10669679937732357,3680048.0,-13.796631898224385,-2.883600309847159,-0.02947036951539439,3683581.0,,,,,3685.126258132034,3681.5932581320335,
198,32,23,f,1,5,190.0,0,3,low,9 + 3 - 4 + 6 + 7,21,22,21,23,3814.511043500039,3816.5365486000665,3818.051764499978,3823.0726793999775,3828.089012100012,3828.0890148000326,3829.605924000032,3830.6243765000254,,,,0,Too Slow!,590,20.40121822164408,-2.427055587576362,-6.9169099498693924,3812961.0,0.254336015201039,1.2024119277845466,0.37163587112997676,3816497.0,,,,,3818.0422581320336,3814.5062581320335,
199,32,23,f,1,5,191.0,1,1,low,3 + 1 + 9 + 1 + 1,15,15,14,17,3832.141227000044,3834.1655013000127,3835.680643800064,3840.698299800046,3842.4343808999984,3842.43438640004,3843.951411199989,3844.967832099996,q,15.0,1.736081099952571,1,+1,591,4.054452293974734,-0.921233039121657,0.31638027307558336,3830590.0,1.335011047121224,1.250326875524184,0.4358397279916093,3834123.0,,,,,3835.6682581320338,3832.135258132034,
