,id,age,sex,cued,block,trial,trialinblock,efflev,rewlev,calc,corAns,option1,option2,option3,tstart,ITI1Time,probTime,respTime,selectTime,ITI2Time,fbTime,ITI3Time,key_press,chosenAns,RT,acc,feedback,total_points,cuescr,cuecor,cuezyg,cuetime,probscr,probcor,probzyg,probtime,fbscr,fbcor,fbzyg,fbtime,probtime_c,cuetime_c,fbtime_c
0,33,26,M,0,Practice,,0,1,0,4 + 1 + 9 + 1 + 1,16,15,16,14,47.00988009991124,,47.009882299928,52.23986759991385,55.43011379998643,55.43011989991646,56.94742019998375,57.9688148999121,w,16.0,3.190246200072579,1,Correct,0,,,,,-12.159814742897778,-1.678152889417171,-0.06680390681483095,45801.0,-23.63999957340457,-1.788140393329087,-0.08949892704373208,55530.0,47.22776205645497,,56.95676205645497
1,33,26,M,0,Practice,,1,1,0,3 + 1 + 1 + 8 - 1,12,11,10,12,59.48571229993832,,59.48571539996192,64.50749230000656,67.65412809990812,67.65413449995685,69.17139759997372,70.18915949994698,e,12.0,3.14663579990156,1,Correct,0,,,,,3.8028321045963587,-1.1045847471750703,-2.214903207158971,58068.0,-60.501863191103716,0.7364432065168947,1.0563040546230402,67750.0,59.49476205645497,,69.17676205645498
2,33,26,M,0,Practice,,2,2,0,8 + 1 + 6 + 1 - 4,12,11,12,10,71.70678109989967,,71.70678639994003,76.72672239993699,77.59822799998801,77.59823399991728,79.11493419995531,80.13401929999236,w,12.0,0.8715056000510231,1,Correct,0,,,,,8.818679361478035,-1.5667840465372826,-0.5784534283531715,70287.0,3.606168207088291,0.5469285336569509,0.5731050006331004,77695.0,71.71376205645498,,79.12176205645497
3,33,26,M,0,Practice,,3,2,0,9 + 4 - 6 + 1 - 1,7,6,7,5,81.65087619994301,,81.65087919996586,86.66992709995247,88.6222142999759,88.62222029990517,90.13877109996974,91.15578369994182,w,7.0,1.95228720002342,1,Correct,0,,,,,-7.673759884458293,-2.310928328389865,-0.17500351231181188,80231.0,18.1498985162239,0.11769608582167601,0.17843901284032881,88717.0,81.65776205645497,,90.14376205645497
4,33,26,M,0,Practice,,4,3,0,9 + 3 - 5 + 6 + 7,20,22,20,21,92.6724374999758,,92.67244080000091,97.69179469998926,98.63815429992974,98.6381603999762,100.1552486999426,101.17250529990996,w,20.0,0.9463595999404788,1,Correct,0,,,,,-2.4189682720582404,0.03644686840314648,-0.18614694086915895,91252.0,0.650039402636807,-0.0724985014220958,0.20043706500148817,98733.0,92.67876205645497,,100.15976205645498
5,33,26,M,0,Practice,,5,3,0,2 + 1 + 9 - 7 + 6,11,10,11,9,102.68942919990512,,102.6894323999295,107.71002439991572,108.65465359995142,108.65465969999786,110.17174009990411,111.19051119999494,w,11.0,0.9446292000357062,1,Correct,0,,,,,10.169261718123293,0.6519625526210948,0.199350661053308,101271.0,18.056311990058347,-0.3694358142900893,0.06904416645949674,108751.0,102.69776205645498,,110.17776205645498
6,33,26,M,0,Practice,,6,4,0,4 + 8 + 5 - 3 + 7,21,22,21,23,112.707517099916,,112.70751999993809,117.7280824999325,118.60615419992246,118.60616069997197,120.1231196000008,121.14134510001168,w,21.0,0.8780716999899596,1,Correct,0,,,,,1.0044027029266633,0.877998710435806,2.606092051238664,111289.0,-4.048719527733905,-0.6404091701361274,-0.05876522431239328,118702.0,112.71576205645498,,120.12876205645497
7,33,26,M,0,Practice,,7,4,0,5 + 8 - 4 + 6 + 9,24,24,22,23,122.65845669992268,,122.65845979994629,127.67814759991596,128.59016749996226,128.5901736000087,130.106923299958,131.1251895999303,q,24.0,0.912019900046289,1,Correct,0,,,,,-23.615235050577613,0.19801076113838878,-0.0720737420311699,121239.0,-11.54506248131629,-0.24401140614843175,-0.06552428792426412,128686.0,122.66576205645498,,130.11276205645498
8,33,26,M,1,0,0.0,0,3,low,8 + 5 + 1 - 7 + 9,16,17,14,16,221.7318011999596,223.7642197000096,225.27964189997877,230.31113479996569,231.7237916999729,231.72379680001177,233.2402918000007,234.2571222999832,e,16.0,1.4126569000072775,1,+1,1,4.379574254998424,2.234024343812861,-0.4923962159317887,220324.0,-17.210124118322007,0.7833685153630934,-0.09332500066085325,223872.0,-30.16790684271227,0.12415262071547595,-0.12254631233098001,231817.0,225.298762056455,221.750762056455,233.24376205645498
9,33,26,M,1,0,1.0,1,3,low,2 + 9 + 1 - 5 + 7,14,12,15,14,235.77395999990404,237.79886159999296,239.31406919995788,244.3336702999659,245.3638954999624,245.3639009000035,246.88060149992816,247.89764300000388,e,14.0,1.0302251999964938,1,+1,2,18.2784222754472,1.0539393630855018,0.07327299086352745,234359.0,-28.070963886397944,0.16520939687879999,0.09512646070491981,237893.0,-47.181420238615644,0.5267116129819884,0.2353141776844463,245457.0,239.31976205645498,235.78576205645498,246.88376205645497
10,33,26,M,1,0,2.0,2,3,low,3 + 8 + 1 + 5 - 9,8,8,7,9,249.41432009998243,251.437645399943,252.95342569996137,257.97173549991567,259.0758541999385,259.07585949997883,260.5926852999255,261.60963949991856,q,8.0,1.1041187000228092,1,+1,3,14.976972296327123,0.28679410791681015,0.01468991089272742,247998.0,-7.385051749354103,0.7188878354883195,0.15751928573259288,251532.0,13.072469224376784,0.8714695299502733,0.5087731026620552,259170.0,252.958762056455,249.42476205645497,260.59676205645496
11,33,26,M,1,0,3.0,3,1,high,3 + 1 + 8 + 1 + 1,14,14,12,13,263.12691469991114,265.1618870999664,266.6772518999642,271.6960536999395,272.69191419996787,272.69191940000746,274.2083142999327,275.2252132999711,q,14.0,0.9958605000283568,1,+10,13,20.729803247258545,0.038137662783033655,0.32677251534651175,261722.0,15.910607595089749,-0.22760873939754056,-0.08224414031690563,265255.0,-7.2914901426797005,0.16468831185507948,-0.0477316389932545,272785.0,266.68176205645494,263.1487620564549,274.211762056455
12,33,26,M,1,0,4.0,4,1,high,4 + 9 + 1 - 1 - 1,12,12,11,13,276.7420487999916,278.7682954999618,280.2832354999846,285.30166719993576,286.6758777999785,286.67588299990166,288.19248649990186,289.20980519999284,q,12.0,1.3742106000427157,1,+10,23,-53.87361877242661,0.2664650171753822,0.9777108404521524,275328.0,-12.529506830319407,0.17098875991799556,0.13598052136827077,278862.0,-10.897184061504081,0.28845827240634225,0.01916448796449366,286770.0,280.28876205645497,276.7547620564549,288.19676205645493
13,33,26,M,1,0,5.0,5,1,high,7 + 1 + 4 + 1 - 1,12,14,12,13,290.72756649996154,292.7499773999443,294.2653528999072,299.2852268998977,300.5878366999096,300.58784239995293,302.104496999993,303.1219786999281,w,12.0,1.302609800011851,1,+10,33,120.35047940180907,-1.8404600384424912,0.05144800051976017,289310.0,10.15619362892222,0.9610968918083649,0.011946902119235547,292845.0,25.0227978421495,-1.0012422251405013,1.0946632816560842,300682.0,294.271762056455,290.73676205645495,302.10876205645496
14,33,26,M,1,0,6.0,6,2,high,2 + 9 - 4 + 1 + 1,9,11,8,9,304.6386014999589,306.66986739996355,308.18519639992155,313.2051148999017,314.1800155999372,314.18002089997754,315.6969802000094,316.7143707999494,e,9.0,0.974900700035505,1,+10,43,11.929166914817388,1.480980466095727,0.006861075852557352,303230.0,12.76364375999618,0.6886505283441426,0.2583640364873325,306765.0,-21.50295928694276,0.3659809831702052,1.6375318946105832,314274.0,308.19176205645493,304.65676205645497,315.70076205645495
15,33,26,M,1,0,7.0,7,2,high,9 + 1 + 6 + 7 + 1,24,24,23,25,318.231248499942,320.2549625999527,321.7701875999337,326.78907219995745,328.3558821999468,328.3558873999864,329.8725593999261,330.88996119995136,q,24.0,1.5668099999893457,1,+10,53,-4.551991487214664,1.6205435800593673,0.5718049168565871,316815.0,1.690469412977162,-0.7486564977110781,-0.015990430279931633,320349.0,26.779496534583117,0.3412155284021541,0.08145869530894934,328449.0,321.77576205645494,318.24176205645495,329.87576205645496
16,33,26,M,1,0,8.0,8,1,high,5 + 1 + 1 + 9 + 1,17,16,19,17,332.4066235999344,334.4331865999848,335.94835859991144,340.9661598999519,342.6919313999824,342.6919363999041,344.2090424000053,345.2270062000025,e,17.0,1.7257715000305325,1,+10,63,9.001666765591903,-1.167395645752432,-0.002590769727410791,330993.0,9.766252022245544,-0.07248635426706151,0.07906243595095974,334526.0,12.299719588311657,-0.3612478986708618,0.15948592924676452,342786.0,335.95276205645496,332.41976205645494,344.21276205645495
17,33,26,M,1,0,9.0,9,2,high,5 + 1 + 7 - 6 + 1,8,8,6,7,346.743892999948,348.7702486999333,350.2855708999559,355.30441749992315,358.58788759994786,358.5878928999882,360.1044976999983,361.1211639000103,q,8.0,3.283470100024715,1,+10,73,34.100447594184274,0.4778776816370458,0.15039412220126924,345330.0,-19.0954760124263,0.454816947650011,0.033637376672166486,348864.0,-48.1260828716144,0.19888761663676657,0.23568286730504417,358681.0,350.2907620564549,346.75676205645493,360.10776205645493
18,33,26,M,1,0,10.0,10,2,low,5 + 7 - 8 + 1 + 1,6,8,6,7,362.6387757000048,364.7073967999313,366.2226219999138,371.2412551000016,372.0439373999834,372.0439425999066,373.56090459995903,374.5776566999266,w,6.0,0.802682299981825,1,+1,74,-28.798061959894813,-0.29507249141933833,0.03858439652292911,361267.0,9.994383323305026,0.1712718733710421,-0.08604089774753687,364801.0,0.3293738269265791,0.4636554658498486,-0.12016839312718242,372137.0,366.22776205645494,362.69376205645494,373.56376205645495
19,33,26,M,1,0,11.0,11,4,low,3 + 9 - 4 + 7 + 6,21,21,19,20,376.09436310001183,378.1352010999108,379.6503384999232,384.6694163999055,386.6280455999077,386.62805129995104,388.1450300998986,389.162874499918,q,21.0,1.9586292000021783,1,+1,75,2.659325314824798,0.5427425375986434,0.09960923733377935,374695.0,-8.416288841570196,0.4094139114957178,0.11134247930723418,378229.0,1.9845084312249597,0.17030276989773796,-0.04534988825981867,386721.0,379.65576205645493,376.12176205645494,388.14776205645495
20,33,26,M,1,0,12.0,12,4,high,3 + 9 - 5 + 8 - 7,8,9,8,7,390.6797759999754,392.7131921999389,394.2284053999465,399.2470137999626,399.9960351999616,399.99604030000046,401.5128031999338,402.529924799921,w,8.0,0.7490213999990374,1,+10,85,0.1594717442784841,0.32742533387988804,0.03300818832101404,389272.0,-13.216728764458196,0.40157309813784003,-0.031574480058889076,392806.0,-11.508105695081099,-1.0020039799992855,0.01737994163941048,400089.0,394.23276205645493,390.69876205645494,401.51576205645495
21,33,26,M,1,0,13.0,13,2,high,3 + 1 + 8 - 5 - 1,6,7,6,5,404.0476323999465,406.0731231999816,407.5880982999224,412.60773449996486,413.2280834999401,413.2280886999797,414.7446228999179,415.7619651999557,w,6.0,0.6203489999752492,1,+10,95,10.269123920914126,0.9967322420347591,0.13253584012136277,402632.0,-34.72587088034888,0.5944983669090993,-0.04321354462804883,406167.0,7.666871649174096,-1.4478420808227193,-0.6301864012817917,413321.0,407.5937620564549,404.05876205645495,414.747762056455
22,33,26,M,1,0,14.0,14,4,low,8 + 4 - 5 + 7 - 6,8,7,6,8,417.278733199928,419.3037174999481,420.8192260999931,425.8383811999811,426.6679223999381,426.6679273999762,428.1845938999904,429.2017461999785,e,8.0,0.8295411999570206,1,+1,96,9.341194775701398,1.5012074740557972,0.04698791860110729,415863.0,-5.102636597411671,0.27418422907748763,0.012170917661633585,419398.0,-18.92995404160079,-0.2542971786631396,0.15354265776672693,426761.0,420.824762056455,417.28976205645495,428.18776205645497
23,33,26,M,1,0,15.0,15,2,low,9 + 4 + 5 + 1 - 1,18,18,17,19,430.71860179991927,432.7452414999716,434.2605921999784,439.2788514000131,440.2440708999056,440.244076199946,441.7607378999237,442.7775729999412,q,18.0,0.9652194998925552,1,+1,97,22.573429290132953,0.014493773825805079,-0.1440263947588618,429304.0,-11.4192637120528,0.5536907592804976,0.16298611748600544,432838.0,19.944131226750606,2.567133018195194,0.4939605683702195,440337.0,434.26476205645497,430.7307620564549,441.76376205645494
24,33,26,M,1,0,16.0,16,2,high,9 + 5 - 6 + 1 - 1,8,8,7,9,444.2943145999452,446.32119769998826,447.8363293999573,452.85491409990937,453.9800446999725,453.98005000001285,455.4966916999547,456.5135742999846,q,8.0,1.1251306000631305,1,+10,107,-21.91486041891522,-0.013368063539818564,-0.40396454894140676,442881.0,3.453708190048662,0.4135899558736158,-0.028326596296970097,446414.0,7.42210708350391,-0.07053704972718222,0.053947394985291774,454073.0,447.84076205645493,444.3077620564549,455.4997620564549
25,33,26,M,1,0,17.0,17,3,low,9 - 1 + 5 - 6 + 8,15,14,15,17,458.0304969999706,460.0582265999401,461.5734971999191,466.591658399906,470.3481045999797,470.3481104999082,471.8649272999028,472.88150209991727,w,15.0,3.7564462000736967,1,+1,108,3.5822142902107323,0.5537091777265033,0.1865444215562888,456617.0,7.777259349797681,0.31574074049419565,-0.21357792217917226,460151.0,-0.32325012945688236,0.20546613320525964,0.21380389215559692,470441.0,461.57776205645496,458.04376205645497,471.8677620564549
26,33,26,M,1,0,18.0,18,4,high,2 + 9 - 4 + 8 + 7,22,21,23,22,474.3986295999493,476.4223683999153,477.9377513999352,482.95646269992,483.8120110000018,483.81201629992574,485.3286847999552,486.3461035999935,e,22.0,0.855548300081864,1,+10,118,-40.93331963980493,-0.45669322005144064,0.6174698952827011,472981.0,0.38280544233895064,0.7851947938067783,-0.003519169601946315,476515.0,-7.023403370253092,-1.4164113775031746,-0.17403248620577405,483905.0,477.94176205645493,474.40776205645494,485.3317620564549
27,33,26,M,1,0,19.0,19,3,high,4 + 1 + 8 + 9 - 5,17,17,18,19,487.863160799956,489.891549199936,491.406858399976,496.425115799997,498.0680839999113,498.0680893999525,499.5848292999435,500.6021350999363,q,17.0,1.6429681999143213,1,+10,128,-23.83553203292726,0.8734145476401904,0.12488076624857447,486450.0,7.3313993037762195,0.8784521913935173,0.06868002697090247,489984.0,3.988011486309471,0.6863466255238735,-0.02283377363554817,498161.0,491.4107620564549,487.87676205645494,499.58776205645495
28,33,26,M,1,0,20.0,20,4,low,8 + 4 + 7 - 5 - 6,8,6,8,9,502.119039000012,504.1427663000068,505.6581373999361,510.6767522000009,512.1880421999376,512.1880473999772,513.7051185999298,514.722338099964,w,8.0,1.511289999936707,1,+1,129,13.862516995153152,1.3902867441875828,0.0952443189590586,500702.0,-10.47981167583852,0.7970152288517607,0.0057242904541918715,504236.0,-12.094354089071714,0.19820097138990356,0.944391392955308,512281.0,505.66276205645494,502.12876205645495,513.707762056455
29,33,26,M,1,0,21.0,21,4,high,4 + 7 + 9 - 5 + 7,22,24,22,23,516.2392631999683,518.266976099927,519.7823270999361,524.8009207999567,525.4120711999713,525.412076999899,526.9288537999382,527.9460957999108,w,22.0,0.6111504000145942,1,+10,139,23.21822759414676,-0.8492323945846785,-0.17733900768951494,514826.0,12.195317808725246,0.5737133021752259,0.03687073466762825,518360.0,63.292962956288356,-0.5177253698144213,0.023531624067978818,525505.0,519.786762056455,516.252762056455,526.931762056455
30,33,26,M,1,0,22.0,22,1,low,9 + 8 + 1 + 1 - 1,18,17,20,18,529.4624817000004,531.4904872999759,533.0057413999457,538.023841499933,538.6760832999134,538.67608809995,540.192687499919,541.2095101999585,e,18.0,0.652241799980402,1,+1,140,3.6279341910374114,-0.19928700493579488,-0.4812706710719141,528050.0,5.670587878715456,-0.5367008693058679,-0.0007663813394547248,531582.0,-27.780145960948975,0.12332009264749644,-0.04493814174773547,538768.0,533.008762056455,529.476762056455,540.194762056455
31,33,26,M,1,0,23.0,23,2,high,7 + 6 + 1 - 1 - 8,5,5,4,3,542.7263056999072,544.752134499955,546.2674724999815,551.2878127999138,552.1801400999539,552.180145899998,553.6967484999914,554.7139361998998,q,5.0,0.8923273000400513,1,+10,150,-19.59746926784347,-0.4754015580098656,0.00321051586703347,541311.0,-16.956105228008795,0.5133608445512516,0.18806688694030083,544846.0,19.97808914504413,-0.06632122286007824,0.17616551887011678,552273.0,546.272762056455,542.737762056455,553.699762056455
32,33,26,M,1,0,24.0,24,1,high,4 + 8 + 1 - 1 - 1,11,11,13,9,556.2304295999929,558.2577682000119,559.7731331000105,564.7916314000031,568.4601614999119,568.4601667999523,569.9766615999397,570.9937306999927,q,11.0,3.668530099908821,1,+10,160,-19.440697603094414,0.6669520867466798,0.508566111167557,554816.0,15.351396835479623,-0.8722271157130761,0.015935805857266283,558350.0,-86.20677191821262,0.27765867514807496,-0.006548886957117084,568552.0,559.776762056455,556.242762056455,569.978762056455
33,33,26,M,1,0,25.0,25,2,high,6 + 1 + 8 + 5 - 1,19,18,17,19,572.510467999964,574.5373270999407,576.0526610999368,581.0710042999126,581.7721904999344,581.7721958999755,583.2890185998986,584.3061694999924,e,19.0,0.7011862000217661,1,+10,170,48.04535218679418,-0.29701199971316505,-0.002502908128595216,571096.0,-7.555414571852559,-0.5678962446694511,-1.606751004260429,574629.0,-6.015365556028371,0.014004755242011946,0.0349683807175003,581865.0,576.055762056455,572.522762056455,583.291762056455
34,33,26,M,1,0,26.0,26,2,high,4 + 9 - 7 + 1 - 1,6,5,6,8,585.8231603999157,587.8479263999034,589.3632843999658,594.3818814000115,595.0601120999781,595.0601174999028,596.5767867999384,597.5941148999846,w,6.0,0.6782306999666616,1,+10,180,20.027053905201466,0.7467813029979586,0.05790049864081093,584407.0,9.758338696911991,0.5325803875380721,0.0238386644644224,587940.0,4.87366073564721,0.38092128271927894,0.22597688371635916,595152.0,589.3667620564551,585.833762056455,596.578762056455
35,33,26,M,1,0,27.0,27,1,high,8 + 1 + 1 - 1 - 4,5,6,5,3,599.110805299948,601.1365251999814,602.65180709993,607.6699761999771,608.3481394000119,608.3481443999335,609.8647554999916,610.881718999939,w,5.0,0.6781632000347599,1,+10,190,4.241635096917662,0.30177555424714964,-0.05381671241652275,597695.0,4.512328718966363,-0.507935493086153,-0.013298009360330987,601228.0,6.892841925536249,0.5452396036574685,-0.016805767734355603,608440.0,602.654762056455,599.121762056455,609.8667620564551
36,33,26,M,1,0,28.0,28,2,high,7 + 6 + 1 + 8 + 1,23,22,21,23,612.3987064999528,614.4238891999703,615.9391193999909,620.9570976999821,622.2841574999038,622.2841627999442,623.8006642999826,624.8182235999266,q,22.0,1.3270597999216989,0,+0,190,24.56325458656103,-0.46105670520311115,1.2548006892803643,610982.0,6.680244561608444,1.3962847415812947,0.1780551271901345,614516.0,-11.139714547717578,0.43629471825316735,-0.006600554274623027,723840.0,615.942762056455,612.408762056455,725.266762056455
37,33,26,M,1,0,29.0,29,4,high,4 + 7 + 8 - 3 + 9,25,24,25,26,626.3349950999254,628.3610645999433,629.8763744999887,634.8950996999629,638.1722347999457,638.1722402999876,639.6887220999924,640.705843099975,w,25.0,3.277135099982843,1,+10,200,11.088633450377959,0.6956718206279593,-0.08627021869084439,624919.0,-10.68301310042333,0.8574006366684639,-0.1351372000946114,628453.0,3.2610484571450744,0.11628887308046654,0.11012324894771108,638264.0,629.879762056455,626.345762056455,639.690762056455
38,33,26,M,1,0,30.0,30,3,low,6 - 1 + 7 - 8 + 9,13,11,13,12,642.2223540999694,644.2455505999969,645.7609127999749,650.7795393000124,654.428235600004,654.4282407999272,655.9447306999937,656.961690899916,q,11.0,3.6486962999915695,0,+0,200,-22.44894917127632,0.9472461640540484,0.18583762343411436,640804.0,-7.036710348542616,-0.2962784788873112,-0.10920594672212025,644338.0,-7.150436098012619,0.9062273232945772,0.4791425625022394,683191.0,645.764762056455,642.230762056455,684.617762056455
39,33,26,M,1,0,31.0,31,4,high,3 + 8 - 4 + 9 + 6,22,23,21,22,658.4786645999411,660.5038626999594,662.0193596999161,667.0373217999004,668.0281687999377,668.0281737999758,669.5446861999808,670.5622009999352,e,22.0,0.99084700003732,1,+10,210,-0.875785172726598,1.0305694726956656,-0.1527921192012467,657062.0,11.794353155602018,0.4138237010091075,-0.03982871804832255,660596.0,5.590937970274255,-0.04811171976829165,0.11840034160112145,668120.0,662.022762056455,658.488762056455,669.546762056455
40,33,26,M,1,0,32.0,32,3,low,7 - 1 + 8 - 6 + 4,12,11,13,12,672.0790275000036,674.1038640999468,675.6192760999547,680.6379824999021,683.1002530999249,683.1002583999652,684.6165822999319,685.6331835999154,e,12.0,2.462270600022748,1,+1,211,62.064735986834656,0.24004246315912692,0.03216919530562268,670662.0,40.11454232660715,1.0408329975781738,-0.08884266041528788,674196.0,16.869358960496754,0.11043148226019373,0.13879306634219635,696480.0,675.622762056455,672.088762056455,697.906762056455
41,33,26,M,1,0,33.0,33,3,high,4 + 7 + 1 + 9 - 5,16,18,17,16,687.149986299919,689.1763834999874,690.6916927999118,695.7102034999989,696.3882989999838,696.38830459991,697.9049122999422,698.923013899941,e,16.0,0.67809549998492,1,+10,221,10.76864296655603,0.7444682628350248,-2.2289466320262816,685734.0,12.279549037357464,0.9077752762341564,0.1064819484134667,689268.0,2.12824660991393,0.4063030836431545,-0.008240141795778033,897800.0,690.694762056455,687.160762056455,899.226762056455
42,33,26,M,1,0,34.0,34,1,low,5 + 6 + 1 + 1 + 1,14,16,14,15,700.4400764999446,702.4671530999476,703.9824441999663,709.0010552000022,709.5402358999709,709.540241300012,711.0569472999778,712.0736939999042,w,14.0,0.5391806999687105,1,+1,222,18.311452951165013,0.3727933704194446,0.06224267924156335,699025.0,-5.444151654686316,-0.3028446811772012,0.018837807240214444,702558.0,17.514620787094756,-0.5683912783164597,0.02485564211540736,709632.0,703.984762056455,700.451762056455,711.058762056455
43,33,26,M,1,0,35.0,35,2,high,8 + 1 + 4 - 7 + 1,7,6,7,5,713.5904609999852,715.6166955999797,717.1319844999816,722.1507523999317,723.7482688999735,723.7482742998982,725.2649678000016,726.2820331999101,w,7.0,1.59751650004182,1,+10,232,-50.13572970932839,0.8767834865424948,0.20455504320570883,712175.0,5.797689797717137,0.5291347743133894,-0.022730185776625556,715709.0,-20.649844571083186,-0.6174279523414716,-0.1972188421991583,858191.0,717.135762056455,713.601762056455,859.617762056455
44,33,26,M,1,0,36.0,36,1,low,7 + 1 + 5 + 1 - 1,13,13,14,12,727.7995083999122,729.8276395999128,731.3426740999566,736.3608959999401,737.0363365999656,737.036342300009,738.5528724999167,739.5694406999974,q,13.0,0.6754406000254676,1,+1,233,-8.284446067318628,-0.31111749484536055,0.047105398651494435,726385.0,-13.774382994187784,0.6117532568623427,-0.19921216197494185,729919.0,13.793658246560767,-0.13371116986674547,-0.07408496197882242,737127.0,731.345762056455,727.811762056455,738.553762056455
45,33,26,M,1,0,37.0,37,1,low,5 + 9 - 1 + 1 + 1,15,17,13,15,741.0862999999663,743.1099094999954,744.6251742999302,749.6427646999946,750.1963159999577,750.1963211999973,751.7130086999387,752.730452299933,e,15.0,0.5535512999631464,1,+1,234,-40.01445892186404,0.6629051977771114,0.0847492826763534,739668.0,31.816082313332245,-0.257489194795296,0.2166615036265911,743201.0,15.427776648873543,-0.9861615732648996,-0.6422671178534503,750287.0,744.627762056455,741.094762056455,751.713762056455
46,33,26,M,1,1,38.0,0,4,high,5 + 7 - 4 - 6 + 9,11,12,11,13,807.5048243999481,809.5325259999372,811.0478044999763,816.0680274999468,817.3722928999923,817.3722983999178,818.8891426000046,819.9061284000054,w,11.0,1.3042654000455514,1,+10,244,-35.78831073897639,1.0422540710163277,0.24616204741335102,806090.0,-2.868713347609212,1.417390709309632,-0.11211552321111773,809625.0,-6.638982043915497,-0.15190376784719284,-0.1567344713249963,817464.0,811.051762056455,807.516762056455,818.8907620564551
47,33,26,M,1,1,39.0,1,4,high,8 + 4 + 7 - 5 - 6,8,8,9,6,821.4230319999624,823.4450508999871,824.960158300004,829.9789865999483,830.6683754000114,830.6683805999346,832.1849932000041,833.202332799905,q,8.0,0.6893888000631705,1,+10,254,-10.947075938009746,0.2374171367067781,0.3338405442896293,820003.0,25.421829697449468,0.29314823502995146,-4.687669874789583,823536.0,-21.77334129642704,0.590314988684546,0.5381963542444033,830759.0,824.962762056455,821.429762056455,832.185762056455
48,33,26,M,1,1,40.0,2,1,low,8 + 1 + 1 + 1 - 3,8,6,8,9,834.7191356999101,836.7449926999398,838.2604012999218,843.2783920000074,843.9243644999806,843.9243697999045,845.4404326999793,846.4570633999538,w,8.0,0.6459724999731407,1,+1,255,-12.90114786923197,-0.7091655210002834,0.060420709503056,833302.0,-3.0891039193597933,-0.26242126728454496,-0.2641044473314744,836836.0,9.33813600179299,0.05854040177788411,0.04495084924902293,844014.0,838.262762056455,834.728762056455,845.440762056455
49,33,26,M,1,1,41.0,3,2,low,3 + 9 - 1 - 5 + 1,7,5,6,7,847.9737869999371,849.9980867999839,851.51338759996,856.5312685999088,858.1002900999738,858.1002956999,859.6166951999767,860.6331521999091,e,7.0,1.5690215000649914,1,+1,256,-3.729304164002201,1.1072423648999186,0.0985362194612629,846555.0,-29.430549002292366,0.937463911583519,-0.08575704493785796,850089.0,14.253820762225097,-0.5763541932654439,-0.1817829013869754,871447.0,851.5157620564551,847.981762056455,872.873762056455
50,33,26,M,1,1,42.0,4,2,low,5 - 8 + 7 + 1 + 1,6,6,7,8,862.1500034999335,864.1750406000065,865.6903388999635,870.7095281999791,871.3563662999077,871.3563712999457,872.8729275999358,873.8903045000043,q,6.0,0.6468380999285728,1,+1,257,46.71304521304828,0.9880748325052102,0.04675203576072007,860732.0,4.5209487266018975,0.5464258127456394,0.04781912864011928,864266.0,-46.747264254200644,-0.02873891420112118,-0.00398837045574485,884656.0,865.692762056455,862.158762056455,886.082762056455
51,33,26,M,1,1,43.0,5,2,high,8 + 1 + 9 + 1 - 5,14,15,13,14,875.4078840999864,877.4353160999017,878.9511425999226,883.9694244000129,884.564380900003,884.5643903999589,886.0814494999358,887.0991473000031,e,14.0,0.5949564999900758,1,+10,267,5.595289712052333,1.6027473632657796,0.18021189155623762,873992.0,-43.45163951838122,0.46937805621808293,-0.025627473689646463,877526.0,19.89784514857649,0.5266758009133357,0.18741760561034226,925751.0,878.952762056455,875.418762056455,927.177762056455
52,33,26,M,1,1,44.0,6,3,high,7 + 5 + 9 + 1 - 6,16,16,15,14,888.6161014999961,890.6440951999975,892.1593948999653,897.1778254999081,897.7084120999789,897.7084171999013,899.2250870999414,900.2428509999299,q,16.0,0.5305866000708193,1,+10,277,2.6274964562972905,0.9917131051451658,0.47345935541231654,887201.0,16.575575713952492,0.4621656278023645,-0.09207606187439121,890735.0,-2.5562591819255225,0.15675331414600358,0.1567709307046885,912519.0,892.161762056455,888.627762056455,913.945762056455
53,33,26,M,1,1,45.0,7,3,high,5 + 6 + 7 - 1 - 9,8,8,7,9,901.759938800009,903.7832828999964,905.2984866999324,910.3170459999236,912.4284634999932,912.428468799917,913.9450264999176,914.9620180999628,q,8.0,2.111417500069365,1,+10,287,-9.323606403154038,0.7594112914589823,0.03022709101847121,900340.0,-4.073823907417622,0.08969578303619974,0.0013297763141451036,903874.0,-7.68146039310712,0.03671770967946708,0.05545200430445707,938903.0,905.300762056455,901.766762056455,940.329762056455
54,33,26,M,1,1,46.0,8,2,low,9 + 6 + 1 + 7 + 1,24,24,23,25,916.4786044999493,918.5045679999748,920.0199253999162,925.0382676000008,925.6604742999187,925.6604795999592,927.176950699999,928.1935480999527,q,24.0,0.6222066999180242,1,+1,288,-0.7955422041260185,0.6093510674430966,0.11899877567674033,915061.0,2.2592074665334607,0.305073145210661,-0.17649488642879896,918595.0,12.25483856065599,1.0721075750397926,0.23452077520404546,981279.0,920.021762056455,916.487762056455,982.705762056455
55,33,26,M,1,1,47.0,9,3,high,6 + 1 + 8 + 7 - 9,13,14,15,13,929.7104365999112,931.7372578999492,933.2522325000028,938.2715369999642,938.81245759991,938.812463099952,940.3291051000124,941.3462829999626,e,13.0,0.5409205999458209,1,+10,298,1.9599944291234337,1.7259863939982596,0.09748176850014878,928294.0,31.032762411611397,0.6614057349422513,0.0005190986508245565,931827.0,-10.868050859659736,0.9386885764789419,0.04364312569550033,965447.0,933.253762056455,929.720762056455,966.873762056455
56,33,26,M,1,1,48.0,10,1,high,2 + 1 + 9 + 1 - 1,12,13,12,11,942.8637213999172,944.8875622999622,946.4028157999272,951.4210454999702,952.1963779999642,952.1963833000044,953.7129331999458,954.730429999996,w,12.0,0.775332499993965,1,+10,308,-17.877595208789803,-0.18887504635168018,0.03530116209288825,941444.0,27.147234708404937,0.2481149165497749,0.08179746826758216,944978.0,3.233506986845548,0.034798066130641736,0.09129054123973646,952287.0,946.404762056455,942.870762056455,953.713762056455
57,33,26,M,1,1,49.0,11,3,low,3 + 8 - 7 + 1 + 9,14,13,12,14,956.247229599976,958.2693508999656,959.7843669999857,964.8047158999834,965.3563897999702,965.3563948000084,966.8740973999955,967.8916622999824,e,14.0,0.5516738999867812,1,+1,309,10.635908791120857,7.730997262168666,0.4472941848354042,954826.0,18.526299093940544,0.42681003855446775,-0.010057653921974552,958361.0,7.7901427208255845,2.4990360004757113,0.2230488693866819,1145982.0,959.787762056455,956.252762056455,1147.4087620564549
58,33,26,M,1,1,50.0,12,2,low,2 + 1 + 9 - 4 + 1,9,8,9,11,969.408207200002,971.4355558999814,972.950800999999,977.9691260999534,981.1885117999044,981.1885171999456,982.7051967999432,983.7223474999192,w,9.0,3.21938569995109,1,+1,310,-9.254602915232457,1.2453489074092716,0.036480123149758015,967992.0,-20.072854143912835,0.5879925300979156,0.06788192184237274,971526.0,-11.48826794546656,0.08957944003519991,0.036964996352848,1119590.0,972.952762056455,969.418762056455,1121.0167620564548
59,33,26,M,1,1,51.0,13,3,low,7 - 1 + 9 - 5 + 4,14,15,13,14,985.2393053999403,987.264750399976,988.7797757999506,993.798299399903,998.0045395999914,998.004544999916,999.5687227000016,1000.5859421999194,w,13.0,4.206240200088359,0,+0,310,-12.575189924691713,1.189682368979326,0.08217588242777563,983820.0,0.09467734139977857,-1.3380674705622706,-0.5696508003656009,987355.0,22.982717007023204,1.2440939800436812,-0.10091492943818836,1281454.0,988.781762056455,985.246762056455,1282.8807620564548
60,33,26,M,1,1,52.0,14,1,high,8 - 1 + 1 + 6 + 1,15,14,16,15,1002.1027103000088,1004.126468100003,1005.6418110999512,1010.6601007999852,1011.2364202999744,1011.2364258999004,1012.752480499912,1013.7699418999256,e,15.0,0.5763194999890402,1,+10,320,24.578012535213304,1.1151560070030575,0.2569567020443033,1000683.0,14.075774636561693,0.11599138128671793,0.07477853638582777,1004216.0,26.906663952533872,-0.29341460497803507,0.05271108633549737,1011326.0,1005.642762056455,1002.109762056455,1012.752762056455
61,33,26,M,1,1,53.0,15,4,high,7 + 8 - 4 + 6 - 5,12,13,11,12,1015.2867476999528,1017.3093660000012,1018.8241670998976,1023.842503199936,1024.4124855999837,1024.4124905999051,1025.928695300012,1026.9467669998994,e,12.0,0.5699824000475928,1,+10,330,11.339730072150525,1.715526555984038,-0.06279641714410023,1013866.0,-4.9314931408947125,0.23730981838532106,0.1405185727995084,1017399.0,5.547970002039115,0.1069930841848783,-0.10101207529225698,1024502.0,1018.825762056455,1015.292762056455,1025.9287620564548
62,33,26,M,1,1,54.0,16,4,low,4 + 7 - 8 + 9 - 4,8,7,8,9,1028.4630177000072,1030.4863799999002,1032.0014240999008,1037.0196837999392,1039.4525435999967,1039.4525488999209,1040.9691480000038,1041.986342899967,e,9.0,2.4328598000574857,0,+0,330,12.833737885552253,0.37088092988233434,0.046811613247897066,1027043.0,6.198946214489183,0.5085619644601871,-0.10794730017721998,1030576.0,4.251226553118592,-0.4045816943594822,-0.11712895681248692,1052726.0,1032.002762056455,1028.4697620564548,1054.152762056455
63,33,26,M,1,1,55.0,17,4,low,6 + 9 + 7 - 3 - 5,14,12,13,14,1043.503084099968,1045.525679399958,1047.0410215999,1052.0593090999173,1052.636435399996,1052.6364405999193,1054.1527235999238,1055.1695188999877,e,14.0,0.5771263000788167,1,+1,331,-26.42816396081179,0.638058096376473,0.205690290405947,1042082.0,22.42201873007737,0.1903513878634997,0.05885751106420489,1045616.0,-9.248907847536604,-0.7662466323220314,0.865434275384076,1065990.0,1047.0427620564549,1043.508762056455,1067.416762056455
64,33,26,M,1,1,56.0,18,4,low,9 + 8 - 5 - 7 + 6,11,11,10,13,1056.6863861999009,1058.7088594000088,1060.224252199987,1065.2442230999004,1065.900571999955,1065.9005776999984,1067.417242800002,1068.434242599993,q,11.0,0.6563489000545815,1,+1,332,21.12578492021938,0.44032717280072253,0.1200789231507251,1055265.0,-23.277438156238937,0.43335526912353384,0.00011968927766403681,1058800.0,-23.870111006618973,0.6023487267150975,0.43868007760286165,1174094.0,1060.2267620564548,1056.691762056455,1175.520762056455
65,33,26,M,1,1,57.0,19,1,high,8 + 1 + 5 + 1 + 1,16,17,16,15,1069.951313599944,1071.9787729999516,1073.4935926999897,1078.511639299919,1079.34859780001,1079.3486034999369,1080.8650393999417,1081.882315899944,w,16.0,0.8369585000909865,1,+10,342,23.494286567067004,0.4431338372609428,0.09331087689849138,1068535.0,-3.04575990620016,-0.9610754486896087,-0.041053618465026975,1072068.0,14.767572983125692,0.4795873049370236,0.20059281913022264,1079438.0,1073.4947620564549,1069.961762056455,1080.864762056455
66,33,26,M,1,1,58.0,20,1,high,6 + 9 + 1 + 1 - 1,16,16,14,15,1083.3991006999277,1085.424855499994,1086.9398521999829,1091.9580395999365,1092.532539699925,1092.5325448999647,1094.0490613000002,1095.0664770998992,q,16.0,0.5745000999886543,1,+10,352,-33.543718706966814,0.22499359778995665,0.14077481153954374,1081981.0,5.208920765105223,-0.7840409809169748,0.051498246770051104,1085514.0,-25.981734009731436,2.8370625304714823,0.30966352428747634,1092622.0,1086.9407620564548,1083.4077620564549,1094.048762056455
67,33,26,M,1,1,59.0,21,1,low,9 + 1 + 1 + 7 - 1,17,16,17,19,1096.582961399923,1098.6087786999997,1100.1239569999743,1105.142981999903,1105.836530999979,1105.8365365999052,1107.352969600004,1108.3696993999183,w,17.0,0.6935490000760183,1,+1,353,-6.163851217792285,0.7795913180699929,0.2657890650722312,1095165.0,11.706253872132935,-0.3282379754815179,-0.0403343922002124,1098698.0,-8.377691193467534,0.08448354678715564,0.04648435525730221,1105926.0,1100.124762056455,1096.5917620564549,1107.3527620564548
68,33,26,M,1,1,60.0,22,2,low,3 + 8 + 1 - 5 + 1,8,8,9,6,1109.8863189999247,1111.91365579993,1113.428974499926,1118.447375399992,1119.5005374999018,1119.5005426999414,1121.017043699976,1122.0336760999637,q,8.0,1.053162099909969,1,+1,354,22.930888241667816,1.2376846630896363,0.3080597700468395,1108470.0,-6.604527946384518,0.5403532475933996,-0.04079732972527128,1112003.0,-16.241151001347035,-0.20223259385965875,0.059329193895554244,1132719.0,1113.4297620564548,1109.896762056455,1134.145762056455
69,33,26,M,1,1,61.0,23,2,high,5 + 9 - 8 + 1 + 1,8,9,7,8,1123.550585799967,1125.5759137999266,1127.0912951999344,1132.1096448999597,1132.6286488999613,1132.628654900007,1134.1455463999882,1135.1628895999163,e,8.0,0.519004000001587,1,+10,364,-10.487981229421983,0.7188663058778975,0.1023785629661742,1122132.0,4.448353119852593,0.819039477022498,-0.05321567839638086,1125665.0,-31.179994363588,0.5726171293016487,0.08439516061197327,1160950.0,1127.0917620564549,1123.558762056455,1162.376762056455
70,33,26,M,1,1,62.0,24,3,low,2 + 1 + 9 - 5 + 6,13,14,11,13,1136.6798189999536,1138.7061922999565,1140.2214324999368,1145.240059399977,1145.8926958999364,1145.8927012999775,1147.409377099946,1148.426751299994,e,13.0,0.6526364999590442,1,+1,365,-5.758673203844637,1.6490980757414366,0.13461982855743115,1135262.0,-3.995293492268498,-0.5510326596006689,-0.03180498404341625,1138796.0,3.460057416575829,-0.5463014895693838,0.0641613971981676,1387013.0,1140.222762056455,1136.6887620564548,1388.4397620564548
71,33,26,M,1,1,63.0,25,2,high,8 + 1 + 7 + 1 - 4,13,12,14,13,1149.943192699924,1151.9688759999117,1153.4840825999854,1158.5026697999565,1160.8606521999463,1160.8606575999877,1162.377235999913,1163.394637499936,e,13.0,2.357982399989851,1,+10,375,46.895322898761926,0.7318863381183416,-0.024143951792269913,1148525.0,5.900392302017877,-0.4881020125566038,-0.1911579723329686,1152058.0,-16.068678772910115,0.265900027944578,-0.000849275504186453,1242150.0,1153.4847620564549,1149.951762056455,1243.576762056455
72,33,26,M,1,1,64.0,26,4,low,5 + 8 - 6 + 7 + 4,18,19,18,17,1164.9112130999565,1166.9348835999845,1168.449615499936,1173.4681648999683,1174.0046414999524,1174.0046468999935,1175.52125599992,1176.5380861999,w,18.0,0.536476599983871,1,+1,376,-10.887902693192455,0.3899616800677359,-0.05825904334223986,1163491.0,18.52235863776973,0.4449772057606749,0.11912866787596643,1167024.0,30.10980060564853,-0.3296115465267939,0.1669072280183257,1228982.0,1168.4507620564548,1164.9177620564549,1230.4087620564549
73,33,26,M,1,1,65.0,27,1,low,4 + 1 + 1 + 7 - 1,12,12,13,14,1178.0547672999091,1180.0817255999427,1181.5969415999716,1186.6153198999818,1187.228612100007,1187.228617399931,1188.7448846999323,1189.762020699913,q,12.0,0.613292200025171,1,+1,377,-19.21926446527881,1.4877619695209248,0.31943173337585495,1176638.0,1.7416689862537034,-0.7465204379066295,-0.06458118248343325,1180171.0,18.370024422008086,1.3054619504912166,0.22518016457646572,1187317.0,1181.597762056455,1178.0647620564548,1188.743762056455
74,33,26,M,1,1,66.0,28,1,high,3 + 1 + 9 + 1 + 1,15,14,17,15,1191.2788229999132,1193.306164199952,1194.8213766999545,1199.8395325999008,1200.2685584999854,1200.2685639999108,1201.78530759993,1202.801988299936,e,15.0,0.4290259000845253,1,+10,387,36.110325304150194,0.8010236184334376,-0.12663075361665266,1189862.0,9.011706314724531,-2.068324821041153,-0.012523780209392488,1193395.0,-31.265151109891292,0.14997026574406913,0.37946725419343297,1200358.0,1194.8217620564549,1191.288762056455,1201.7847620564548
75,33,26,M,1,1,67.0,29,2,low,6 + 1 + 1 + 8 - 9,7,9,7,5,1204.318800799898,1206.345113499905,1207.8605054999937,1212.8788559999084,1215.6846662999596,1215.684672000003,1217.2014135000063,1218.219507999951,q,9.0,2.8058103000512347,0,+0,387,-4.086440953117426,-0.0390102188985777,0.07562338229044219,1202900.0,19.496120610467678,0.3190421037942106,-0.27370719697416557,1206434.0,14.465857488985845,0.4634265524825718,0.12182896367024965,1255341.0,1207.8607620564549,1204.326762056455,1256.7677620564548
76,33,26,M,1,1,68.0,30,4,high,3 + 9 - 5 + 6 + 8,21,23,22,21,1219.7363839999307,1221.7622809999157,1223.2772681999486,1228.29534219997,1228.892655499978,1228.8926604998996,1230.4091877999017,1231.4267154999543,e,21.0,0.5973133000079542,1,+10,397,12.750813206369589,0.5221597753673546,-0.10776048549860118,1218318.0,25.731071208674013,-1.0665675864504882,-0.19979099793409705,1221851.0,-15.603296058207022,0.27067949041220274,0.11966540607677456,1324438.0,1223.277762056455,1219.7447620564549,1325.864762056455
77,33,26,M,1,1,69.0,31,2,high,9 + 4 - 6 + 1 - 1,7,7,9,8,1232.9435754999286,1234.9688064999646,1236.4841457000002,1241.5022263999565,1242.0605889,1242.0605939999225,1243.577025000006,1244.5939813998991,q,7.0,0.5583625000435859,1,+10,407,-17.701604648619657,0.025982934909984046,0.08753867572079699,1231524.0,-3.937396538196399,0.0651428751630796,-0.5632196592002146,1235058.0,5.589668556340012,0.6495728898375086,0.13225696391388442,1268365.0,1236.4847620564549,1232.9507620564548,1269.791762056455
78,33,26,M,1,1,70.0,32,2,low,4 + 7 + 1 + 1 - 8,5,4,5,7,1246.110503999982,1248.1361139999935,1249.651381099946,1254.6696820999496,1255.2527073000092,1255.2527122999309,1256.7692665999057,1257.7861318999203,w,5.0,0.5830252000596374,1,+1,408,-16.482317249448435,0.9001728812782885,0.18071064207125298,1244691.0,-17.346729028268292,0.5153842790221939,-0.06254879545643921,1248225.0,26.834050316546346,0.33476300687134053,0.059890466276377285,1311277.0,1249.6517620564548,1246.117762056455,1312.703762056455
79,33,26,M,1,1,71.0,33,2,low,4 + 8 + 1 + 1 - 5,9,8,11,9,1259.3022831999697,1261.3262805999257,1262.841653599986,1267.859703199938,1268.2767615999328,1268.2767672999762,1269.7930870999116,1270.8102998000104,e,9.0,0.4170583999948576,1,+1,409,-18.03100183999166,1.2977372042836879,0.01534656341706886,1257881.0,-45.74728729362234,0.21337849414110943,0.019899588676429047,1261415.0,21.523152080041584,0.9360907495035482,0.25708062711845425,1444485.0,1262.8417620564549,1259.307762056455,1445.9117620564548
80,33,26,M,1,1,72.0,34,3,high,2 + 9 - 3 + 4 + 1,13,13,14,11,1272.3271232999396,1274.3541128999786,1275.869384199963,1280.888242299901,1281.364636099897,1281.3646417999407,1282.881170399953,1283.898196999915,q,13.0,0.4763937999960035,1,+10,419,-11.299290425617933,0.6632627662775068,0.3260491043327256,1270909.0,1.1462091561151695,0.5987724739345524,0.08787383908393442,1274443.0,11.643082006779192,-0.8529974329772809,0.008863171242778911,1413789.0,1275.8697620564549,1272.335762056455,1415.2157620564549
81,33,26,M,1,1,73.0,35,1,low,3 + 1 + 8 + 1 + 1,14,16,14,13,1285.4149714999369,1287.441803799942,1288.956882999977,1293.975603299914,1295.4367701999145,1295.4367755999556,1296.9532837999286,1297.9698273999384,w,14.0,1.461166900000535,1,+1,420,-4.665099364873377,0.41566896099497086,0.030604612575809043,1283997.0,15.671199380666403,-2.9960401644666534,0.9057425670752806,1287530.0,16.312285418761558,1.4802758878890385,0.2600718906345012,1295525.0,1288.9567620564549,1285.423762056455,1296.951762056455
82,33,26,M,1,1,74.0,36,2,high,8 + 1 + 1 + 9 - 4,15,16,14,15,1299.4869498999324,1301.515111399931,1303.0301611999748,1308.0483336999314,1311.1888526999392,1311.188857799978,1312.7052963000024,1313.7222130999437,e,15.0,3.140519000007771,1,+10,430,7.3241241519913185,0.5637877599296601,0.09107329789713092,1298070.0,-4.3572827287412,-0.2460621946662549,0.03929048126821688,1301603.0,-1.4044374442046461,0.053679332765579346,0.15952067323770724,1457893.0,1303.029762056455,1299.4967620564548,1459.319762056455
83,33,26,M,1,1,75.0,37,4,high,3 + 8 - 4 + 9 + 7,23,22,24,23,1315.2388094000053,1317.2632824999746,1318.77855789999,1323.7984419999411,1324.3487329999916,1324.3487390999217,1325.865663799923,1326.8829371999018,e,23.0,0.5502910000504926,1,+10,440,3.0978242464107533,1.283768522005777,0.13300390544460194,1313818.0,-24.995072928945078,-1.5271381759023326,-0.06864240376055131,1317353.0,31.664167699651685,0.7268298673404745,0.05188081144502665,1373909.0,1318.779762056455,1315.2447620564549,1375.335762056455
84,33,26,M,1,2,76.0,0,4,low,5 + 7 - 4 - 6 + 9,11,12,13,11,1363.633167999913,1365.659749399987,1367.1747403999325,1372.194495099946,1373.8207859999966,1373.820801199996,1375.337344300002,1376.3538538999856,e,11.0,1.6262909000506625,1,+1,441,-1.5608756900927148,-0.3390558883346779,-0.453066176058468,1362215.0,-6.7657992652076775,0.4074915686003209,-5.287414241537832,1365749.0,-5.16454626813907,0.5330835448801055,-0.18180403001499212,1470989.0,1367.175762056455,1363.6417620564548,1472.415762056455
85,33,26,M,1,2,77.0,1,3,high,8 - 7 + 9 + 1 + 4,15,16,14,15,1377.8708286999026,1379.8979397999356,1381.4134603999555,1386.4321033000017,1386.9248886000132,1386.9248938999372,1388.4414890999906,1389.4585290999385,e,15.0,0.4927853000117466,1,+10,451,17.680442146333256,1.181346713646584,0.0014545184799619193,1376452.0,-1.848974236323988,0.7794213476907661,-0.024951127688737973,1379987.0,16.777069603612585,0.5541824258701178,0.04043135717843738,1485629.0,1381.413762056455,1377.878762056455,1487.0557620564548
86,33,26,M,1,2,78.0,2,1,low,3 + 1 + 9 + 1 - 1,13,13,14,12,1390.9756710999643,1393.0014043999836,1394.5166665998986,1399.53572039993,1400.020779299899,1400.0207849999424,1401.5375952000031,1402.5544729999965,q,13.0,0.4850588999688625,1,+1,452,6.4434044664441,0.19286459542900314,0.06413441110617701,1389556.0,2.019930024290895,-0.8573960380886625,0.04185574044630602,1393090.0,10.7774895124643,0.5028781526451036,-0.019677369548221302,1400109.0,1394.5167620564548,1390.982762056455,1401.5357620564548
87,33,26,M,1,2,79.0,3,3,high,9 + 3 - 4 + 6 + 7,21,23,21,22,1404.071204899927,1406.0979900999228,1407.6135620999848,1412.6320553999394,1413.7008148999885,1413.7008204999147,1415.2172791999765,1416.234604199999,w,21.0,1.0687595000490546,1,+10,462,0.20994662155786337,-1.0574967496728158,0.1679487989110604,1402652.0,12.242663531317085,-0.050664993294005534,0.0352570851891294,1406186.0,-27.74635466229909,1.1456438305775487,0.028294427250739718,1565044.0,1407.6127620564548,1404.078762056455,1566.470762056455
88,33,26,M,1,2,80.0,4,4,low,4 + 9 - 7 + 8 + 5,19,19,20,21,1417.7514908999435,1419.7777693999233,1421.2932485999772,1426.313491399982,1431.3309820999857,1431.3309848000065,1432.8477318999358,1433.8679859999102,,,,0,Too Slow!,462,-11.198636752857471,0.08732529896022267,-0.26933936501678546,1416332.0,2.8647731253994912,0.6850811107458066,0.1509710772562085,1419868.0,7.440417785206747,4.141646293360691,1.0281910943694539,1431423.0,1421.2947620564548,1417.758762056455,1432.849762056455
89,33,26,M,1,2,81.0,5,2,low,7 + 5 + 1 + 9 + 1,23,22,23,21,1435.3847207999788,1437.4092799999053,1438.9245409999276,1443.942230799934,1444.396782899974,1444.396788199898,1445.9139575998995,1446.931284799939,w,23.0,0.4545521000400185,1,+1,463,-24.273152024100902,1.2788480692773554,-0.035609482400590364,1433963.0,-55.346875373994514,0.4378078561383454,-0.0010954412240682387,1437497.0,,,,,1438.923762056455,1435.3897620564549,
90,33,26,M,1,2,82.0,6,2,high,6 + 1 + 7 - 8 - 1,5,5,7,4,1448.4480878999457,1450.4736292999005,1451.9888954999624,1457.007463399903,1457.8049217999214,1457.8049268999605,1459.3215064000103,1460.3387021999806,q,5.0,0.7974584000185132,1,+10,473,-16.639429964075788,0.0995046956523229,0.05288990019575723,1447028.0,12.681769896624978,1.137511754770249,0.024883135622497665,1450562.0,,,,,1451.9887620564548,1448.454762056455,
91,33,26,M,1,2,83.0,7,4,high,8 + 4 + 7 - 5 - 6,8,8,9,7,1461.855107099982,1463.8811755999925,1465.3964591999538,1470.4149811000098,1470.900798699935,1470.900804099976,1472.417333099991,1473.4343641999876,q,8.0,0.4858175999252125,1,+10,483,26.850682285554658,0.3641395074257723,0.12044081545970942,1460435.0,-26.170772212013464,0.9384961674907792,0.02904467157487134,1463969.0,,,,,1465.395762056455,1461.8617620564548,
92,33,26,M,1,2,84.0,8,3,high,7 + 1 + 9 + 5 - 6,16,15,16,14,1474.951167399995,1476.9772899999516,1478.4927534000017,1483.511161900009,1485.54094430001,1485.540949799935,1487.0575246999506,1488.074626199901,w,16.0,2.0297824000008404,1,+10,493,-6.2559815445786775,0.28582900553225965,0.1683514910747712,1473531.0,11.075775505071961,0.34855267113827226,-0.1785731857965791,1477065.0,,,,,1478.491762056455,1474.9577620564548,
93,33,26,M,1,2,85.0,9,2,high,6 + 1 + 1 + 7 - 9,6,6,4,8,1489.5916247999994,1491.6170677999037,1493.13233329996,1498.150663599954,1498.6128761,1498.612880999921,1500.1298647999065,1501.1463459999068,q,6.0,0.4622125000460073,1,+10,503,19.82385181804385,-0.23055442787614133,-0.286507971868019,1488171.0,-15.83510645056079,0.041608691504634976,-0.11365648845243381,1491705.0,,,,,1493.1317620564548,1489.597762056455,
94,33,26,M,1,2,86.0,10,1,low,7 - 1 + 1 + 9 - 1,15,15,14,13,1502.6632286999377,1504.6909994999878,1506.2062465999045,1511.2245515999384,1512.1088635999477,1512.1088691999903,1513.6254859999754,1514.641994799953,q,15.0,0.8843120000092313,1,+1,504,5.0873780975864875,0.9001135757237329,-0.14465165053807105,1501245.0,-39.72221123268321,-3.8546305847856823,-0.5771015638390093,1504779.0,,,,,1506.205762056455,1502.6717620564548,
95,33,26,M,1,2,87.0,11,4,low,6 + 9 - 7 + 8 - 5,11,13,12,11,1516.1584621999646,1518.1844737000065,1519.7003506999465,1524.719220799976,1525.372940199915,1525.3729481999762,1526.8902396999763,1527.9070886999834,e,11.0,0.6537193999392912,1,+1,505,-11.001168064608251,1.428194147030239,0.4755703448560171,1514738.0,-18.43209555150638,-4.499890634310289,-0.7913253623333167,1518273.0,,,,,1519.6997620564548,1516.164762056455,
96,33,26,M,1,2,88.0,12,4,low,8 + 7 - 4 + 5 + 9,25,26,24,25,1529.4241668999894,1531.448314899928,1532.9635653999867,1537.9820300999563,1538.629021700006,1538.6290271999314,1540.145328299957,1541.162202999927,e,25.0,0.6469916000496596,1,+1,506,17.905778508209885,3.8714885058487347,0.17562414647412194,1528002.0,3.2808583433090726,-1.77622367067635,-0.9400422315268961,1531536.0,,,,,1532.962762056455,1529.4287620564548,
97,33,26,M,1,2,89.0,13,1,low,4 + 7 + 1 - 1 - 1,10,11,9,10,1542.6789199999766,1544.7042576000094,1546.2195529999444,1551.2379585999297,1551.7329256999074,1551.732930599945,1553.2504956999328,1554.2669390999945,e,10.0,0.4949670999776572,1,+1,507,9.534262824327897,-1.2962319101777329,-0.20155976087842653,1541258.0,-23.333127382775068,-0.5434708428302759,0.1997833144439929,1544792.0,,,,,1546.2187620564548,1542.684762056455,
98,33,26,M,1,2,90.0,14,3,low,2 - 4 + 9 + 7 + 1,15,15,13,16,1555.7835240999702,1557.810636799899,1559.3259448999306,1564.3443637999007,1564.9570110999048,1564.957016899949,1566.4734092999715,1567.4901453999337,q,15.0,0.6126473000040278,1,+1,508,-21.27176122229437,-0.4965091149111327,0.001720545111048244,1554365.0,5.0568247540265485,0.14868574369356846,-0.10514525114007811,1557898.0,,,,,1559.3247620564548,1555.791762056455,
99,33,26,M,1,2,91.0,15,3,high,3 - 7 + 5 + 1 + 9,11,11,13,12,1569.006928299903,1571.0307277999818,1572.5456371000037,1577.564510999946,1578.1976353999926,1578.197641299921,1579.713984599919,1580.7313811999047,q,11.0,0.633124400046654,1,+10,518,3.5230601975719242,-0.47021926388309154,-0.02068737658678299,1567584.0,15.23746527872325,0.22541894833617704,0.08727027443263968,1571118.0,,,,,1572.5447620564548,1569.010762056455,
100,33,26,M,1,2,92.0,16,3,low,4 + 8 - 3 + 5 - 1,13,12,13,14,1582.248221699963,1584.2726538999705,1585.7877242999384,1590.8063115999105,1592.7010086999508,1592.7010141999926,1594.2174163999734,1595.233929399983,w,13.0,1.8946971000405028,1,+1,519,6.200760692351543,-3.0074730220340085,-0.1450853043647249,1580826.0,7.697021263893717,0.7186316310062342,-0.0030973973676799993,1584360.0,,,,,1585.7867620564548,1582.252762056455,
101,33,26,M,1,2,93.0,17,2,low,3 + 9 + 1 - 5 + 1,9,8,9,7,1596.7516396999126,1598.7775361000097,1600.2935560999904,1605.3117093999172,1606.0769631000005,1606.076968499925,1607.593411799986,1608.6110387999795,w,9.0,0.7652537000831217,1,+1,520,-1.4688318508837295,0.3209235935103898,-0.008597967704316423,1595331.0,-24.094539917376313,0.6008392913107867,-0.42543423419353243,1598865.0,,,,,1600.291762056455,1596.7577620564548,
102,33,26,M,1,2,94.0,18,2,low,9 + 6 + 1 + 7 + 1,24,25,23,24,1610.1280572999967,1612.1505329000065,1613.6657676999455,1618.683632100001,1619.245043199975,1619.2450483998982,1620.7613936999114,1621.77801359992,e,24.0,0.561411099974066,1,+1,521,-9.041196149653567,-1.2149030267765442,-0.10581977375928853,1608704.0,6.6120125664072456,2.3283960334704097,0.3500429014344042,1612237.0,,,,,1613.663762056455,1610.1307620564548,
103,33,26,M,1,2,95.0,19,2,high,7 + 1 + 9 - 1 - 8,8,8,6,7,1623.2948132999009,1625.3214533999562,1626.8367167999968,1631.8552607999882,1632.5891099999426,1632.589115699986,1634.10572579992,1635.1229957999894,q,8.0,0.7338491999544203,1,+10,531,29.62998130771373,-0.28886254144165546,-0.16150251724441045,1621875.0,17.00032299080637,2.382407361475445,0.1307750017080087,1625408.0,,,,,1626.8347620564548,1623.301762056455,
104,33,26,M,1,2,96.0,20,1,high,3 + 1 + 1 + 9 - 1,13,13,12,14,1636.639531099936,1638.667282899958,1640.182491299929,1645.2013091999106,1649.332949899952,1649.3329553999938,1650.8496984000085,1651.8672509999014,e,14.0,4.1316407000413164,0,+0,531,6.442690282639161,0.40691151356201694,-0.23059866508287752,1635221.0,8.083248292653085,5.265406191994117,0.381552007474226,1638754.0,,,,,1640.1807620564548,1636.647762056455,
105,33,26,M,1,2,97.0,21,1,low,2 + 1 + 9 + 1 - 1,12,13,11,12,1653.3836319999536,1655.408177800011,1656.9231410999782,1661.9412462000037,1662.6450167999135,1662.645022099954,1664.1615461999318,1665.1783824999584,e,12.0,0.7037705999100581,1,+1,532,-4.432839588702413,1.7201585362045337,0.24915719661383995,1651961.0,4.258835075870941,-0.019459420788810355,-0.0747865743202416,1655495.0,,,,,1656.9217620564548,1653.387762056455,
106,33,26,M,1,2,98.0,22,2,high,6 + 1 + 1 + 7 - 9,6,8,4,6,1666.695071699913,1668.7220107999165,1670.2370158999693,1675.2559485000093,1675.8131032999372,1675.8131090999814,1677.32966519997,1678.347234899993,e,6.0,0.5571547999279574,1,+10,542,-5.411799693524023,1.5257455885360813,0.11724398292919003,1665276.0,-16.03471366482041,-0.22495175138005497,0.0037665278384244605,1668809.0,,,,,1670.2357620564549,1666.702762056455,
107,33,26,M,1,2,99.0,23,4,low,6 + 5 - 7 + 8 - 9,3,5,3,4,1679.8641064999392,1681.8878098999849,1683.4027518999064,1688.421755899908,1689.9650213998975,1689.9650267999386,1691.481509199948,1692.4981487999903,w,3.0,1.543265499989502,1,+1,543,-13.709565864867493,-0.6129805876573062,0.19027095789032655,1678441.0,13.398315531024618,-0.0683507145197515,0.009557619879360324,1681974.0,,,,,1683.4007620564548,1679.867762056455,
108,33,26,M,1,2,100.0,24,3,low,8 - 1 + 6 - 7 + 5,11,11,12,13,1694.0151019999755,1696.0416869999608,1697.55696289998,1702.5756184000056,1703.3729935999727,1703.372998900013,1704.88949709991,1705.9061638999265,q,11.0,0.797375199967064,1,+1,544,1.5842459805028106,-0.4685769637760204,-0.21700802913297124,1692595.0,12.35736190286445,-0.8643901881186631,0.003633945634782254,1696129.0,,,,,1697.5557620564548,1694.021762056455,
109,33,26,M,1,2,101.0,25,1,high,6 + 1 + 8 + 1 - 1,15,15,14,13,1707.4228835999966,1709.4472682999913,1710.9621489999115,1715.980281499913,1716.5331018998986,1716.533107599942,1718.0495858999202,1719.0668226999696,q,15.0,0.5528203999856487,1,+10,554,16.55635316367494,0.3929288111309366,0.12728837636145718,1706000.0,-22.576871557998924,-0.64994806941543,0.0016549444218596499,1709533.0,,,,,1710.9597620564548,1707.426762056455,
110,33,26,M,1,2,102.0,26,1,low,7 + 1 + 6 + 1 + 1,16,17,18,16,1720.583686799975,1722.6101112999022,1724.125469099963,1729.1445369999856,1729.9731535000028,1729.9731587999268,1731.4897016999312,1732.506551599945,e,16.0,0.8286165000172332,1,+1,555,-3.516145129369903,-0.9400961754470636,-0.03954637291412699,1719164.0,13.675790702657324,1.507079401399261,-0.08676791634263492,1722697.0,,,,,1724.1237620564548,1720.5907620564549,
111,33,26,M,1,2,103.0,27,4,high,8 + 3 - 4 + 5 + 9,21,21,23,22,1734.0233104999645,1736.0501866999548,1737.565206600004,1742.5845063999295,1743.053165499936,1743.0531705999747,1744.5696111998986,1745.5867844999302,q,21.0,0.4686591000063345,1,+10,565,12.33779551346293,1.3566995520148357,-0.04169568289246062,1732603.0,-8.753763199994633,0.8378516139168148,0.3800945295345626,1736137.0,,,,,1737.5637620564548,1734.029762056455,
112,33,26,M,1,2,104.0,28,4,high,5 + 9 - 4 + 7 + 6,23,25,23,24,1747.103653499973,1749.129631399992,1750.644741899916,1755.663430799963,1756.261044099927,1756.2610495999688,1757.7776856999844,1758.7951400999443,w,23.0,0.5976132999639958,1,+10,575,20.033466574245335,0.33706303003076377,-0.011140693599178908,1745682.0,7.614055731771442,2.9840006599605013,-0.16740304909535686,1749216.0,,,,,1750.6427620564548,1747.108762056455,
113,33,26,M,1,2,105.0,29,3,high,3 + 1 + 6 - 8 + 9,11,12,13,11,1760.3118174999254,1762.3376628999831,1763.852918599965,1768.8710973999696,1770.117081400007,1770.1170865999302,1771.63363019994,1772.6508498999756,e,11.0,1.2459840000374245,1,+10,585,0.8035004208532044,1.019705453773657,0.04737051645433521,1758890.0,-28.90330996083994,2.7683459971396,-0.10895367346098705,1762424.0,,,,,1763.8507620564549,1760.316762056455,
114,33,26,M,1,2,106.0,30,4,low,3 + 8 - 7 + 9 - 5,8,8,9,7,1774.167533800006,1776.194770699949,1777.7098363999976,1782.7286090999842,1784.189178599976,1784.1891838999,1785.7055232999846,1786.7227648999542,q,8.0,1.4605694999918342,1,+1,586,-0.6269781631592437,-0.25374126074564884,-0.01626312743237368,1772747.0,-0.5275866694908791,-1.4675161749594228,-0.12080539857499395,1776281.0,,,,,1777.7077620564548,1774.173762056455,
115,33,26,M,1,2,107.0,31,1,high,6 + 1 + 8 + 1 + 1,17,15,17,16,1788.2400969999144,1790.2663598000072,1791.7816792000085,1796.8007329999236,1797.4291511999909,1797.4291566999163,1798.9459250000073,1799.963116699946,w,17.0,0.6284182000672445,1,+10,596,-0.663153209699221,1.4073058995836787,0.0067673329160353735,1786819.0,-3.4705985048615062,17.131542312630557,1.098818912607668,1790353.0,,,,,1791.779762056455,1788.2457620564549,
116,33,26,M,1,2,108.0,32,1,high,6 + 1 + 1 + 9 - 1,16,15,14,16,1801.4801154999293,1803.5036495999664,1805.0185331999087,1810.0367256999016,1810.837111699977,1810.8371170999017,1812.35317389993,1813.3705037999896,e,16.0,0.8003860000753775,1,+10,606,-22.99190113017148,-0.0011269853943698394,0.00523477064796829,1800056.0,7.792373120830636,-0.193809573730789,-0.20179375949719858,1803589.0,,,,,1805.0157620564548,1801.482762056455,
117,33,26,M,1,2,109.0,33,3,high,6 - 1 + 7 - 8 + 9,13,11,13,12,1814.8871863000093,1816.9139494999545,1818.4293081999056,1823.4475438999943,1826.8131156999152,1826.8131212999576,1828.329786999966,1829.3475830999669,w,13.0,3.365571799920872,1,+10,616,31.12986908041091,0.46353039594590406,0.05113021103258486,1813466.0,11.135653689035816,0.5733835547580002,0.030025701506814384,1817000.0,,,,,1818.426762056455,1814.8927620564548,
118,33,26,M,1,2,110.0,34,4,high,7 + 6 - 9 + 8 - 3,9,9,7,8,1830.864662899985,1832.889476899989,1834.404371399898,1839.424033399904,1841.0132321999408,1841.0132376999827,1842.530345999985,1843.547451899969,w,7.0,1.5891988000366837,0,+0,616,-25.920640385309124,0.3636453412366949,-0.13257557449694346,1829442.0,-1.254147781462347,0.6843470175105009,0.055517362340004706,1832977.0,,,,,1834.403762056455,1830.868762056455,
119,33,26,M,1,2,111.0,35,4,low,7 + 6 + 8 - 4 + 5,22,21,23,22,1845.064131799969,1847.0914681999711,1848.607373900013,1853.625822399976,1854.0852575999447,1854.0852628999853,1855.6016451999312,1856.6183179999932,e,22.0,0.4594351999694481,1,+1,617,-7.8599766625889655,-0.20386181811585136,0.07230012669427954,1843643.0,-9.818546357413318,-0.27504061923393763,-0.009895184522709988,1847178.0,,,,,1848.604762056455,1845.069762056455,
120,33,26,M,1,2,112.0,36,3,high,4 + 5 - 3 + 7 - 1,12,11,12,13,1858.135156699922,1860.1610234999096,1861.6762706999436,1866.6964182999216,1867.597157799988,1867.5971632999133,1869.113927599974,1870.130971699953,w,12.0,0.9007395000662656,1,+10,627,13.054853590828802,-2.817934191604489,-0.213412661190149,1856713.0,8.898357712165723,0.6222249929887989,0.01910368450371025,1860249.0,,,,,1861.675762056455,1858.1397620564549,
121,33,26,M,1,2,113.0,37,1,high,7 + 1 + 4 + 1 - 1,12,13,12,11,1871.6482364999829,1873.672753299936,1875.1880542999131,1880.2063643999863,1880.7011775999565,1880.7011826999951,1882.2180707999505,1883.2349772999296,w,12.0,0.4948131999699399,1,+10,637,74.56171674410851,1.609236135664919,-0.08966621724988855,1870225.0,-5.836201048898703,-0.40374831950396484,0.01858590001787408,1873759.0,,,,,1875.185762056455,1871.6517620564548,
122,33,26,M,1,3,114.0,0,2,high,4 + 8 + 1 + 1 - 6,8,9,7,8,2016.1300632999048,2018.158031899948,2019.67336539994,2024.6929871999887,2025.733381099999,2025.733386399923,2027.250221099937,2028.2672733999789,e,8.0,1.0403939000098037,1,+10,647,-0.6303635621531409,3.670768107714051,0.3285517866800618,2014709.0,35.208767795707686,-0.05431302636132074,-0.039632180205442236,2018244.0,,,,,2019.6707620564548,2016.135762056455,
123,33,26,M,1,3,115.0,1,4,low,6 + 9 + 7 - 3 - 5,14,15,14,13,2029.7840951000107,2031.8071856999304,2033.323246199987,2038.3416010999356,2038.8052691000048,2038.8052745999305,2040.3222455999348,2041.3398590999425,w,14.0,0.4636680000694468,1,+1,648,-18.170700122996443,1.7645465665508686,0.2384317163876084,2028359.0,0.38591550654492934,1.5517469817782281,0.09648474860987544,2031893.0,,,,,2033.319762056455,2029.7857620564548,
124,33,26,M,1,3,116.0,2,4,high,6 + 7 + 9 - 3 + 5,24,22,24,23,2042.8571195999396,2044.883309399942,2046.3983680999368,2051.416763599962,2053.0293306999374,2053.02933629998,2054.545993699925,2055.563285399927,w,24.0,1.612567099975422,1,+10,658,-18.99392611428435,1.006581846411053,0.0420659874421645,2041434.0,-30.94640983894862,0.11460853998558651,-0.002477396939318366,2044968.0,,,,,2046.394762056455,2042.8607620564549,
125,33,26,M,1,3,117.0,3,3,low,9 - 5 - 1 - 6 + 8,5,4,5,7,2057.080155199976,2059.1039035998983,2060.619160100003,2065.6377850999124,2066.3174154999438,2066.317420799984,2067.8340520999627,2068.8505209999857,w,5.0,0.6796304000308737,1,+1,659,-11.541549670790019,-0.03522750637622174,-0.19033483009994656,2055655.0,9.783419780778027,-0.16375950110221904,-0.007360465974364017,2059189.0,,,,,2060.615762056455,2057.0817620564553,
126,33,26,M,1,3,118.0,4,1,low,9 + 8 + 1 + 1 - 1,18,19,17,18,2070.367016299977,2072.3956278999103,2073.91059809993,2078.928840199951,2079.645447799936,2079.645453199977,2081.162052799948,2082.1785720000044,e,18.0,0.7166075999848545,1,+1,660,12.18438957573866,1.2771486284841762,4.089132766958591,2068946.0,63.14399713052649,-1.3716744469487008,-0.1336605534930695,2072480.0,,,,,2073.906762056455,2070.372762056455,
127,33,26,M,1,3,119.0,5,1,high,6 + 9 + 1 + 1 - 1,16,16,14,15,2083.695247799973,2085.721265299944,2087.236511199968,2092.254854099941,2093.357307499973,2093.357312799897,2094.8738862999016,2095.8910204999847,q,16.0,1.1024534000316637,1,+10,670,21.400557480201126,0.07853097603599934,0.12395028694598853,2082272.0,10.291820649666104,0.7973465459581561,0.04801057911955531,2085806.0,,,,,2087.232762056455,2083.698762056455,
128,33,26,M,1,3,120.0,6,4,low,3 + 8 - 5 + 9 - 7,8,7,6,8,2097.4078606999246,2099.432841099915,2100.948100499925,2105.9690021999413,2109.72539259994,2109.725399399991,2111.2422045998974,2112.259681399912,e,8.0,3.756390399998054,1,+1,671,-28.587396256157867,0.761423131515075,-0.06322864735334521,2095983.0,12.694274752762087,1.2734340769877308,0.07096348719554424,2099519.0,,,,,2100.945762056455,2097.4097620564553,
129,33,26,M,1,3,121.0,7,4,low,7 + 6 - 9 + 8 - 3,9,9,7,8,2113.7767020999454,2115.800272299908,2117.3155327999266,2122.334221599973,2123.213384200004,2123.2133896999294,2124.7298708999297,2125.7466739999363,q,9.0,0.8791626000311226,1,+1,672,-8.880999618144092,-0.4689916756321546,-0.24098499969096387,2112351.0,-14.806634461324878,-0.8174551868045148,-0.11013479635629375,2115885.0,,,,,2117.3117620564553,2113.7777620564552,
130,33,26,M,1,3,122.0,8,2,low,7 + 5 + 1 - 1 - 8,4,3,4,2,2127.263345899992,2129.2896962999366,2130.804935999913,2135.8231803999515,2137.957461199956,2137.957466599997,2139.4742088000057,2140.490922299912,w,4.0,2.1342808000044897,1,+1,673,-2.044267417168146,-0.42791919169421977,1.6126604889160359,2125841.0,19.805497814832965,1.551404398966378,2.7406650356054385e-05,2129374.0,,,,,2130.800762056455,2127.267762056455,
131,33,26,M,1,3,123.0,9,1,low,5 + 1 + 1 + 6 + 1,14,14,16,13,2142.0077071000123,2144.0351045998977,2145.550274799927,2150.5676952999784,2151.1893644999946,2151.18936999992,2152.70588569995,2153.7226957000094,q,14.0,0.6216692000161856,1,+1,674,17.05367180814323,0.8231367104988587,-1.0092719905021266,2140585.0,31.896894576397592,0.2478641389835574,-0.09211418104567048,2144119.0,,,,,2145.5457620564553,2142.011762056455,
132,33,26,M,1,3,124.0,10,2,low,6 + 1 + 8 + 7 - 1,21,21,19,23,2155.239408799913,2157.266159299994,2158.78125609993,2163.800007699989,2166.6855230999645,2166.6855286000064,2168.2020410000114,2169.21861370001,q,21.0,2.885515399975702,1,+1,675,-24.453961970052813,0.3223624348654077,0.08583041663717506,2153817.0,-12.81855190307624,0.3869597215830356,0.08070123659999773,2157351.0,,,,,2158.7777620564552,2155.243762056455,
133,33,26,M,1,3,125.0,11,1,low,3 + 1 + 1 + 8 - 1,12,14,12,13,2170.735188499908,2172.7612134999363,2174.2764989999123,2179.2956547999056,2179.997542899917,2179.997548299958,2181.5141810999485,2182.531229999964,w,12.0,0.7018881000112742,1,+1,676,4.006473227992423,2.9882328913670086,0.09092794494501133,2169312.0,3.9085999726988927,-1.3457836812213628,-0.007830879176838224,2172846.0,,,,,2174.272762056455,2170.738762056455,
134,33,26,M,1,3,126.0,12,4,high,7 + 6 - 4 + 9 - 5,13,13,14,12,2184.0482118999357,2186.075459999964,2187.5904838999268,2192.609251499991,2193.341433399939,2193.34143879998,2194.8580443999963,2195.874891799991,q,13.0,0.7321818999480456,1,+10,686,81.49850019411983,-1.2116969873291197,0.4379125743855625,2182626.0,-6.533580058429145,1.7075813172803285,1.4289992504635387,2186160.0,,,,,2187.586762056455,2184.0527620564553,
135,33,26,M,1,3,127.0,13,1,high,2 + 1 + 1 + 9 - 1,12,11,12,13,2197.391939499997,2199.415970399976,2200.931258699973,2205.950129600009,2206.485404499923,2206.485409899964,2208.002019700012,2209.0197836000007,w,12.0,0.5352748999139294,1,+10,696,6.768074698053025,-0.44069537281257,0.045199537257246236,2195967.0,38.876474115560114,-0.8559938997104286,0.05729386802167835,2199500.0,,,,,2200.926762056455,2197.393762056455,
136,33,26,M,1,3,128.0,14,3,high,8 + 4 + 1 - 7 + 9,15,16,13,15,2210.5368158000056,2212.561581499991,2214.07652100001,2219.0950080999173,2220.3494180999696,2220.3494238998974,2221.8664443999296,2222.883834899985,e,15.0,1.254410000052303,1,+10,706,4.733001857575364,2.1033798202308533,0.016709818202876647,2209112.0,-45.776584365712424,-1.3921431337619836,-0.01134605084693252,2212645.0,,,,,2214.071762056455,2210.538762056455,
137,33,26,M,1,3,129.0,15,4,high,5 + 6 - 4 + 7 + 9,23,24,23,25,2224.401268199901,2226.4275699999416,2227.9427411999786,2232.961132599972,2233.541469599935,2233.541475199978,2235.058485999936,2236.075569699984,w,23.0,0.5803369999630377,1,+10,716,-15.393659566972694,3.0450326035806397,0.25484279701180856,2222978.0,-1.9091346807751641,0.8589260914746841,0.05678543621576093,2226512.0,,,,,2227.9387620564553,2224.404762056455,
138,33,26,M,1,3,130.0,16,1,low,3 + 1 + 8 - 1 + 1,12,10,12,13,2237.5920602999395,2239.619206100004,2241.1343585998984,2246.1523725999286,2246.925511799985,2246.9255166999064,2248.4420540999854,2249.4585716999136,w,12.0,0.7731392000569031,1,+1,717,7.945097269030807,-0.5178192325084412,-0.23914254783175948,2236170.0,10.855990091568271,-0.08745856912499139,-0.061667993722285264,2239703.0,,,,,2241.129762056455,2237.596762056455,
139,33,26,M,1,3,131.0,17,2,high,2 + 9 + 1 + 1 - 5,8,7,6,8,2250.9759795999853,2253.0034269999014,2254.518614099943,2259.5386042000027,2261.053583799978,2261.0535891999025,2262.570373800001,2263.587291799952,e,8.0,1.5149795999750495,1,+10,727,-7.0850960544609425,-0.26623720936287487,-0.08810854972609516,2249553.0,-2.562630246204831,-0.37972607442146433,0.11582356179457332,2253089.0,,,,,2254.515762056455,2250.979762056455,
140,33,26,M,1,3,132.0,18,1,high,7 - 1 + 8 + 1 - 1,14,13,12,14,2265.1041348999133,2267.1282582998974,2268.6435844999505,2273.66366369999,2274.6295732998988,2274.6295788999414,2276.1461728999857,2277.163467300008,e,14.0,0.9659095999086276,1,+10,737,-40.50729536587187,1.2337755030283466,0.11117781200508525,2263679.0,-19.359652009850123,1.1948801157599949,0.17792504509279072,2267214.0,,,,,2268.640762056455,2265.105762056455,
141,33,26,M,1,3,133.0,19,4,low,9 + 4 - 6 + 8 + 7,22,24,22,21,2278.680257399916,2280.706500799977,2282.221898299991,2287.241962699918,2287.693526599905,2287.693531899946,2289.2097363999346,2290.226295899949,w,22.0,0.4515638999873772,1,+1,738,26.598753096225934,0.8218420365973795,0.08941679431730676,2277257.0,-39.30074534667235,-0.21376275473481776,0.017155790937317228,2280792.0,,,,,2282.218762056455,2278.683762056455,
142,33,26,M,1,3,134.0,20,3,high,5 + 7 + 1 - 4 + 6,15,17,13,15,2291.743159699952,2293.769014299964,2295.284259099979,2300.304198400001,2301.357606799924,2301.357612599968,2302.874167299946,2303.8912198999897,e,15.0,1.0534083999227732,1,+10,748,-6.290502382809865,0.9186003233701827,0.14135792714587847,2290319.0,-54.35517957131425,0.6786381491762952,-0.23155177985911712,2293854.0,,,,,2295.280762056455,2291.745762056455,
143,33,26,M,1,3,135.0,21,3,low,6 - 1 + 7 - 8 + 9,13,12,11,13,2305.4082436999306,2307.4345527999103,2308.949668599991,2313.9682676999364,2314.989630099968,2314.9896354000084,2316.5058973999694,2317.522286499967,e,13.0,1.0213624000316486,1,+1,749,19.152754592705744,0.021184445641179828,-0.14033558336417484,2303985.0,57.0717954577442,1.1130018386620177,0.018532425824839382,2307518.0,,,,,2308.944762056455,2305.4117620564552,
144,33,26,M,1,3,136.0,22,2,low,7 + 8 + 1 + 9 + 1,26,25,26,24,2319.0389673999744,2321.066134599969,2322.5811570999213,2327.5995114999823,2330.821598200011,2330.8216036999365,2332.338239199948,2333.3552224999294,q,25.0,3.22208670002874,0,+0,749,19.152286720639058,-0.002063276227024069,0.23661175945832724,2317616.0,34.82025954880461,0.46784870209724705,0.14010743333377795,2321149.0,,,,,2322.575762056455,2319.042762056455,
145,33,26,M,1,3,137.0,23,1,high,7 - 1 + 9 + 1 - 1,15,13,15,14,2334.8720283999573,2336.895628099912,2338.411365399952,2343.4310672999127,2344.0456295999466,2344.045634799986,2345.5619839999126,2346.579248999944,w,15.0,0.6145623000338674,1,+10,759,42.721663902918095,0.5856049996805028,0.12469228922819964,2333446.0,9.22249481515156,-0.6047820285382484,-0.001973063759148186,2336981.0,,,,,2338.4077620564553,2334.872762056455,
146,33,26,M,1,3,138.0,24,3,low,6 + 8 + 7 + 1 - 9,13,13,15,14,2348.097280699993,2350.1220888999524,2351.637103899964,2356.6551812000107,2358.1416563999373,2358.1416617999785,2359.658028799924,2360.6744833999546,q,13.0,1.4864751999266446,1,+1,760,-5.062994353552016,-2.1809320696170547,-0.19985220186902364,2346672.0,23.22466615825042,-11.313729310930068,-0.9419639682908685,2350206.0,,,,,2351.6327620564552,2348.098762056455,
147,33,26,M,1,3,139.0,25,1,low,7 + 1 + 4 + 1 - 1,12,13,12,11,2362.1911346999696,2364.2185325999744,2365.7336899999063,2370.753539899946,2372.245643800008,2372.2456492999336,2373.762364999973,2374.779815399903,q,13.0,1.4921039000619205,0,+0,760,-26.26857888549241,1.3329384945032263,0.0063654655148819295,2360768.0,9.420943090148118,-0.3977200783149577,0.042172173307094774,2364303.0,,,,,2365.729762056455,2362.194762056455,
148,33,26,M,1,3,140.0,26,3,low,7 - 5 + 9 + 1 - 4,8,7,8,9,2376.296636199928,2378.3241947999923,2379.839450599975,2384.857660299982,2385.317585499957,2385.317590599996,2386.8340994999744,2387.851109399926,w,8.0,0.4599251999752596,1,+1,761,6.254077217190403,-0.021833584615740698,-0.07667605450007309,2374874.0,-11.43954975472365,-1.4845546495618036,-0.30218831090662723,2378408.0,,,,,2379.834762056455,2376.300762056455,
149,33,26,M,1,3,141.0,27,1,high,2 + 9 + 1 + 1 + 1,14,14,12,13,2389.3678029999137,2391.391279099975,2392.906592899933,2397.9244494999293,2398.4056232000003,2398.4056283999234,2399.9219746999443,2400.9391700999117,q,14.0,0.4811737000709399,1,+10,771,-6.736425629578951,-1.1192084304321996,0.03151155771369196,2387941.0,-0.8597155606724822,1.2257759691535095,-0.1286993460354462,2391474.0,,,,,2392.9007620564553,2389.367762056455,
150,33,26,M,1,3,142.0,28,2,high,2 + 1 + 9 - 4 + 1,9,9,8,11,2402.455919299973,2404.481742399977,2405.9969170999248,2411.0152528999606,2413.117674999987,2413.11768019991,2414.634164099931,2415.6517902999185,q,9.0,2.1024221000261605,1,+10,781,-12.968475167804787,3.6007054221649653,0.034929402449880076,2401031.0,19.811179644954816,-0.42865149374186373,0.018359550120265578,2404565.0,,,,,2405.991762056455,2402.457762056455,
151,33,26,M,1,3,143.0,29,4,low,4 + 7 - 8 + 9 - 3,9,9,8,11,2417.168558900012,2419.193417500006,2420.708702199976,2425.7277352999663,2427.2697684000013,2427.269773799926,2428.7865713000065,2429.803266900009,q,9.0,1.5420331000350416,1,+1,782,-10.3816685090166,0.38830984475760877,-0.043272367881330265,2415743.0,-6.147369790612268,1.5235261592759226,-0.3483629597201974,2419277.0,,,,,2420.703762056455,2417.169762056455,
152,33,26,M,1,3,144.0,30,2,low,5 - 1 + 1 + 8 + 9,22,21,22,23,2431.3201036999235,2433.344777399907,2434.860446100007,2439.8795750999125,2442.4696517999982,2442.469657599926,2443.9866571999155,2445.0034859000007,w,22.0,2.590076700085774,1,+1,783,-10.422640048497222,1.310436173600729,-0.019330564664341354,2429894.0,-37.894398844025496,2.4101849610239583,-0.009280996479350767,2433428.0,,,,,2434.854762056455,2431.320762056455,
153,33,26,M,1,3,145.0,31,3,high,7 - 6 + 8 + 1 + 7,17,17,16,15,2446.520148999989,2448.5462007999886,2450.0615956999827,2455.080291399965,2455.6297287999187,2455.629734099959,2457.146249099984,2458.163439499913,q,17.0,0.5494373999536037,1,+10,793,-16.05305104692474,-1.6065185942897644,0.18694424099751172,2445095.0,-5.430608098076069,-14.72007690317276,-0.9625742778435962,2448630.0,,,,,2450.056762056455,2446.521762056455,
154,33,26,M,1,3,146.0,32,4,low,4 + 7 + 8 - 3 + 9,25,25,24,26,2459.6801419999683,2461.706071699969,2463.221175799961,2468.2399963999637,2468.749728199909,2468.749733899953,2470.2665173999267,2471.283964399947,q,25.0,0.5097317999461666,1,+1,794,25.674685467154312,0.219146713498084,0.1248012297243839,2458255.0,43.808971834451,-0.7548315513415265,-0.005580553868743454,2461789.0,,,,,2463.2157620564553,2459.681762056455,
155,33,26,M,1,3,147.0,33,4,high,5 + 7 - 4 + 8 + 6,22,24,23,22,2472.800447699963,2474.825749599957,2476.3409845000133,2481.359449899988,2482.0457237999653,2482.045729400008,2483.5623297999846,2484.5793433999643,w,23.0,0.6862738999770954,0,+0,794,4.520035547934759,-23.337471825491413,-0.05706167878049784,2471375.0,-13.190556320252174,0.8765785975059766,0.11710018580607673,2474909.0,,,,,2476.335762056455,2472.801762056455,
156,33,26,M,1,3,148.0,34,2,low,4 + 9 + 1 - 7 - 1,6,8,6,5,2486.096152199898,2488.1214412999107,2489.636503899936,2494.6564428999554,2495.629690599977,2495.629696499905,2497.146485599922,2498.1630798999686,w,6.0,0.9732477000216022,1,+1,795,-15.27820066723023,1.6165657989159214,0.06636295300830919,2484671.0,24.37952075888867,0.27511601404880803,0.08610825665712651,2488206.0,,,,,2489.6327620564552,2486.097762056455,
157,33,26,M,1,3,149.0,35,1,low,6 + 9 + 1 + 1 - 1,16,14,16,15,2499.6797278999584,2501.706991299987,2503.222139599966,2508.239801399992,2509.981630699942,2509.981635599979,2511.498029300012,2512.515425999998,w,16.0,1.7418292999500409,1,+1,796,6.621231923185631,0.16643342133410943,-0.4147516986430586,2498256.0,-14.4098625312397,-3.8282862549812346,-0.04186743977353369,2501789.0,,,,,2503.2157620564553,2499.682762056455,
158,33,26,M,1,3,150.0,36,1,high,5 + 8 - 1 + 1 + 1,14,14,16,12,2514.0323310999665,2516.0570949999383,2517.572353699943,2522.5912111999933,2524.6297777999425,2524.629783499986,2526.146431799978,2527.163486199919,q,14.0,2.038566599949263,1,+10,806,8.158803849984595,0.4740613719304223,0.22288925824841277,2512606.0,-7.971494048271623,1.1525670048937364,0.14080077091814225,2516141.0,,,,,2517.567762056455,2514.0327620564553,
159,33,26,M,1,3,151.0,37,3,low,4 + 1 + 8 + 9 - 5,17,17,19,18,2528.6802706999006,2530.704481499968,2532.2196512999944,2537.2383956999984,2537.789807199966,2537.7898130000103,2539.3063364999834,2540.3230283999583,q,17.0,0.5514114999677986,1,+1,807,-0.3655745652491049,0.4385716793391694,-0.04471528359873855,2527253.0,18.44899471645944,-0.4003527415610737,0.08159711025414795,2530787.0,,,,,2532.213762056455,2528.6797620564553,
160,33,26,M,1,4,152.0,0,4,low,7 + 8 - 4 + 6 + 5,22,23,21,22,2605.921933799982,2607.9491639999906,2609.464389199973,2614.484269000008,2616.629854299943,2616.629860199988,2618.1462036999874,2619.1630986999958,e,22.0,2.145585299935192,1,+1,808,14.98502881426678,5.735279132941105,0.26942163806955355,2604498.0,26.348491093356827,1.0062246942239819,0.3895161617546483,2608033.0,,,,,2609.459762056455,2605.924762056455,
161,33,26,M,1,4,153.0,1,1,low,6 + 1 + 1 + 7 - 1,14,12,13,14,2620.680321899941,2622.705596399959,2624.2208177999128,2629.240658299997,2629.7258650999283,2629.725870299968,2631.242447900004,2632.259000199964,e,14.0,0.4852067999308929,1,+1,809,8.819077586229724,1.635478395777218,0.6756710567046855,2619254.0,-22.862291075127917,-0.45225881296226467,0.0582740122085077,2622789.0,,,,,2624.2157620564553,2620.680762056455,
162,33,26,M,1,4,154.0,2,4,low,2 + 9 - 3 + 5 + 8,21,22,21,23,2633.77661619999,2635.8028862999054,2637.3181837999728,2642.338437199942,2642.7737960999366,2642.7738007999724,2644.2903826999245,2645.3072179999435,w,21.0,0.4353588999947533,1,+1,810,-29.030666884481644,1.5453209566214743,0.061842585726226584,2632351.0,21.47152753545491,-0.39134357093886774,0.0036230870036122464,2635887.0,,,,,2637.3137620564553,2633.7777620564552,
163,33,26,M,1,4,155.0,3,3,high,5 + 1 + 7 - 8 + 6,11,13,9,11,2646.824027800001,2648.851332899998,2650.366542099975,2655.385263599921,2655.981906899949,2655.9819122999907,2657.4992437999463,2658.516277599964,e,11.0,0.5966433000285178,1,+10,820,-2.067763067066002,-0.16199285990079293,-0.13248280936091827,2645399.0,-11.211161428959961,1.148966212272589,1.8309954319790223,2648934.0,,,,,2650.3607620564553,2646.825762056455,
164,33,26,M,1,4,156.0,4,4,high,5 + 8 - 4 - 6 + 9,12,13,12,14,2660.033015999943,2662.057234799955,2663.5725080999546,2668.590837399941,2672.405889699934,2672.405895099975,2673.922499499982,2674.9397207999136,w,12.0,3.8150522999931127,1,+10,830,-15.762561200367045,0.6310648334325646,0.05421345840915359,2658606.0,-4.423557768583825,1.368224922118865,-0.12583280004769137,2662139.0,,,,,2663.5657620564552,2660.0327620564553,
165,33,26,M,1,4,157.0,5,2,low,6 + 1 + 7 + 5 - 1,18,18,17,16,2676.4564446998997,2678.482316099922,2679.997733199969,2685.016677799984,2685.73392109992,2685.7339265999617,2687.250504600001,2688.267275599996,q,18.0,0.7172432999359444,1,+1,831,57.62417586411633,1.7284193361586975,0.10653215868474897,2675031.0,-20.203493938825492,0.08576242374676202,-0.05078410670297928,2678565.0,,,,,2679.991762056455,2676.457762056455,
166,33,26,M,1,4,158.0,6,4,high,9 + 3 - 5 + 8 + 6,21,23,19,21,2689.783997499966,2691.8099938000087,2693.325415999978,2698.34370889992,2698.9338488999056,2698.9338542999467,2700.4513628999703,2701.468954599928,e,21.0,0.5901399999856949,1,+10,841,18.72490723733293,1.7620005929616274,0.15766382693253522,2688358.0,-6.4306653417289255,1.2116440978163836,0.10269786376394663,2691892.0,,,,,2693.318762056455,2689.7847620564553,
167,33,26,M,1,4,159.0,7,2,low,5 + 8 + 1 - 1 + 9,22,23,22,21,2702.985961299972,2705.0109952999046,2706.5262440999504,2711.545249399962,2712.053851899924,2712.0538569999626,2713.570654299925,2714.5880812999094,w,22.0,0.508602499961853,1,+1,842,8.371501243052066,-0.17814965101369928,-0.009558002777527497,2701559.0,9.061172531334773,-0.3395173247814114,0.0072854202051373385,2705092.0,,,,,2706.518762056455,2702.9857620564553,
168,33,26,M,1,4,160.0,8,3,high,4 + 8 - 9 + 1 + 7,11,11,13,9,2716.1047088999767,2718.130493699922,2719.6464813000057,2724.664756799932,2728.1659491999308,2728.165954599972,2729.682530899998,2730.6998445999343,q,11.0,3.501192399999127,1,+10,852,-2.5331769686278776,1.2056264852830965,0.0668650813135494,2714679.0,35.028331860779105,-1.9799082353745097,-0.08846198503789915,2718213.0,,,,,2719.6397620564553,2716.105762056455,
169,33,26,M,1,4,161.0,9,3,high,5 + 6 - 4 - 1 + 7,13,14,15,13,2732.21668339998,2734.240012699971,2735.7552915000124,2740.773817599984,2741.5019240999827,2741.501929999911,2743.017706899904,2744.034970699926,e,13.0,0.7281064999988303,1,+10,862,50.82581423487737,1.1821441858237591,0.03233894242432922,2730788.0,-31.384168073568464,-1.1743455281409978,0.012216276663720604,2734322.0,,,,,2735.7487620564552,2732.214762056455,
170,33,26,M,1,4,162.0,10,4,high,5 + 7 - 4 + 6 + 9,23,24,23,25,2745.5518755000085,2747.573991199956,2749.089140499942,2754.1072752999607,2754.8299520999426,2754.829957499984,2756.3465292999754,2757.363355499925,w,23.0,0.7226767999818549,1,+10,872,6.231254114213382,-0.4059957725005825,0.06254818782338534,2744122.0,5.278764101517234,-0.31678985797629977,-0.049747661099866614,2747655.0,,,,,2749.0817620564553,2745.548762056455,
171,33,26,M,1,4,163.0,11,3,low,3 + 1 + 8 - 5 + 9,16,15,17,16,2758.88013039995,2760.9028628999367,2762.418137899949,2767.4362252999563,2771.1019260999747,2771.1019314999,2772.618349099997,2773.635380599997,q,15.0,3.665700800018385,0,+0,872,16.366334325853394,-0.16568454583754022,0.2121538760612225,2757451.0,-4.464768062204705,0.31942607570840753,-0.010609731860049987,2760984.0,,,,,2762.410762056455,2758.877762056455,
172,33,26,M,1,4,164.0,12,2,low,8 + 1 + 9 + 1 - 4,15,14,16,15,2775.151797999977,2777.1786193999,2778.694028900005,2783.711886200006,2784.333988099941,2784.3339932999806,2785.8505993,2786.8670794999925,e,15.0,0.6221018999349326,1,+1,873,-5.330979928484597,0.3030025930369149,0.07547645407037495,2773726.0,-0.01131532658411416,0.14903384031592015,-0.02313813859555558,2777260.0,,,,,2778.6867620564553,2775.1527620564552,
173,33,26,M,1,4,165.0,13,3,high,2 + 1 + 9 - 7 + 6,11,13,11,12,2788.383741899976,2790.4100559999933,2791.925344099989,2796.946326999925,2798.16606259998,2798.1660677999025,2799.6826821999857,2800.699582399917,w,11.0,1.219735600054264,1,+10,883,-61.00611686921236,-0.2101097732509274,-0.09475427809994663,2786958.0,-20.464236208974636,1.276988932626283,0.04660265461569302,2790493.0,,,,,2791.919762056455,2788.384762056455,
174,33,26,M,1,4,166.0,14,3,high,3 + 1 + 8 - 5 + 6,13,14,15,13,2802.216505899909,2804.2410208999645,2805.7560536999954,2810.774264300009,2811.5419411999173,2811.5419465999585,2813.0581483999267,2814.075371099985,e,13.0,0.7676768999081105,1,+10,893,-14.105895134462425,-1.046298271449281,0.3979170999651662,2800789.0,3.9883495226356214,0.632151146097546,0.19649999049888978,2804322.0,,,,,2805.7487620564552,2802.2157620564553,
175,33,26,M,1,4,167.0,15,4,low,8 + 5 - 4 + 7 + 9,25,24,25,26,2815.5920197999803,2817.617808299954,2819.132481199922,2824.150826799916,2824.805963999941,2824.80596909998,2826.3224852998974,2827.338902699994,w,25.0,0.6551372000249103,1,+1,894,-13.730081272173422,1.4235846590938248,0.03193233104683024,2814166.0,3.6901977043675345,-0.6093904570973585,-0.11391024136572403,2817698.0,,,,,2819.124762056455,2815.5927620564553,
176,33,26,M,1,4,168.0,16,2,low,6 + 8 + 1 + 1 - 7,9,9,8,11,2828.8552781000035,2830.8821085999957,2832.397311999928,2837.415926299989,2837.9499651999213,2837.949970699963,2839.467688899953,2840.4843236999586,q,9.0,0.5340388999320567,1,+1,895,-28.85090177829527,0.8805971959764136,0.04521531427669134,2827430.0,-4.166847481505995,-0.4739535739262184,-0.05115130053809902,2830964.0,,,,,2832.390762056455,2828.856762056455,
177,33,26,M,1,4,169.0,17,3,low,8 + 6 - 7 + 1 - 4,4,3,5,4,2842.001056000008,2844.0270338999107,2845.542738799937,2850.5613312999485,2853.3420236000093,2853.342029499938,2854.8588452999247,2855.8756205999525,e,4.0,2.780692300060764,1,+1,896,-6.511299415880444,1.4214543989525517,0.09053158474783651,2840575.0,32.4858068467923,1.5625871380237006,-0.05821219540033584,2844109.0,,,,,2845.535762056455,2842.001762056455,
178,33,26,M,1,4,170.0,18,3,high,7 - 1 + 8 - 6 + 4,12,11,13,12,2857.393323999946,2859.418272199924,2860.9336491998984,2865.952418699977,2866.6540042000124,2866.6540094999364,2868.17041599995,2869.1877141000004,e,12.0,0.701585500035435,1,+10,906,-66.42999309532188,-0.3593055756719714,-0.3626055167358502,2855966.0,-27.544626937098357,0.08572396685515127,-0.21184820484766398,2859500.0,,,,,2860.926762056455,2857.392762056455,
179,33,26,M,1,4,171.0,19,2,low,4 + 1 + 9 + 1 - 6,9,8,7,9,2870.7045057999203,2872.731921599945,2874.247250599903,2879.265203799936,2881.430067199981,2881.430072499905,2882.946864599944,2883.9637398999184,e,9.0,2.164863400044851,1,+1,907,2.538129195504638,-1.7716614033525602,0.2249745189594734,2869279.0,8.462906890722097,0.8082753054627023,0.11788609275460593,2872813.0,,,,,2874.239762056455,2870.705762056455,
180,33,26,M,1,4,172.0,20,1,low,2 + 9 + 1 + 1 + 1,14,14,13,12,2885.4803710000124,2887.508177699987,2889.0233393999515,2894.041283799917,2895.6300247999607,2895.630030200002,2897.146340699983,2898.1630144999363,q,14.0,1.5887410000432285,1,+1,908,-10.997087462625167,3.175652453568404,0.13283328597974786,2884055.0,1.8291809051196348,-0.8016759010245951,0.10898664206279562,2887589.0,,,,,2889.015762056455,2885.481762056455,
181,33,26,M,1,4,173.0,21,4,high,2 + 5 - 3 + 9 + 8,21,19,22,21,2899.6799604999837,2901.706258599996,2903.2212349999463,2908.240015899996,2909.198129499913,2909.198134699953,2910.7147619999014,2911.731707699946,e,21.0,0.9581135999178514,1,+10,918,4.1454783637993025,0.7594832478364877,-0.05789749514527043,2898253.0,-48.14788448035892,0.4051402204611221,0.13495289505624997,2901787.0,,,,,2903.213762056455,2899.6797620564553,
182,33,26,M,1,4,174.0,22,4,high,9 + 7 - 5 + 8 + 6,25,25,24,27,2913.248439999996,2915.272403899929,2916.787402799935,2921.805941800005,2922.3181365999626,2922.318142300006,2923.8347745999927,2924.852057299926,q,25.0,0.5121947999577969,1,+10,928,16.401630485392026,-0.7226609456734652,-0.03348947907297717,2911819.0,-2.5841153531978556,-0.3700682736045451,-0.06675811307860857,2915353.0,,,,,2916.779762056455,2913.245762056455,
183,33,26,M,1,4,175.0,23,3,high,6 + 7 + 8 + 1 - 9,13,15,14,13,2926.36892249994,2928.3951948999893,2929.910251099965,2934.928698099917,2935.446196099976,2935.4462019999046,2936.9630186998984,2937.98057289992,e,13.0,0.5174980000592768,1,+10,938,0.8631998534740308,0.2767024327040364,-0.20565581419227863,2924942.0,6.143126393576907,1.313024956614079,-0.15123246509275945,2928476.0,,,,,2929.9027620564552,2926.368762056455,
184,33,26,M,1,4,176.0,24,3,low,5 + 6 - 4 - 1 + 8,14,14,16,15,2939.4967248999747,2941.523042799905,2943.038241199916,2948.0566244999645,2950.9341827000026,2950.9341880999277,2952.4507919999305,2953.4677649999503,q,14.0,2.877558200038038,1,+1,939,20.449792556948207,-0.6820427351601479,0.0487276896878468,2938070.0,15.633658231142261,0.6250901689928203,0.07717489021916402,2941603.0,,,,,2943.029762056455,2939.4967620564553,
185,33,26,M,1,4,177.0,25,4,low,4 + 8 + 9 - 3 + 7,25,26,24,25,2954.984511499992,2957.011308599962,2958.5275281999493,2963.5456341999816,2964.4220645999303,2964.422070199973,2965.938575099921,2966.955543399905,e,25.0,0.8764303999487311,1,+1,940,18.496322989274326,-1.3002398342914194,0.006674530598171691,2953559.0,8.657634509597607,0.10533808904652187,0.026030157371565332,2957093.0,,,,,2958.519762056455,2954.9857620564553,
186,33,26,M,1,4,178.0,26,2,high,3 + 8 - 5 + 1 + 1,8,9,8,6,2968.472471699933,2970.4962938999524,2972.011311899987,2977.0292530999286,2977.966130799963,2977.966137100011,2979.482772899908,2980.49996549997,w,8.0,0.936877700034529,1,+10,950,3.781214531740275,0.584904335052141,0.12723535842904,2967043.0,8.217688953809759,2.0117843010537224,0.3974359236694085,2970576.0,,,,,2972.002762056455,2968.4697620564552,
187,33,26,M,1,4,179.0,27,1,high,8 + 1 + 4 + 1 + 1,15,14,15,16,2982.0166647000005,2984.043682299904,2985.558846300002,2990.576784799923,2991.0782304999884,2991.078241499956,2992.5946833000053,2993.612206999911,w,15.0,0.5014457000652328,1,+10,960,-12.054721694029931,7.498983542004859,0.6420893520040056,2980591.0,0.6477269850284667,-0.03010122802662929,0.20994872152816457,2984124.0,,,,,2985.550762056455,2982.017762056455,
188,33,26,M,1,4,180.0,28,3,low,4 + 7 - 3 + 5 - 1,12,12,13,11,2995.129074999946,2997.153424999909,2998.6688058999134,3003.6872489999514,3004.574091999908,3004.574097799952,3006.090424599941,3007.1071878999937,q,12.0,0.8868429999565706,1,+1,961,8.471976843387539,1.5743661805361397,0.22749314015776423,2993700.0,-33.44675861738699,3.249724760692807,0.5074280423802491,2997234.0,,,,,2998.660762056455,2995.126762056455,
189,33,26,M,1,4,181.0,29,2,low,3 - 1 + 9 - 5 + 1,7,6,7,5,3008.623993899906,3010.649429299985,3012.1646516999463,3017.1834986999165,3020.606197399902,3020.606202999945,3022.122665499919,3023.1392180999974,w,7.0,3.422698699985631,1,+1,962,-2.0631675502547844,1.674425773582501,-0.011497890981941872,3007196.0,-4.544228579544287,2.329574560815092,0.07256227814272953,3010729.0,,,,,3012.155762056455,3008.622762056455,
190,33,26,M,1,4,182.0,30,1,low,2 + 1 + 9 + 1 + 1,14,14,13,12,3024.655809299904,3026.6816147000063,3028.1968842999777,3033.214895099984,3035.4540949999355,3035.45410079998,3036.9703549999977,3037.9871895000106,q,14.0,2.239199899951928,1,+1,963,-5.441042209413744,0.046191492283054636,-0.028926611563750315,3023228.0,1.2361284717344603,2.1523687148568516,0.05164401903559357,3026761.0,,,,,3028.187762056455,3024.654762056455,
191,33,26,M,1,4,183.0,31,3,low,2 + 1 + 9 - 4 + 6,14,14,15,16,3039.5039380999515,3041.530740699964,3043.045982299954,3048.064550699899,3048.670128399972,3048.670133800013,3050.1868293999,3051.2033285999205,q,14.0,0.6055777000728995,1,+1,964,-23.23238054415905,-0.9671568102319736,0.012539716880094476,3038077.0,18.551235466655026,1.4910980355060302,0.0022712046121076135,3041611.0,,,,,3043.037762056455,3039.5037620564553,
192,33,26,M,1,4,184.0,32,1,low,8 + 1 + 1 + 1 - 4,7,5,7,8,3052.7202920999844,3054.7478936999105,3056.2631453999784,3061.2812808000017,3061.7822261999827,3061.782231499906,3063.2983748000115,3064.315477099968,w,7.0,0.5009453999809921,1,+1,965,7.794785741436602,-0.4869575744257322,0.08772518180720712,3051294.0,0.4639574088127816,0.06949589979976079,-0.016153880658474007,3054828.0,,,,,3056.254762056455,3052.720762056455,
193,33,26,M,1,4,185.0,33,3,low,5 - 1 - 4 + 6 + 7,13,13,14,15,3065.832840899937,3067.860277400003,3069.375980499899,3074.3947944999672,3075.1182503999444,3075.118255799985,3076.6347665999783,3077.6514673999045,q,13.0,0.7234558999771252,1,+1,966,-5.28662704095321,0.9629677152753229,-0.05955102573027071,3064407.0,2.1779382740738598,-0.5780731536908714,-0.282408606506648,3067941.0,,,,,3069.367762056455,3065.8337620564553,
194,33,26,M,1,4,186.0,34,2,high,4 + 9 - 7 + 1 - 1,6,6,8,5,3079.1685360999545,3081.1955419000005,3082.71068499994,3087.728983899928,3088.2222454999574,3088.222250699997,3089.738746899995,3090.755861099926,w,8.0,0.4932616000296548,0,+0,966,-24.769419268559687,-1.31730140970659,-0.062324718697477355,3077742.0,-9.060068047111457,1.7494002260623827,0.13029450010918708,3081275.0,,,,,3082.701762056455,3079.1687620564553,
195,33,26,M,1,4,187.0,35,1,low,9 + 7 + 1 + 1 + 1,19,19,18,20,3092.272588199936,3094.298481200007,3095.81365799997,3100.831623199978,3101.502188299899,3101.50219359994,3103.018864599988,3104.0354695999995,q,19.0,0.6705650999210775,1,+1,967,2.800167982304192,-0.33555091161601647,0.024061982724451703,3090845.0,-2.362063867357472,-3.0110601314382324,0.059089145491902695,3094378.0,,,,,3095.8047620564553,3092.271762056455,
196,33,26,M,1,4,188.0,36,1,high,5 + 6 + 1 + 1 + 1,14,13,14,16,3105.552230399917,3107.5787348999875,3109.0936071999604,3114.11129479995,3114.5183028999018,3114.518308399944,3116.034830099903,3117.051972999936,w,14.0,0.4070080999517813,1,+10,977,-13.039454117725509,-0.13476363104800448,0.005988825331225023,3104125.0,-12.744586522492266,-1.2801753966039238,-0.12523408410948722,3107657.0,,,,,3109.0837620564553,3105.551762056455,
197,33,26,M,1,4,189.0,37,4,high,2 + 9 - 6 + 8 - 4,9,7,11,9,3118.5687990000006,3120.592663699994,3122.107701899949,3127.126497199992,3131.942352199927,3131.942357699969,3133.458635899937,3134.475930599961,e,9.0,4.815854999935255,1,+10,987,-10.08632060609887,0.7900557341664154,-0.02409180351424789,3117139.0,13.903044310191635,0.5343612039772139,-0.014830465819102745,3120673.0,,,,,3122.099762056455,3118.5657620564552,
198,33,26,M,1,5,190.0,0,3,low,8 + 3 + 1 - 7 + 9,14,14,12,15,3194.906831600005,3196.933339099982,3198.4485634999583,3203.468835299951,3208.350366599974,3208.350371899898,3209.866782599944,3210.883327199961,q,14.0,4.881531300023198,1,+1,988,11.490843606219126,2.220233464504462,0.03289915187822601,3193479.0,7.874770339133514,-9.881596128638053,-0.5789904198299545,3197014.0,,,,,3198.4407620564552,3194.905762056455,
199,33,26,M,1,5,191.0,1,3,high,3 + 8 - 7 - 1 + 9,12,14,12,13,3212.400134299998,3214.425078899949,3215.940309299971,3220.9609600999397,3221.806310499902,3221.8063155999407,3223.322992899921,3224.340021100012,e,13.0,0.8453503999626264,0,+0,988,-14.589880651789894,0.5221567550303723,0.45078079894428247,3210971.0,19.002441390090194,1.5211152609404017,-1.7033936399008045,3214506.0,,,,,3215.932762056455,3212.397762056455,
