,id,age,sex,cued,block,trial,trialinblock,efflev,rewlev,calc,corAns,option1,option2,option3,tstart,ITI1Time,probTime,respTime,selectTime,ITI2Time,fbTime,ITI3Time,key_press,chosenAns,RT,acc,feedback,total_points,cuescr,cuecor,cuezyg,cuetime,probscr,probcor,probzyg,probtime,fbscr,fbcor,fbzyg,fbtime,probtime_c,cuetime_c,fbtime_c
0,34,24,f,0,Practice,,0,1,0,4 + 1 + 9 + 1 + 1,16,15,14,16,45.169773099944,,45.16977519995999,50.42545509990305,52.67826459999196,52.67827109992504,54.1949935000157,55.21559409995098,e,16,2.2528095000889152,1,Correct,0,,,,,34.76027712362951,-1.2379497712596246,-0.0024027678023195165,43917.0,6.830135097277767,1.2875080434039674,0.07215036126473473,52707.0,45.41315170346019,,54.203151703460186
1,34,24,f,0,Practice,,1,1,0,3 + 1 + 1 + 8 - 1,12,10,12,11,56.73305609996896,,56.733059699996375,61.75389629998244,63.5017446000129,63.50175089994445,65.01834469998721,66.03584559995215,w,12,1.747848300030455,1,Correct,0,,,,,-22.881769472587187,0.10471201448119061,0.0027524616813938696,55246.0,-12.42371050082271,-1.3854293655737164,-0.033290686710106376,63528.0,56.74215170346019,,65.02415170346019
2,34,24,f,0,Practice,,2,2,0,8 + 1 + 6 + 1 - 4,12,11,12,10,67.5613783999579,,67.56138460000511,72.58142069994938,73.9977698000148,73.99777589994483,75.51470689999405,76.53336599993054,w,12,1.4163491000654176,1,Correct,0,,,,,-16.146857874842993,-0.6173038033146767,-0.03170336782758176,66073.0,-48.360544025319875,-1.014874106483484,0.058890460919005516,74025.0,67.56915170346018,,75.52115170346019
3,34,24,f,0,Practice,,3,2,0,9 + 4 - 6 + 1 - 1,7,6,5,7,78.05020099994726,,78.05020409997087,83.06936459999997,84.37377910001669,84.37378529994749,85.89016899990384,86.90704620000906,e,7,1.304414500016719,1,Correct,0,,,,,4.8240388890361015,-1.1898110165275666,0.001700808844504964,76561.0,-16.197896707227493,-0.4495342110110654,-0.13931825229031158,84399.0,78.05715170346019,,85.89515170346019
4,34,24,f,0,Practice,,4,3,0,9 + 3 - 5 + 6 + 7,20,21,22,20,88.42382869997527,,88.42383210000116,93.44248669990338,94.98976729996502,94.98977350001223,96.50640869990455,97.5237238999689,e,20,1.54728060006164,1,Correct,0,,,,,-2.511305193052478,0.23555965956640534,0.06443051433343472,86934.0,10.314249754452726,-0.6339211565041936,-0.014761265877234253,95015.0,88.43015170346018,,96.51115170346019
5,34,24,f,0,Practice,,5,3,0,2 + 1 + 9 - 7 + 6,11,10,9,11,99.04096769995522,,99.04097129998264,104.06146090000402,105.34171079995576,105.34171680000144,106.85873779992107,107.87702509993689,e,11,1.280249899951741,1,Correct,0,,,,,12.588065870771636,-0.26172688476196626,0.0048876879531807305,97553.0,4.549536939336287,0.6752762240643575,-0.12067677879409788,105369.0,99.04915170346018,,106.86515170346019
6,34,24,f,0,Practice,,6,4,0,4 + 8 + 5 - 3 + 7,21,22,23,21,109.3943808999611,,109.394384299987,114.41518109990284,115.60577559995,115.60578169999644,117.12245769996662,118.14058070001192,e,21,1.1905945000471547,1,Correct,0,,,,,-13.277317145513566,-0.09389080673583017,0.032564293449547366,107906.0,7.072987063275658,0.045362870626714624,0.004731783518290511,115632.0,109.40215170346019,,117.12815170346019
7,34,24,f,0,Practice,,7,4,0,5 + 8 - 4 + 6 + 9,24,23,24,22,119.65773029997943,,119.65773410000838,124.67740879999474,126.10961519996636,126.1096203000052,127.62615659995936,128.64436039992142,w,24,1.4322063999716192,1,Correct,0,,,,,11.862211056982277,-0.628292766114904,-0.08852572176128093,118169.0,2.189815203552642,1.1971618318177777,0.07414212072621629,126136.0,119.66515170346018,,127.63215170346018
8,34,24,f,1,0,0.0,0,3,high,8 + 3 + 1 - 7 + 9,14,15,12,14,260.3794890999561,262.42012849997263,263.93505669990554,268.96285349992104,270.49947129993234,270.4994762999704,272.0161224999465,273.0332920999499,e,14,1.5366178000112996,1,+10,10,0.8570932253152277,1.1621870584929255,-0.02737757525949247,258911.0,-36.14521329519395,-1.1738727530062194,0.011866009497532692,262454.0,-52.16998292758082,1.4438931539559965,0.0457739815939493,270524.0,263.9501517034602,260.4071517034602,272.0201517034602
9,34,24,f,1,0,1.0,1,3,high,5 + 6 - 4 - 1 + 8,14,15,16,14,274.5500751999207,276.5740191999357,278.08931059995666,283.1074530999176,284.4275050999131,284.4275102999527,285.9443015999859,286.9615262999432,e,14,1.320051999995485,1,+10,20,8.335990048788776,0.7617534813447531,0.08917935061980331,273064.0,19.012512437552022,-0.9537980108827337,-0.05225776152466244,276598.0,2.2540729078750052,0.4358915291495995,0.014417091163045681,284452.0,278.0941517034602,274.56015170346024,285.9481517034602
10,34,24,f,1,0,2.0,2,1,high,7 - 1 + 8 + 1 - 1,14,14,12,13,288.4784611999057,290.5105702999281,292.0257179999025,297.04415490000974,298.3634545999812,298.3634592000162,299.87994199991226,300.8971787999617,q,14,1.3192996999714524,1,+10,30,-15.694268548054303,0.014004791503214875,-0.058767814668849505,287001.0,-1.1217787867083557,0.7797512152508528,-0.0759070626520213,290535.0,3.9905408575201555,-0.6168750645319641,-0.13881764927079687,298388.0,292.03115170346024,288.4971517034602,299.8841517034602
11,34,24,f,1,0,3.0,3,1,high,8 + 1 + 4 + 1 + 1,15,16,14,15,302.41391689993907,304.43560729990713,305.95060739992186,310.96932159992866,312.4035703999689,312.4035755000077,313.91987849993166,314.93683909997344,e,15,1.4342488000402227,1,+10,40,21.6858816716235,-1.3771117944820679,-0.009223853801955784,300926.0,11.498308153226345,0.0876484560546702,0.10913534611077647,304459.0,7.06044997702003,0.5895213226061369,0.12710157867420802,312428.0,305.9551517034602,302.4221517034602,313.9241517034602
12,34,24,f,1,0,4.0,4,3,low,9 - 5 - 1 - 6 + 8,5,4,5,7,316.45391419995576,318.4860691999784,320.0010056999745,325.01939349994063,326.6435733999824,326.6435788999079,328.16029999998864,329.17729489994235,w,5,1.6241799000417814,1,+1,41,-29.83173853537599,-0.8680356686263435,0.09923613201563475,314977.0,-10.58607760507023,-0.19341316944167186,0.09093746407924685,318510.0,-13.388606124176128,-0.5280142555749103,0.01210593477338695,326668.0,320.0061517034602,316.4731517034602,328.1641517034602
13,34,24,f,1,0,5.0,5,1,low,2 + 1 + 9 + 1 - 1,12,13,12,11,330.69402679998893,332.7179065999808,334.2328777000075,339.2510933999438,340.8834976999788,340.8835029999027,342.40062719990965,343.41767599992454,w,12,1.6324043000349775,1,+1,42,41.01061277978352,0.38836407055381983,0.06687715879241796,329208.0,9.962978231475912,-0.4521737688476488,-0.021676793230520408,332742.0,2.2682903517708883,-0.2556948859230168,-0.00802415977523574,340908.0,334.23815170346023,330.70415170346024,342.40415170346023
14,34,24,f,1,0,6.0,6,4,low,8 + 4 + 7 - 5 - 6,8,8,6,9,344.93453979992773,346.97965929994825,348.49479839997366,353.51302929990925,355.0275939999847,355.0275993999094,356.54422839998733,357.5619428999489,q,8,1.5145647000754252,1,+1,43,-16.221609006842037,-0.11054700323169353,0.06703867523860252,343470.0,-29.6750486460078,-1.1173827280881907,-0.052476661599206054,347004.0,14.786644562996438,0.5154827285203849,0.030267417521560924,355051.0,348.50015170346023,344.96615170346024,356.5471517034602
15,34,24,f,1,0,7.0,7,4,high,5 + 9 - 4 + 7 + 6,23,23,24,25,359.0787712999154,361.1162505999673,362.6313503999263,367.6501144999638,368.8115540000144,368.8115584999323,370.3280868999427,371.3453155999305,q,23,1.1614395000506192,1,+10,53,8.311178470210109,1.1042595779326483,0.04771330208831559,357606.0,-16.27819758408777,-0.16810978014973887,0.05099915539906341,361140.0,-34.11018278272628,0.9705951075305492,0.04400085259788744,368835.0,362.6361517034602,359.1021517034602,370.3311517034602
16,34,24,f,1,0,8.0,8,1,high,3 + 1 + 1 + 8 - 1,12,13,12,14,372.8621061999584,374.8849779999582,376.40018629992846,381.4184035999933,382.6675110999495,382.6675164999906,384.1840303000063,385.2011030999711,w,12,1.2491074999561531,1,+10,63,-12.010425619083668,-0.9583435827396496,0.013837913378513811,371375.0,1.7266637900667874,0.20782849152479965,0.03645247647476868,374908.0,-4.699529056783213,-1.2871110694214352,0.08821057924816222,382691.0,376.40415170346023,372.8711517034602,384.1871517034602
17,34,24,f,1,0,9.0,9,1,low,7 + 1 + 4 + 1 - 1,12,13,12,11,386.71841689990833,388.7411866999464,390.2564848000184,395.2749027999817,396.5475174000021,396.5475224999245,398.06429329991806,399.0817989999196,w,12,1.2726146000204608,1,+1,64,5.342650106700505,-0.3735580366991682,-0.005889951873128574,385231.0,1.72746460622235,-0.37644679417728266,-0.09268151869970542,388765.0,-13.23190638755517,-0.8917989373727924,-0.0035053818363410816,396571.0,390.2611517034602,386.7271517034602,398.06715170346024
18,34,24,f,1,0,10.0,10,3,low,6 + 1 + 8 + 7 - 9,13,15,14,13,400.59865689999424,402.6254154999042,404.1407628000016,409.1598355999449,410.4836480999365,410.4836531999754,412.0003376000095,413.0173824999947,e,13,1.323812499991618,1,+1,65,18.92235791780528,0.28512321550815756,0.02468111499207093,399116.0,-0.15893944947385386,0.3435091292401484,0.09341232683190026,402650.0,23.191771136733003,1.1354121641196517,-0.036695581531641874,410507.0,404.1461517034602,400.6121517034602,412.0031517034602
19,34,24,f,1,0,11.0,11,3,high,6 - 1 + 7 - 8 + 9,13,12,11,13,414.534098599921,416.5590474999044,418.0745069999248,423.0927430000156,424.37159859994426,424.3716035999824,425.8888145999517,426.9061219999567,e,13,1.2788555999286473,1,+10,75,8.369827764125153,-0.15729106764766598,-0.03910670600053856,413049.0,4.302895976886916,0.636432771006457,0.11286436778742792,416583.0,1.6113998225362183,-0.019501250047068375,-0.04093031819935389,424396.0,418.07915170346024,414.5451517034602,425.89215170346023
20,34,24,f,1,0,12.0,12,4,high,8 + 7 - 4 + 5 + 9,25,24,25,26,428.4227052999194,430.4457238999894,431.9610020999098,436.9810446999036,438.2037055999972,438.2037103999173,439.7210689999629,440.7380569999805,w,25,1.222660900093615,1,+10,85,-18.585739524990533,-0.06510728607947947,0.05551558619209307,426936.0,31.00371553767547,-1.676008303483254,0.03392334305356237,430471.0,10.212918384459698,0.5088932388692697,-0.02346981292642014,438228.0,431.9671517034602,428.4321517034602,439.7241517034602
21,34,24,f,1,0,13.0,13,2,low,2 + 9 - 4 + 1 + 1,9,9,8,11,442.2547492999584,444.3237525000004,445.83905319997575,450.85752029996365,452.2036069999449,452.20361229998525,453.7202868999448,454.7371270000003,q,9,1.3460866999812424,1,+1,86,29.934477099587582,-0.2881003391674035,0.046687706500117665,440813.0,-26.02676483387748,0.7230544930802001,0.029135627364627048,444347.0,10.710216782094351,-0.32457439388606524,-0.02913640056169653,452227.0,445.8431517034602,442.3091517034602,453.7231517034602
22,34,24,f,1,0,14.0,14,4,high,2 + 9 - 4 + 8 + 7,22,21,23,22,456.2539251999697,458.2810577999335,459.79635479999706,464.81481419992633,466.1077063999837,466.1077113999054,467.6241402999731,468.6417134999065,e,22,1.2928922000573948,1,+10,96,-15.518442971092568,0.9557662507944711,-0.05157467617001488,454771.0,9.358815010054215,0.4026420256739298,0.007991449869675593,458305.0,-13.73239773953506,-0.16149525753481875,0.046653235227860135,466131.0,459.8011517034602,456.26715170346023,467.6271517034602
23,34,24,f,1,0,15.0,15,3,high,2 + 1 + 9 - 5 + 6,13,14,11,13,470.1587571999989,472.1830828000093,473.6983548999997,478.7167652999051,479.907807999989,479.9078129999107,481.42439639999066,482.4416764999041,e,13,1.1910427000839263,1,+10,106,23.144815010237593,0.35089450268623956,0.19793369653647264,468673.0,11.168673976260097,0.16798822419349957,0.06489401723185018,472206.0,-36.47504451202285,-0.25435126217050996,0.007584247476014827,479931.0,473.70215170346023,470.1691517034602,481.4271517034602
24,34,24,f,1,0,16.0,16,1,low,5 + 1 + 1 + 9 + 1,17,19,16,17,483.9694318999536,485.997085699928,487.5132769999327,492.5307824999327,493.7881116999779,493.7881168000167,495.3045736999484,496.3215476999758,e,17,1.2573292000452057,1,+1,107,11.623029719579883,-0.5031924489262876,0.026217291006172427,482487.0,-20.80364451008906,-0.24607402755410313,-0.05106055766237505,486021.0,2.4574937144646425,-1.8417186483989436,0.08006562188060107,493811.0,487.51715170346023,483.98315170346024,495.3071517034602
25,34,24,f,1,0,17.0,17,2,high,9 + 4 - 6 + 1 - 1,7,8,9,7,497.8396013999591,499.8765899999999,501.3918937999988,506.4098258999875,507.7324424999533,507.7324481999967,509.24915359995794,510.26729079999495,e,7,1.3226165999658406,1,+10,117,16.970305081944936,-0.395063610425999,0.03598755543366838,496366.0,22.57409134593121,-0.7821946220616907,0.01497721170035815,499900.0,1.2412118367897875,-0.01305020890449704,-0.008883985623775903,507756.0,501.3961517034602,497.8621517034602,509.2521517034602
26,34,24,f,1,0,18.0,18,1,low,7 + 1 + 4 + 1 - 1,12,13,12,11,511.784509299905,513.8131463999161,515.3286744999932,520.3472044999944,521.8516957999673,521.8517009000061,523.3683380999137,524.3851603999501,w,12,1.5044912999728697,1,+1,118,16.742664300681902,-0.4820764400067583,0.018129689805028715,510303.0,21.387433069891436,-0.574298263278564,0.053706697884507326,513837.0,-13.00684818195142,0.7806511568740611,0.021726448269099086,521874.0,515.3331517034602,511.7991517034602,523.3701517034602
27,34,24,f,1,0,19.0,19,1,low,5 + 6 + 1 + 1 + 1,14,14,13,16,525.901919899974,527.9257363999495,529.4409986999817,534.4587462999625,535.6837844999973,535.683789899922,537.2003714999883,538.2176294999663,q,14,1.22503820003476,1,+1,119,19.020262109660933,-1.1177868246456377,-0.02773409251465897,524415.0,1.9587970425477543,-0.08743856954234452,0.14288711828485434,527948.0,37.0004339158788,-1.0987838603676607,0.016203988897724564,535707.0,529.4441517034602,525.9111517034602,537.2031517034602
28,34,24,f,1,0,20.0,20,3,high,7 - 1 + 8 - 6 + 4,12,12,11,13,539.7344284999417,541.7597443999257,543.2752138999058,548.2936770999804,549.3876935999142,549.3876988999546,550.9043315999443,551.9225893999683,q,12,1.0940164999337867,1,+10,129,13.894447996152486,-0.21131897808284172,0.0455601458593935,538249.0,12.747104585846323,0.9760435640536205,-0.05599902771635801,541783.0,11.730297558913847,-0.2368113694796632,0.10434254923947828,549411.0,543.2791517034602,539.7451517034602,550.9071517034602
29,34,24,f,1,0,21.0,21,2,low,8 + 1 + 9 + 1 - 5,14,15,14,13,553.4398250000086,555.4664427000098,556.9814696999965,561.9995774999261,563.1962799999164,563.1962852999568,564.7130430999678,565.7298557999311,w,14,1.1967024999903515,1,+1,130,-18.337391117665177,-0.317757917137091,-0.0635234509786009,551956.0,9.017903076349551,-0.6274277717941494,0.05995496331186145,555489.0,27.78206261402461,0.2689000384464322,0.01494271295287497,563219.0,556.9851517034602,553.4521517034602,564.7151517034603
30,34,24,f,1,0,22.0,22,3,high,4 + 1 + 8 + 9 - 5,17,17,18,19,567.246527899988,569.2735960999271,570.7888440999668,575.80712579994,576.9158146999544,576.9158199999947,578.4324806999648,579.4495499000186,q,17,1.1086889000143856,1,+10,140,-1.2898654824672704,-0.6879082369562921,0.036638193875909275,565763.0,2.3113138378100944,0.4388692377328125,-0.006893472404107204,569296.0,6.132033518602739,-0.17737663500332257,0.010744578757162504,576939.0,570.7921517034603,567.2591517034602,578.4351517034602
31,34,24,f,1,0,23.0,23,4,low,4 + 8 + 9 - 3 + 7,25,26,24,25,580.9659503999865,582.9915961999213,584.5068351000082,589.5254613999277,591.9638203999493,591.9638256999897,593.4804515999276,594.4968310999684,e,25,2.438359000021592,1,+1,141,6.237331847665992,0.1753735751912835,0.04319017012711024,579481.0,-12.394853412505205,-0.13036385512155935,-0.028782067134303313,583014.0,-38.30362051398734,0.39146591083918114,0.1446159335155759,591986.0,584.5101517034602,580.9771517034602,593.4821517034602
32,34,24,f,1,0,24.0,24,2,low,7 + 1 + 9 - 1 - 8,8,6,7,8,596.0135118999751,598.04120769992,599.5564157000044,604.5750293999445,605.7238306999207,605.7238362999633,607.2404049999313,608.2573951999657,e,8,1.148801299976185,1,+1,142,-28.238207573819487,-0.39259661984579175,0.16747812601506484,594530.0,-28.417366156608693,-0.44085519049567345,0.03470774281187161,598064.0,11.878371222629838,0.30288594075845143,-0.02836005541140274,605746.0,599.5601517034602,596.0261517034602,607.2421517034602
33,34,24,f,1,0,25.0,25,4,high,9 + 4 - 6 + 8 + 7,22,22,21,24,609.7741764999228,611.8002733999165,613.3155759999063,618.3342870000051,620.8838445999427,620.8838493999792,622.4010806999868,623.4182733999332,q,22,2.5495575999375437,1,+10,152,11.366273470447194,1.0567720522807384,-0.007633929528444661,608289.0,0.7809906056785794,0.07053719426553329,-0.06406930518271436,611823.0,-9.054652994221577,-0.6832226673288302,0.06660678767792905,620907.0,613.3191517034602,609.7851517034602,622.4031517034603
34,34,24,f,1,0,26.0,26,2,high,6 + 1 + 8 + 5 - 1,19,18,17,19,624.9355389999691,626.9614247999853,628.47641439992,633.4948587999679,634.8517899999861,634.8517947999062,636.3683725999435,637.3856050999602,e,19,1.3569312000181526,1,+10,162,1.7660417995375912,-0.26271723790322454,0.0165969414263214,623450.0,13.751208714591582,-1.1253399769775978,-0.029451665735038324,626984.0,44.0301485501443,-1.2129805032458263,0.06062892548404597,634874.0,628.4801517034603,624.9461517034603,636.3701517034602
35,34,24,f,1,0,27.0,27,2,high,5 - 1 + 1 + 8 + 9,22,22,23,21,638.9023879999295,640.9264601999894,642.4418406999903,647.4597137999954,648.7238576000091,648.7238625999307,650.2406943999231,651.2579607999651,q,22,1.2641438000136986,1,+10,172,14.35642940783692,0.10774262022450376,0.0445468946017471,637415.0,-15.381845858034032,-0.8110256103067401,-0.05261330095368266,640949.0,-11.221066655728045,-1.261316691943172,0.04308743734574105,648747.0,642.4451517034602,638.9111517034602,650.2431517034602
36,34,24,f,1,0,28.0,28,4,low,9 + 7 - 5 + 8 + 6,25,24,27,25,652.7745600999333,654.7991751999361,656.314455899992,661.3330732999602,662.6997976999264,662.699802499963,664.2161325999768,665.2331495999824,e,25,1.3667243999661878,1,+1,173,5.496968140033475,-0.5723433136556286,0.054881453669704205,651288.0,-36.065356183157355,-0.0520730218053842,0.062480993579299815,654822.0,-2.4873954767644033,-0.2138976674939963,-0.007522579464440682,662722.0,656.3181517034602,652.7841517034602,664.2181517034602
37,34,24,f,1,0,29.0,29,1,high,6 + 1 + 8 + 1 + 1,17,17,16,15,666.7497989999829,668.7777535999194,670.2936267999467,675.3115132999374,676.4678561999463,676.4678620999912,677.9844980000053,679.0019897000166,q,17,1.1563429000088945,1,+10,183,-1.8188806480052246,-0.05993688808268072,-0.009476601030403042,665266.0,-22.470535719412837,-0.1737549484929497,0.04542572379953591,668800.0,6.247972866259499,-0.2955893809544454,0.009510699348356466,676490.0,670.2961517034602,666.7621517034602,677.9861517034602
38,34,24,f,1,0,30.0,30,4,low,8 + 3 - 4 + 5 + 9,21,23,21,22,680.5189020999242,682.5452185999602,684.060475599952,689.080032399972,690.5238180999877,690.5238227999071,692.0399786999915,693.0568212999497,w,21,1.4437857000157237,1,+1,184,24.91347840081466,0.03380028200792218,0.05442874840655598,679034.0,-7.180902352417674,-0.333416766331327,-0.02832211609989299,682568.0,21.942216871918273,-0.8580353769603173,-0.028732360681964053,690545.0,684.0641517034602,680.5301517034602,692.0411517034602
39,34,24,f,1,0,31.0,31,2,high,6 + 1 + 1 + 7 - 9,6,6,8,4,694.5738986999495,696.598542099935,698.1135924999835,703.1325507999863,704.7719777999446,704.7719828999834,706.2885971999494,707.3058442999609,q,6,1.639426999958232,1,+10,194,-35.54840279890331,-0.6067271558786871,0.050890639633220935,693087.0,20.93073419411001,0.6272239020055155,0.05692005831934299,696620.0,13.840148723692419,0.03273458437342125,-0.08163459763082637,704794.0,698.1161517034602,694.5831517034602,706.2901517034602
40,34,24,f,1,0,32.0,32,1,low,5 + 9 - 1 + 1 + 1,15,15,13,17,708.8224922999507,710.8497747000074,712.365150699974,717.3841102999868,718.6838751999894,718.6838807999156,720.20074869995,721.2176503000082,q,15,1.2997649000026286,1,+1,195,-19.518664744824143,0.00673236094260421,-0.13906905347180198,707338.0,-16.466515136162045,-0.6797632746315214,0.004726549781845613,710872.0,1.4000429120234115,-0.5594189112254098,0.2600202786396175,718706.0,712.3681517034602,708.8341517034602,720.2021517034602
41,34,24,f,1,0,33.0,33,1,high,6 + 9 + 1 + 1 - 1,16,14,16,15,722.7342490999727,724.7613871999783,726.2766324999975,731.2950190999545,732.4598739999346,732.459881399991,733.9764269000152,734.9936926999362,w,16,1.1648548999801278,1,+10,205,-0.5517777805782202,0.07303104119695991,0.044920632887620826,721250.0,1.7134816167002995,0.00790590134064928,-0.08091926158084295,724783.0,-13.762829919084776,0.2098256948725501,0.06418204011942041,732482.0,726.2791517034602,722.7461517034602,733.9781517034602
42,34,24,f,1,0,34.0,34,4,high,7 + 8 - 4 + 6 - 5,12,12,13,11,736.5105363000184,738.5346253999742,740.0500201999675,745.0687197999796,746.6119295000099,746.6119350999361,748.1284141999204,749.1451229999075,q,12,1.5432097000302747,1,+10,215,-12.65129544416701,0.29700775835929694,0.06735982090915238,735023.0,-20.453913977040408,0.06035466229933828,0.032283672710247124,738557.0,-42.68608324866701,-0.4097436448939096,0.008595222483616771,746634.0,740.0531517034602,736.5191517034602,748.1301517034602
43,34,24,f,1,0,35.0,35,2,high,7 + 5 + 1 - 1 - 8,4,4,2,3,750.6617418999085,752.6856443999568,754.200904599973,759.2188202999532,760.315873399959,760.3158782999963,761.8323419999797,762.8496175999753,q,4,1.0970531000057235,1,+10,225,-28.373636851629737,0.13089163167232254,-0.01738598303095351,749174.0,2.818662707443634,-0.17869044976769732,0.006922272543226304,752707.0,0.46175789598259875,0.46191764320833517,-0.02987096830413738,760338.0,754.2031517034602,750.6701517034602,761.8341517034602
44,34,24,f,1,0,36.0,36,3,low,3 - 7 + 5 + 1 + 9,11,11,12,13,764.3665020999033,766.3947938999627,767.9099934999831,772.9292689999565,774.4283695999766,774.4283744000131,775.9457047999604,776.9625928999158,q,11,1.4991006000200289,1,+1,226,26.017476723118612,-0.7189519230350454,-0.0760890688019582,762883.0,10.515515619477481,-0.6548794597756444,0.08525391364860813,766416.0,3.5512039172375776,0.08048991395471017,-0.0026803025060224694,774451.0,767.9121517034603,764.3791517034603,775.9471517034602
45,34,24,f,1,0,37.0,37,1,high,7 + 1 + 4 + 1 - 1,12,12,14,13,778.4796488999855,780.5033543999307,782.0185776000144,787.0366669999203,788.1159395999275,788.1159447999671,789.632475499995,790.6498631999129,q,12,1.0792726000072437,1,+10,236,5.25755611482256,0.466379918020988,0.02418428635765757,776991.0,-9.047119871632212,0.4118522528589246,-0.07578781221760655,780525.0,-15.04448038113559,-0.563978843184497,0.02664862513532218,788138.0,782.0211517034602,778.4871517034602,789.6341517034602
46,34,24,f,1,1,38.0,0,3,low,8 + 6 - 7 + 1 - 4,4,3,5,4,891.0887215000112,893.1150784000056,894.6303221000126,899.6502930999268,900.7561156000012,900.7561207999242,902.2731896999758,903.2903851999436,e,4,1.1058225000742825,1,+1,237,-8.508191255492907,0.8223380669708913,0.021118953340271807,889602.0,16.85801270876427,-1.1520195814700234,0.10449085014056836,893138.0,14.739288695893599,-0.2845271305873247,-0.0939492335954919,900778.0,894.6341517034602,891.0981517034602,902.2741517034602
47,34,24,f,1,1,39.0,1,3,low,3 + 8 - 7 + 1 + 9,14,14,13,12,904.807746800012,906.8303474999266,908.3456943999043,913.3650945000118,914.4041191999568,914.4041244999972,915.9212003999857,916.9384965999052,q,14,1.0390246999450028,1,+1,238,0.7916062341467054,0.010763234756667295,-0.03512320545312542,903317.0,7.067904029118619,0.6494529653551346,-0.04579276627289053,906852.0,5.826948585248644,-0.5092725068477639,0.2844867492407681,914426.0,908.3481517034602,904.8131517034602,915.9221517034603
48,34,24,f,1,1,40.0,2,4,high,4 + 7 + 8 - 3 + 9,25,26,24,25,918.4550569999265,920.4762866999954,921.9915648999158,927.0106919999234,928.268090999918,928.268096899963,929.7848746000092,930.8022020999342,e,25,1.257398999994621,1,+10,248,-12.186059424819344,-0.5709851179510093,0.13902029868648613,916964.0,-23.598577781218484,-1.0343297292716072,0.03941806854208174,920498.0,32.17088439545535,-2.5998448217451218,0.00010933521268707835,928289.0,921.9941517034603,918.4601517034603,929.7851517034602
49,34,24,f,1,1,41.0,3,1,low,4 + 1 + 1 + 7 - 1,12,13,14,12,932.318706399994,934.3446110999212,935.8597281000112,940.8782956999494,942.0601227999432,942.0601279999828,943.57733739994,944.5946001999546,e,12,1.181827099993825,1,+1,249,-8.540228286201993,-0.14228294742858516,0.02128111854043957,930831.0,8.687788035849985,-0.15287310314264424,0.003923521133106123,934365.0,4.585872302784546,-0.6853874921221825,0.06096173335905508,942081.0,935.8611517034602,932.3271517034602,943.5771517034602
50,34,24,f,1,1,42.0,4,3,high,4 + 5 - 3 + 7 - 1,12,11,12,13,946.1125339999562,948.1401987000136,949.6551909999688,954.6741267999168,955.7320180999814,955.732022900018,957.2483937999932,958.2656273000176,w,12,1.0578913000645116,1,+10,259,-28.22264146270489,-0.36121695943906307,0.06425766348438389,944627.0,-18.695398902485483,-0.4409953113659677,0.11079629830239823,948161.0,-18.69128786072027,1.4147897862422862,0.03661894208845262,955753.0,949.6571517034602,946.1231517034602,957.2491517034603
51,34,24,f,1,1,43.0,5,1,low,7 - 1 + 1 + 9 - 1,15,15,14,13,959.7828981999774,961.8095436999574,963.3247513999232,968.3429219999816,970.5001960999798,970.5002014999044,972.0169016999424,973.0338273999514,q,15,2.157274099998176,1,+1,260,13.364991855321385,-0.8013719816446043,0.1792916508001945,958297.0,7.755667101957464,-0.34609189697593923,0.026295298649427368,961830.0,-4.912788685039498,-0.7517655327986903,0.010074293261173706,970521.0,963.3261517034603,959.7931517034602,972.0171517034602
52,34,24,f,1,1,44.0,6,3,high,3 + 8 + 1 + 5 - 9,8,9,8,7,974.5507001999068,976.575395999942,978.09092029999,983.1102877999656,984.1001826999708,984.1001879000104,985.6167247999692,986.642514499952,w,8,0.9898949000053108,1,+10,270,3.2275512396361297,-0.5659902555152305,-0.05832316650217373,973062.0,-30.318873994812108,-0.5058711228195047,-0.047072099276114665,976597.0,13.266599103288998,-0.6906520458793812,0.03598643880971686,984130.0,978.0931517034602,974.5581517034602,985.6261517034602
53,34,24,f,1,1,45.0,7,4,high,7 + 6 - 4 + 9 - 5,13,12,13,14,988.1593975999858,990.1833603999112,991.6987403999084,996.717464699992,997.6921186000108,997.6921235999324,999.2087593999458,1000.226041899994,w,13,0.9746539000188932,1,+10,280,-14.12025060983151,-0.1872735888946062,0.05971444114509805,986670.0,13.128534963997256,0.03024528313133512,0.07352970258705382,990204.0,2.045590457463298,0.15911812734415243,-0.016916460712955494,997713.0,991.7001517034602,988.1661517034602,999.2091517034602
54,34,24,f,1,1,46.0,8,4,low,6 + 9 + 7 - 3 - 5,14,14,15,13,1001.7427962999792,1003.7696886999764,1005.2853169000008,1010.3047406999394,1012.0920617999508,1012.0920666999882,1013.6085964000084,1014.6253713999176,q,14,1.787321100011468,1,+1,281,3.7377590988406366,0.2813361518129165,0.006085095204694024,1000256.0,2.644016180695166,0.45277771786619603,0.06397406088708646,1003791.0,5.2478523627394775,-0.9308537734166373,-0.054640599734551154,1012112.0,1005.2871517034603,1001.7521517034602,1013.6081517034602
55,34,24,f,1,1,47.0,9,4,low,3 + 8 - 7 + 9 - 5,8,9,8,7,1016.1419869000092,1018.165985199972,1019.6819781999802,1024.701532999985,1025.732145399903,1025.7321504999418,1027.2484375999777,1028.265048199915,w,8,1.0306123999180272,1,+1,282,-13.29736041435319,0.7507621315300179,0.05628867853883013,1014653.0,-36.17362240727213,-0.08667805467901069,-0.014477816263286147,1018187.0,16.261821681941385,-0.056365463792892534,0.052001332920278864,1025752.0,1019.6831517034602,1016.1491517034602,1027.24815170346
56,34,24,f,1,1,48.0,10,2,low,9 + 6 + 1 + 7 + 1,24,25,23,24,1029.7819755999371,1031.8080542999087,1033.323378599947,1038.3415217999136,1039.580098900013,1039.580103599932,1041.096524799941,1042.1133300999643,e,24,1.2385771000990644,1,+1,283,-15.359960844485137,0.2436317936103638,-0.0013124556476442617,1028294.0,-8.468793062655024,0.6125443271455051,-0.16718629529343443,1031828.0,25.459994163737008,0.36845637803918674,0.044415076761505246,1039600.0,1033.32415170346,1029.7901517034602,1041.09615170346
57,34,24,f,1,1,49.0,11,2,low,5 + 9 - 8 + 1 + 1,8,8,9,7,1043.6301568999188,1045.654468499939,1047.1696605999025,1052.1877776999029,1053.3561212999048,1053.3561265999451,1054.8735252999468,1055.8911414999748,q,8,1.1683436000021177,1,+1,284,7.328970141236546,1.047076278974675,0.11750709572867946,1042141.0,-12.087683462960989,-0.21244024880703005,0.02221807070942816,1045674.0,1.604486497447951,-0.7297042271569438,0.07935660774892717,1053377.0,1047.17015170346,1043.6371517034602,1054.87315170346
58,34,24,f,1,1,50.0,12,3,high,5 + 6 - 4 - 1 + 7,13,13,15,14,1057.407952999929,1059.4342901000057,1060.9495288999751,1065.9680458999935,1067.01217849995,1067.0121833999874,1068.5288062000182,1069.546150399954,q,13,1.044132599956356,1,+10,294,12.519372367494029,0.13329507877963298,-0.03129737211790595,1055921.0,3.3033017415720813,-0.652967980862611,0.010891025474236926,1059455.0,28.002428885216595,-0.3273222052678326,0.06310527627551044,1067033.0,1060.95115170346,1057.4171517034601,1068.52915170346
59,34,24,f,1,1,51.0,13,2,high,5 + 8 + 1 - 1 + 9,22,21,23,22,1071.0628448999487,1073.0891403999412,1074.6043968999293,1079.6246329999994,1080.7402195999166,1080.7402243999531,1082.2567921999143,1083.2739439000145,e,22,1.115586599917151,1,+10,304,4.475713270720943,-0.6302432713734527,-0.028662891537116097,1069576.0,-1.7712304349687322,0.12958659047618504,-0.031342124077930134,1073110.0,-40.6735701087022,-0.18978710413839206,0.07658572161793376,1080760.0,1074.60615170346,1071.0721517034601,1082.25615170346
60,34,24,f,1,1,52.0,14,3,high,4 + 8 - 9 + 1 + 7,11,13,9,11,1084.790733599919,1086.8182823999086,1088.333334099967,1093.3517775000073,1098.188228999963,1098.1882342000026,1099.704543299973,1100.7217661999166,e,11,4.836451499955729,1,+10,314,-11.435818434905698,0.14697800047046616,0.010304055447981186,1083304.0,6.705797709175233,0.4732194253418074,-0.005875016245465492,1086838.0,16.053036505245977,0.32892455438407975,-0.04298287997032468,1098208.0,1088.33415170346,1084.8001517034602,1099.7041517034602
61,34,24,f,1,1,53.0,15,3,low,3 + 8 - 7 - 1 + 9,12,12,14,13,1102.2386159999296,1104.261879400001,1105.7772617000155,1110.797443499905,1111.868101799977,1111.8681063000113,1113.3845542999916,1114.4014770999784,q,12,1.0706583000719547,1,+1,315,-6.411028914064879,0.8567251496440784,0.07748556672328477,1100748.0,0.16272702897280134,-0.11714199718747764,0.011516387153587937,1104284.0,-3.4128712513405564,1.5580803988771486,-0.0356228364283524,1111888.0,1105.7801517034602,1102.2441517034601,1113.38415170346
62,34,24,f,1,1,54.0,16,2,high,7 + 6 + 1 - 1 - 8,5,4,3,5,1115.918864100007,1117.9416911000153,1119.456810600008,1124.4754009000026,1125.4442875999955,1125.4442930999212,1126.961401999928,1127.9787809000118,e,5,0.9688866999931632,1,+10,325,-3.8983108019007187,0.13962064837451038,-0.06643828744704505,1114428.0,-16.795742825278317,-0.490788821317766,-0.023044187008038453,1117962.0,9.64429677841354,-0.30629439605556197,-0.028203250556458448,1125465.0,1119.45815170346,1115.9241517034602,1126.96115170346
63,34,24,f,1,1,55.0,17,2,high,6 + 1 + 7 - 8 - 1,5,5,7,4,1129.4958027999382,1131.520126099931,1133.035587599967,1138.0554063000018,1139.5081711999374,1139.5081761999754,1141.0243890999118,1142.041556300013,q,5,1.4527648999355731,1,+10,335,3.2643417677676396,-0.3024850047778598,-0.04555575670376699,1128006.0,-16.04752891964317,0.274441043538288,0.03531105018013414,1131542.0,-6.877218367617397,0.30207966809224107,-0.0036474127836996217,1139528.0,1133.03815170346,1129.5021517034602,1141.0241517034601
64,34,24,f,1,1,56.0,18,2,low,6 + 1 + 7 + 5 - 1,18,17,16,18,1143.5592679999536,1145.5873371999478,1147.1026576999575,1152.122824299964,1153.4684009999037,1153.4684063999448,1154.985498199938,1156.0021795999492,e,18,1.3455766999395564,1,+1,336,7.831656774713473,0.431788732500495,-0.05361750234450291,1142074.0,17.883316649180028,-0.5023588118909421,-0.030444704244454224,1145609.0,-5.735411333858448,0.9220337676010315,-0.05326444061003133,1153489.0,1147.10515170346,1143.5701517034602,1154.9851517034601
65,34,24,f,1,1,57.0,19,4,low,3 + 9 - 5 + 6 + 8,21,22,23,21,1157.5189367999556,1159.5463309999325,1161.0616934999125,1166.0796996999998,1168.940272299922,1168.94027729996,1170.4568376999814,1171.4738619999262,e,21,2.860572599922307,1,+1,337,5.126524766412717,1.2480205521637817,-0.0038849621786907207,1156032.0,1.0796113711441073,-0.2504654899757437,-0.04037518155082975,1159566.0,6.108281497357053,-0.6664070574155403,-0.06400302627894683,1168960.0,1161.0621517034601,1157.52815170346,1170.4561517034601
66,34,24,f,1,1,58.0,20,4,low,2 + 5 - 3 + 9 + 8,21,19,21,22,1172.9907904999563,1175.014032499981,1176.5293858000075,1181.5478461999446,1182.524181899964,1182.5241872000042,1184.0407844999572,1185.057590899989,w,21,0.9763357000192628,1,+1,338,20.551149503119277,-0.15979024855859691,-0.09803425808125388,1171501.0,0.5331208410189276,0.6838459157985994,-0.047134950099747996,1175034.0,2.4554479042816553,-0.5515182054484429,0.013179392652246102,1182544.0,1176.5301517034602,1172.99715170346,1184.0401517034602
67,34,24,f,1,1,59.0,21,2,high,8 + 1 + 1 + 9 - 4,15,16,14,15,1186.574335500016,1188.5987664000131,1190.1140483999625,1195.1322746999797,1196.2522429999665,1196.2522484000074,1197.7685895999894,1198.7857649999205,e,15,1.1199682999867946,1,+10,348,0.6964854989983564,-0.5508954751038919,0.08174141797174239,1185085.0,-5.070041428278403,-0.21411956072628424,0.025843667217976485,1188618.0,-6.669298845284094,-0.21340920362637306,-0.006099950782479713,1196272.0,1190.11415170346,1186.5811517034601,1197.76815170346
68,34,24,f,1,1,60.0,22,1,high,9 + 8 + 1 + 1 - 1,18,17,18,19,1200.302480799961,1202.3304283999605,1203.8457450999413,1208.8638541999971,1210.172223399975,1210.172228600015,1211.688674999983,1212.705816600006,w,18,1.3083691999781877,1,+10,358,-18.230190990043308,-0.29025224706025377,-0.05946980956948522,1198816.0,8.025773121255904,-0.23767521792191104,-0.031714436082665776,1202350.0,7.413110843091262,-0.6483896687021753,0.06828071671825042,1210192.0,1203.84615170346,1200.3121517034601,1211.68815170346
69,34,24,f,1,1,61.0,23,2,high,8 + 1 + 7 + 1 - 4,13,14,13,12,1214.2225674999645,1216.24938189995,1217.764551899978,1222.784568300005,1223.9323328000028,1223.932337999926,1225.4497061999282,1226.4668931999477,w,13,1.14776449999772,1,+10,368,29.49642476925848,-0.5974630893648971,0.06354639272778617,1212735.0,-11.216630081782364,0.09582003110653936,0.010697579801930646,1216270.0,-14.83948479660505,-1.0168609967017872,0.002516850829833217,1223953.0,1217.76615170346,1214.23115170346,1225.44915170346
70,34,24,f,1,1,62.0,24,1,high,5 + 1 + 1 + 6 + 1,14,14,16,13,1227.9833439999493,1230.010743699968,1231.5257587999804,1236.5435048999498,1237.596225199988,1237.5962298999077,1239.1128132999877,1240.129995199968,q,14,1.0527203000383452,1,+10,378,3.7429854143905814,-0.6938496500087812,0.03793092351251315,1226497.0,7.152927496992657,0.19971029211227442,-0.06591948179236073,1230029.0,13.421278300474338,0.3752988406018485,-0.010678518740512732,1237616.0,1231.52515170346,1227.9931517034602,1239.11215170346
71,34,24,f,1,1,63.0,25,2,low,5 + 1 + 7 - 6 + 1,8,6,8,7,1241.6467663999647,1243.671810699976,1245.1870956999485,1250.207131400006,1251.253178599989,1251.2531841999153,1252.7699043999892,1253.7868857999565,w,8,1.0460471999831498,1,+1,379,28.793794139221504,-0.7382966226947092,0.22428506738537624,1240157.0,-2.524448699459649,0.12682201315036412,0.022274758644265757,1243693.0,11.328466621252542,0.6793345951936267,-0.057022032286645485,1251272.0,1245.18915170346,1241.65315170346,1252.76815170346
72,34,24,f,1,1,64.0,26,2,low,3 + 8 + 1 - 5 + 1,8,6,8,9,1255.303636299912,1257.32805859996,1258.843055699952,1263.8613272999646,1265.0123729999175,1265.0123781999573,1266.5287753000157,1267.545678299968,w,8,1.1510456999531016,1,+1,380,-7.646075188702756,0.24327594364100769,0.002921361628835051,1253814.0,5.783106233624171,-0.04845866198862847,0.05231584664024069,1257347.0,1.2848094312485794,-1.402873781290987,-0.012796446760363178,1265031.0,1258.84315170346,1255.3101517034602,1266.52715170346
73,34,24,f,1,1,65.0,27,3,high,7 - 5 + 9 + 1 - 4,8,7,8,9,1269.062491999939,1271.089872899931,1272.605286499951,1277.6238614999456,1278.700295899995,1278.7003004999133,1280.2167474000016,1281.2341906999936,w,8,1.0764344000490382,1,+10,390,23.040754462850266,0.48061138121737557,0.07015061600144712,1267575.0,2.908648888183368,0.7806641168570883,0.0073383936577489095,1271109.0,2.1280147101616045,-0.2048455705322212,0.06181928680420401,1278720.0,1272.60515170346,1269.0711517034601,1280.2161517034601
74,34,24,f,1,1,66.0,28,3,high,5 + 7 + 1 - 4 + 6,15,17,15,13,1282.7509992999258,1284.7744197999127,1286.2890694999369,1291.3075598999858,1292.4763766999822,1292.4763818999054,1293.992691099993,1295.0099851000125,w,15,1.1688167999964207,1,+10,400,-4.019457075446763,0.1685799900594951,0.09263807284460146,1281260.0,6.032598406569981,0.37721119396143177,0.11636021987929746,1284793.0,-11.580773001207028,1.277288111766035,-0.051306473339511216,1292495.0,1286.28915170346,1282.75615170346,1293.99115170346
75,34,24,f,1,1,67.0,29,1,low,2 + 1 + 9 + 1 + 1,14,13,14,12,1296.5269170999527,1298.5521261999384,1300.0671913999831,1305.0865119999507,1305.964320299914,1305.964325399953,1307.4812278000172,1308.497968800017,w,14,0.8778082999633625,1,+1,401,28.319522038087026,0.2882000315573281,0.0302188837991888,1295038.0,-15.165633500497965,-0.22456987687992047,0.010955614011486592,1298572.0,14.428615903177771,-0.430435481601263,0.08201610727096398,1305983.0,1300.06815170346,1296.53415170346,1307.47915170346
76,34,24,f,1,1,68.0,30,2,low,8 + 1 + 9 + 1 - 4,15,14,16,15,1310.014699399937,1312.042549800011,1313.5587319999468,1318.576676399913,1319.6284878000151,1319.6284927999368,1321.1449423999293,1322.161859499989,e,15,1.0518114001024514,1,+1,402,0.9275826686906381,0.06559663296143547,0.059338324927059816,1308528.0,3.1829982171000486,0.5029186933079686,-0.03014034923796305,1312062.0,-3.387868613395103,-0.8729037620234292,0.016515088946352563,1319647.0,1313.55815170346,1310.0241517034601,1321.14315170346
77,34,24,f,1,1,69.0,31,2,high,6 + 8 + 1 + 1 - 7,9,11,9,8,1323.678526100004,1325.705229699961,1327.2204918999923,1332.241078299936,1333.2363574999615,1333.2363626000006,1334.7628470999189,1335.7796725999797,w,9,0.995279200025834,1,+10,412,-10.48949594753718,-0.6254751501727727,-0.0167227059129893,1322190.0,12.711201835331323,0.5235595869233345,-0.06891321832394226,1325726.0,-1.731663849375133,-1.3789794845541241,0.0016519787623929805,1333265.0,1327.2221517034602,1323.6861517034602,1334.7611517034602
78,34,24,f,1,1,70.0,32,4,high,2 + 9 - 6 + 8 - 4,9,7,11,9,1337.2959000999108,1339.3233798999572,1340.838397399988,1345.8573270000052,1347.1884516999123,1347.1884567999514,1348.7050145999528,1349.7222552999156,e,9,1.3311246999073774,1,+10,422,-25.74351292679108,0.6639076260736907,-0.11666835841817513,1335808.0,9.142046518409707,0.45090986723550674,0.0036818461337990716,1339342.0,-8.731377193958377,-0.21833558244674212,0.07447636620569331,1347208.0,1340.8381517034602,1337.30415170346,1348.7041517034602
79,34,24,f,1,1,71.0,33,3,high,9 + 3 - 4 + 6 + 7,21,21,22,23,1351.2390123999212,1353.2631905999733,1354.7784748999402,1359.7970916999038,1360.9483701999998,1360.9483748999191,1362.4650851999177,1363.482334799948,q,21,1.1512785000959411,1,+10,432,-16.118088513430408,0.32142188379628056,-0.004053100012015642,1349748.0,25.063981121121756,1.5076455129364188,0.03607896383853659,1353282.0,39.46013086271839,0.3374588025722147,0.053721825861078765,1360967.0,1354.77815170346,1351.2441517034601,1362.4631517034602
80,34,24,f,1,1,72.0,34,2,high,5 + 7 - 8 + 1 + 1,6,6,7,8,1364.999141999986,1367.0229708999395,1368.5377751999767,1373.5566468999025,1374.548392699915,1374.5483983999584,1376.0648112999042,1377.0820873999037,q,6,0.9917458000127226,1,+10,442,-36.50142579759898,-0.4349696129936049,0.10845032519578446,1363508.0,15.381554832487307,0.20499023646565195,0.04997281070895676,1367042.0,10.368369957054007,-0.11958720576722826,0.04228799050626031,1374567.0,1368.53815170346,1365.0041517034601,1376.06315170346
81,34,24,f,1,1,73.0,35,2,low,4 + 1 + 9 + 1 - 6,9,8,7,9,1378.5987968000118,1380.6260191999609,1382.1412260999205,1387.1592362999218,1388.3244717000052,1388.3244767999277,1389.8411590999458,1390.8578700999497,e,9,1.1652354000834748,1,+1,443,14.598642177866207,0.9069694464285103,0.36300712144179426,1377111.0,-15.196068929964088,0.5158264706308762,0.03942236779663477,1380644.0,-3.543792028499034,-0.028491421243935555,-0.2687510024305746,1388343.0,1382.14015170346,1378.6071517034602,1389.8391517034602
82,34,24,f,1,1,74.0,36,4,high,3 + 8 - 4 + 9 + 6,22,22,23,21,1392.3747101000044,1394.4014920999762,1395.917326899944,1400.9357004999183,1401.9723585000029,1401.9723751000129,1403.4887970999116,1404.5060520999832,q,22,1.0366580000845715,1,+10,453,-29.31112504487803,0.3889673595758829,-0.06684196712781376,1390887.0,-10.272482780892641,-0.7680712100355862,0.028326761765081976,1394421.0,15.629289239773525,0.7265949686888673,0.1147385800209273,1401991.0,1395.9171517034601,1392.38315170346,1403.48715170346
83,34,24,f,1,1,75.0,37,2,high,3 - 1 + 9 - 5 + 1,7,6,5,7,1406.022654899978,1408.049245400005,1409.5651918000076,1414.5834869999671,1415.7324221999152,1415.732427699957,1417.2490029999751,1418.266304599936,e,7,1.1489351999480275,1,+10,463,4.910477976514571,0.4183088504641468,0.0029609385523816645,1404534.0,1.1212699666013854,0.7568959899066217,-0.07051257164594937,1408068.0,8.583003366089319,0.26282895526817374,-0.009827271974261587,1415751.0,1409.56415170346,1406.0301517034602,1417.24715170346
84,34,24,f,1,2,76.0,0,1,high,8 + 1 + 1 - 1 - 4,5,5,6,3,1474.9767267999705,1477.0041517999489,1478.5195719999028,1483.539506400004,1484.388556699967,1484.388561700005,1485.9051521999063,1486.922284099972,q,5,0.8490502999629825,1,+10,473,-5.010461872200382,-0.5656765339738969,0.1024400226747546,1473489.0,19.137100843968256,-0.43602105584016826,-0.03393475261103718,1477023.0,16.23670194034676,-0.25508132150256735,0.016015680811181543,1484407.0,1478.51915170346,1474.9851517034601,1485.90315170346
85,34,24,f,1,2,77.0,1,1,high,2 + 9 + 1 + 1 + 1,14,13,14,12,1488.439255299978,1490.4630099999486,1491.9784480999224,1496.9963641999057,1498.180477399961,1498.180482900003,1499.6971002999926,1500.7141631999984,w,14,1.1841132000554353,1,+10,483,-14.35975180137139,0.6024274339745963,-0.02040922769932485,1486948.0,-23.39585434216693,-0.4982551124769019,-0.012163219911549783,1490481.0,19.43299266782954,-0.369246199028316,0.049872868503645806,1498199.0,1491.97715170346,1488.4441517034602,1499.6951517034602
86,34,24,f,1,2,78.0,2,1,low,5 + 8 - 1 + 1 + 1,14,12,16,14,1502.2309252999255,1504.2588837000076,1505.7741825999692,1510.7923730999464,1512.03646819992,1512.0364728999557,1513.553297400009,1514.5703674999531,e,14,1.2440950999734923,1,+1,484,-1.4046997304007043,0.47409147093749837,-0.11645135950526009,1500744.0,6.5384127079099805,0.30040246149933925,0.07966497506911141,1504277.0,-19.462703529770224,-0.3384702946646918,-0.05334822868687694,1512055.0,1505.7731517034601,1502.24015170346,1513.5511517034602
87,34,24,f,1,2,79.0,3,2,low,4 + 9 - 7 + 1 - 1,6,5,8,6,1516.086937099928,1518.1126677999273,1519.6279488999862,1524.646418599994,1525.980780599988,1525.9807864999166,1527.4973439999158,1528.514017199981,e,6,1.3343619999941438,1,+1,485,-0.4363975893589416,-0.18096672859283025,-0.04165819016129868,1514597.0,8.9490163889952,-0.18303588337742926,0.060875842022592774,1518131.0,12.18518509729406,-0.1522284118503059,-0.0983528048990816,1525999.0,1519.6271517034602,1516.09315170346,1527.4951517034601
88,34,24,f,1,2,80.0,4,4,low,8 + 5 - 4 + 7 + 9,25,25,24,26,1530.0303114999551,1532.0565192999784,1533.5715099999215,1538.5899836999597,1541.7724791999208,1541.772484099958,1543.2891708000095,1544.306085399934,q,25,3.182495499961078,1,+1,486,2.300699891059187,0.7038331372449198,-0.05732664740384452,1528541.0,8.507488901484669,-0.3324010421499386,0.014026492427796633,1532074.0,-1.9442617874891992,-0.8710608197620857,0.006225225169884441,1541790.0,1533.5701517034602,1530.03715170346,1543.28615170346
89,34,24,f,1,2,81.0,5,3,low,8 - 7 + 9 + 1 + 4,15,14,16,15,1545.8225702999623,1547.8471534999553,1549.3620730999392,1554.3805119999452,1555.3966564999428,1555.39666139998,1556.9132940999698,1557.930177000002,e,15,1.0161444999976084,1,+1,487,2.3891592779919826,0.24706657555025657,0.023587173549097784,1544332.0,-4.126965542080894,-0.17290672647841987,0.00828822881334168,1547865.0,19.796509533266846,-0.373332955417923,0.024271269394508188,1555414.0,1549.36115170346,1545.8281517034602,1556.91015170346
90,34,24,f,1,2,82.0,6,2,low,3 + 9 - 1 - 5 + 1,7,5,7,6,1559.446998099913,1561.4728012999983,1562.9880275999894,1568.006467800005,1569.0605557999806,1569.060560700018,1570.5771401999518,1571.59414619999,w,7,1.0540879999753088,1,+1,488,4.373430179119813,1.264390441944606,0.13542590255953213,1557957.0,-6.1693904968805615,-0.6150989659230541,0.0586008648548666,1561491.0,-1.1726663587606918,-0.273704739416468,0.019794463626297887,1569078.0,1562.98715170346,1559.4531517034602,1570.57415170346
91,34,24,f,1,2,83.0,7,2,high,4 + 8 + 1 + 1 - 5,9,8,9,11,1573.1109408999328,1575.1378414999926,1576.653019899968,1581.6708526000148,1582.6605659999186,1582.6605706999544,1584.177093999926,1585.1943183999974,w,9,0.9897133999038488,1,+10,498,5.204118464055243,-0.8299247463364603,-0.006788462018530339,1571622.0,24.83461129698931,0.18217209559388525,0.06598862983848908,1575155.0,-8.102151140324787,0.35178056629930055,0.06898300008727865,1582678.0,1576.65115170346,1573.1181517034602,1584.1741517034602
92,34,24,f,1,2,84.0,8,4,low,4 + 7 + 9 - 5 + 7,22,22,24,23,1586.7114071999677,1588.7352898999816,1590.2502959999256,1595.2685720999723,1596.3166270999936,1596.3166318999138,1597.8330122999614,1598.8502690999303,q,22,1.0480550000211224,1,+1,499,-4.194608610840824,0.08893224675224065,0.05549377867461058,1585219.0,-7.0923866977582595,-0.6400327173269202,-0.02072218428975292,1588753.0,5.883880948213545,0.7910777479554127,0.009367605596477535,1596334.0,1590.24915170346,1586.7151517034602,1597.8301517034602
93,34,24,f,1,2,85.0,9,4,low,5 + 7 - 4 + 8 + 6,22,22,24,23,1600.3673139999155,1602.3922339999117,1603.9076617999235,1608.926240899949,1611.580688099959,1611.5806935,1613.0972245999146,1614.1143947999226,q,22,2.6544472000095998,1,+1,500,1.2330170825762163,0.19810320946330595,0.0792780207822914,1598876.0,3.6235181919579587,-0.28536458465974057,0.013895361481923274,1602410.0,-5.620301894357151,-0.3103462234678185,0.09448854114380056,1611598.0,1603.9061517034602,1600.37215170346,1613.09415170346
94,34,24,f,1,2,86.0,10,4,high,9 + 8 - 5 - 7 + 6,11,13,10,11,1615.6309624999994,1617.6588927999835,1619.1741579999216,1624.1926953999791,1625.396709099994,1625.3967146999205,1626.913084300002,1627.930443399935,e,11,1.2040137000149116,1,+10,510,11.508793586560468,1.0178559837606906,-0.0351503020337145,1614143.0,9.037117213733307,-0.26947859904947435,0.09445287570732885,1617677.0,25.24503595356976,-0.5499941698644735,0.01053970660992265,1625414.0,1619.17315170346,1615.6391517034601,1626.91015170346
95,34,24,f,1,2,87.0,11,2,high,4 + 8 + 1 + 1 - 6,8,9,8,7,1629.4474749999354,1631.472450100002,1632.9872875999426,1638.006461599958,1639.1886137999827,1639.1886186999036,1640.7054509000154,1641.722997499979,w,8,1.182152200024575,1,+10,520,-2.069606048619918,-0.5063116601564337,0.06554828217264563,1627956.0,-26.902438656003692,0.75830479232404,0.00885020675824899,1631490.0,-29.038268308669796,0.01514024974536099,0.018359917953657323,1639207.0,1632.98615170346,1629.45215170346,1640.7031517034602
96,34,24,f,1,2,88.0,12,3,high,6 + 7 + 8 + 1 - 9,13,13,14,15,1643.23997409991,1645.267647099914,1646.7835189999314,1651.8026433999185,1652.7326296999818,1652.7326346999034,1654.2494687999133,1655.266504999949,q,13,0.9299863000633196,1,+10,530,-18.843077371764153,-0.1457821312860217,0.03267509109613642,1641751.0,16.72990481614142,-0.78490611108887,-7.672524669821712e-05,1645286.0,5.877218295804745,-0.5004472981651373,0.04720907471765612,1652751.0,1646.7821517034602,1643.24715170346,1654.24715170346
97,34,24,f,1,2,89.0,13,4,low,5 + 7 - 4 - 6 + 9,11,11,12,13,1656.7836905999577,1658.809414499905,1660.324538399931,1665.3448426999385,1666.220696699922,1666.22070169996,1667.736742499983,1668.7537057999289,q,11,0.8758539999835193,1,+1,531,12.196100660053027,0.111023519432214,-0.024365821442002833,1655293.0,4.905824170853332,-0.20716778150411663,-0.06830474188859159,1658828.0,1.0109338026041108,0.5239108968184647,0.05525154797191312,1666237.0,1660.32415170346,1656.78915170346,1667.7331517034602
98,34,24,f,1,2,90.0,14,1,high,2 + 9 + 1 + 1 + 1,14,12,13,14,1670.270486399997,1672.297681899974,1673.813038699911,1678.8313273999374,1680.004658699967,1680.004664100008,1681.520945700002,1682.5378353999697,e,14,1.1733313000295311,1,+10,541,-2.539128759263148,-0.5011363149286732,0.07182344537568519,1668782.0,35.346961271303165,0.29131163405744775,0.004400715340255212,1672315.0,13.528508262871645,0.0588056626927731,0.00039926254784505844,1680022.0,1673.8111517034602,1670.27815170346,1681.51815170346
99,34,24,f,1,2,91.0,15,1,low,3 + 1 + 9 + 1 - 1,13,14,12,13,1684.0547007999849,1686.0815011999805,1687.5967648999067,1692.6146627999842,1694.0046694999328,1694.0046753999775,1695.5212317999683,1696.5380724999122,e,13,1.3900066999485716,1,+1,542,14.549456881553585,-0.18074262556744713,0.02552944181418093,1682565.0,-37.03431736496479,0.41800370794958486,0.04987358761986771,1686098.0,23.901162180111825,1.0921603503904684,-0.0022310447828490787,1694022.0,1687.59415170346,1684.0611517034602,1695.51815170346
100,34,24,f,1,2,92.0,16,1,high,4 + 9 + 1 - 1 - 1,12,11,12,13,1698.054800999933,1700.0824730999302,1701.597719399957,1706.6161299999803,1707.5886746000033,1707.588679599925,1709.1052045999097,1710.1223275999073,w,12,0.9725446000229568,1,+10,552,8.491358464590853,0.5313591683415808,-0.053658920442354985,1696566.0,-1.7280045510962854,-0.21991604228923478,0.02722183664878086,1700100.0,3.649946026430073,-0.7590086765444539,0.014564502073921348,1707606.0,1701.59615170346,1698.0621517034601,1709.10215170346
101,34,24,f,1,2,93.0,17,2,high,9 + 1 + 6 + 7 + 1,24,23,25,24,1711.6391072999686,1713.6628739999142,1715.1783897000132,1720.1981695999857,1721.2206771000056,1721.2206823999295,1722.7371313999174,1723.7544279999563,e,24,1.0225075000198558,1,+10,562,3.39000725414383,0.018726510756089,-0.037905030459439715,1710147.0,23.20226921061325,-0.051033486992950294,0.03874914849551847,1713681.0,5.2901311115752705,0.21458969684951157,0.041206633784103275,1721238.0,1715.1771517034601,1711.64315170346,1722.7341517034602
102,34,24,f,1,2,94.0,18,1,low,9 + 8 + 1 + 1 - 1,18,18,20,17,1725.2711730999872,1727.299118899973,1728.8143420999404,1733.832467100001,1734.9886377999792,1734.9886429999024,1736.505106800003,1737.522512699943,q,18,1.1561706999782473,1,+1,563,-25.71479995793385,0.18536528632844096,0.046174506696647244,1723782.0,0.25175706341086723,1.1543824836391199,0.025898205401027274,1727316.0,29.77768955137959,0.3824934201665853,-0.06804069638172461,1735005.0,1728.8121517034601,1725.27815170346,1736.5011517034602
103,34,24,f,1,2,95.0,19,3,low,2 - 4 + 9 + 7 + 1,15,15,13,16,1739.0398757999064,1741.0658311999869,1742.5810724999756,1747.6009764999617,1748.9167743999278,1748.9167794999669,1750.4331290000118,1751.450086299912,q,15,1.3157978999661282,1,+1,564,21.80451512263714,-0.5095344782097202,0.2080811233174127,1737549.0,1.7072429100217246,0.08043228570844807,0.0226668046407541,1741084.0,-6.4430275214062895,-0.1122675037161942,-0.06844431855558453,1748933.0,1742.5801517034602,1739.04515170346,1750.42915170346
104,34,24,f,1,2,96.0,20,3,high,4 + 8 - 3 + 5 - 1,13,12,13,14,1752.966777499998,1754.991026700009,1756.5062646999722,1761.5245256999042,1762.556713799946,1762.5567184999818,1764.0731928999303,1765.090485099936,w,13,1.0321881000418216,1,+10,574,11.520937366082302,0.6399796391305577,-0.03685963332390818,1751474.0,-18.705470584098656,0.004202894653222877,0.04847749365765286,1755008.0,0.37131781128007124,-0.03238579508650563,0.021643527899212867,1762574.0,1756.5041517034601,1752.97015170346,1764.0701517034602
105,34,24,f,1,2,97.0,21,4,low,7 + 8 - 4 + 6 + 5,22,21,22,23,1766.6077319999458,1768.6343437000178,1770.1495890999213,1775.168675999972,1776.044657099992,1776.0446620999137,1777.5613271999173,1778.5779970999574,w,22,0.8759811000199988,1,+1,575,20.691438032541857,0.4142946092695565,-0.03552480125981017,1765117.0,-14.586626795929025,0.08450924604602328,0.08038570695621972,1768652.0,-20.82197274831194,-0.8258835873028083,0.04625329833302527,1776061.0,1770.1481517034601,1766.61315170346,1777.55715170346
106,34,24,f,1,2,98.0,22,1,high,8 + 1 + 1 + 1 - 3,8,8,6,9,1780.0948298999574,1782.123900400009,1783.6392333999977,1788.658002799959,1789.5328498999588,1789.532854799996,1791.0494411999823,1792.066555399913,q,8,0.8748470999998972,1,+10,585,-13.91102193166726,-0.32340441594874925,-0.3170751388143134,1778607.0,-3.3429128630371245,-0.7473736263796749,0.10252004552280014,1782140.0,-18.741189565291208,-1.03169529067607,-0.03161833882111731,1789550.0,1783.6361517034602,1780.10315170346,1791.04615170346
107,34,24,f,1,2,99.0,23,3,low,3 + 1 + 6 - 8 + 9,11,12,11,13,1793.58352799993,1795.6075288999127,1797.1228172999108,1802.140940299956,1803.1728589999257,1803.1728641999653,1804.6893552999245,1805.7062207999409,w,11,1.0319186999695376,1,+1,586,-19.387547931428045,0.36277647031264415,0.047168121327000545,1792091.0,2.760682891259714,0.10389394468561974,-0.022777254350477394,1795624.0,0.6590147892118328,0.3165599214116428,0.05175907322616924,1803189.0,1797.1201517034601,1793.58715170346,1804.6851517034602
108,34,24,f,1,2,100.0,24,1,low,4 + 7 + 1 - 1 - 1,10,11,9,10,1807.2234949999256,1809.2487882999703,1810.7639427999968,1815.7823311999675,1816.9488580999896,1816.948863699916,1818.465478500002,1819.4823260999983,e,10,1.1665269000222906,1,+1,587,1.5887337238212886,-0.37931991819407074,0.07387758008721912,1805732.0,-15.621577674734828,-0.4488995471755377,0.07031985863820411,1809265.0,23.45415246106657,-0.3470364213942032,0.11283531376474976,1816965.0,1810.7611517034602,1807.22815170346,1818.46115170346
109,34,24,f,1,2,101.0,25,3,high,8 - 1 + 6 - 7 + 5,11,12,13,11,1820.9996995999245,1823.02705829998,1824.5423236999195,1829.561125800013,1830.7887169999303,1830.78872219997,1832.304964400013,1833.3221395999424,e,11,1.2275911999167874,1,+10,597,0.6829142247417631,-0.84992225148161,0.20202039651985304,1819510.0,13.659151106545893,-0.7451967949526725,0.02137269070795056,1823044.0,-9.482154262786322,0.21514778174712212,-0.017287018257381437,1830805.0,1824.5401517034602,1821.00615170346,1832.3011517034602
110,34,24,f,1,2,102.0,26,4,high,4 + 9 - 7 + 8 + 5,19,21,19,20,1834.8388569999952,1836.862467299914,1838.377626099973,1843.3958271999145,1844.5407825999428,1844.5407873999795,1846.0574590999167,1847.0747289999852,w,19,1.144955400028266,1,+10,607,-27.631133746346883,1.3145719534998301,0.01639325907228084,1833345.0,5.481460495486118,-1.011131155712107,-0.018540879679470157,1836879.0,12.015319195256469,0.7698905992249072,-0.158548997694262,1844557.0,1838.37515170346,1834.8411517034601,1846.0531517034601
111,34,24,f,1,2,103.0,27,2,low,4 + 7 + 1 + 1 - 8,5,7,4,5,1848.591471599997,1850.618391499971,1852.1336635999612,1857.151925999904,1858.8048539999872,1858.804859399912,1860.321613600012,1861.3385877999244,e,5,1.6529280000831932,1,+1,608,18.787773528234084,-1.2094637419195315,0.037948458058411516,1847101.0,-15.235274685748415,-0.35567925339757256,0.06712721001071276,1850635.0,-9.935496471636348,-0.132178454243701,0.03502358165143438,1858821.0,1852.13115170346,1848.5971517034602,1860.31715170346
112,34,24,f,1,2,104.0,28,2,high,2 + 1 + 9 - 4 + 1,9,11,9,8,1862.8553985999897,1864.8820025000025,1866.3971907999369,1871.4165851,1873.5007534999168,1873.500758099952,1875.016886599944,1876.078796099988,q,11,2.084168399916962,0,+0,608,-1.0655910751803903,-0.28528796418789515,0.023229161828242972,1861365.0,16.1384873007393,-0.11259282879413668,0.005187077376552107,1864898.0,-19.41639044598741,0.42399432878704246,0.07427585730567743,1928405.0,1866.39415170346,1862.86115170346,1929.90115170346
113,34,24,f,1,2,105.0,29,4,high,2 + 9 - 3 + 5 + 8,21,21,23,22,1877.5953540999908,1879.622058299952,1881.1370124999669,1886.1559641999197,1887.204858199926,1887.204863699968,1888.72151199996,1889.739030699944,q,21,1.0488940000068396,1,+10,618,0.05370866777745675,-1.2780009874937006,-0.03948694833860045,1876104.0,5.744374482999477,0.4482976791132449,0.08843764315529157,1879638.0,14.198144517305579,0.002698574985248392,0.00490749918128075,1887221.0,1881.13415170346,1877.6001517034601,1888.71715170346
114,34,24,f,1,2,106.0,30,3,low,5 + 1 + 7 - 8 + 6,11,13,9,11,1891.255910899956,1893.280551899923,1894.7954788999632,1899.813848599908,1901.100814400008,1901.100820199936,1902.6172091999324,1903.634038799908,e,11,1.2869658001000062,1,+1,619,-7.201176677901984,0.2651178967432113,-0.07136983924222551,1889763.0,16.249731247102417,0.23267799554807667,-0.06752453534090375,1893297.0,-8.575149372660565,0.33169165904656506,-0.026798743133884084,1901117.0,1894.7931517034601,1891.25915170346,1902.61315170346
115,34,24,f,1,2,107.0,31,4,low,6 + 7 + 9 - 3 + 5,24,23,24,22,1905.1509001000088,1907.1775532999309,1908.6925327999047,1913.7117411999495,1914.94083639991,1914.9408421999544,1916.4577117000008,1917.474609899917,w,24,1.229095199960284,1,+1,620,-14.034458424449909,-0.1943388585951471,0.013956821631387673,1903660.0,13.279572039833733,-1.550281376669151,0.028936665059573263,1907194.0,14.699453908980278,0.28240248506857935,-0.01226019536447387,1914957.0,1908.69015170346,1905.1561517034602,1916.4531517034602
116,34,24,f,1,2,108.0,32,2,high,7 + 6 + 1 + 8 + 1,23,23,21,22,1918.9915683999425,1921.01663879992,1922.5318893999795,1927.5503944999075,1928.3889161999105,1928.388921099948,1929.9055880999656,1930.9234004999744,q,23,0.8385217000031844,1,+10,630,0.138244840619123,-0.280321901420292,-0.04423637520837875,1917500.0,-17.41485273287254,0.3638309005141309,-0.11667231647332166,1921033.0,31.85621601303361,-0.27363243541433135,-0.018738307529215348,2062140.0,1922.52915170346,1918.99615170346,2063.63615170346
117,34,24,f,1,2,109.0,33,4,high,7 + 6 - 9 + 8 - 3,9,8,7,9,1932.4398724999048,1934.4664149999155,1935.981877899961,1941.000328599941,1941.9888601999264,1941.988864999963,1943.5053681000136,1944.522765600006,e,9,0.9885315999854356,1,+10,640,7.086020155147784,0.2858257310895711,-0.07767935676868931,1930949.0,7.49495646728179,-0.00014669674172207436,-0.010510568048627711,1934483.0,21.656887464136208,0.13785982943992625,-0.04152562287507178,1942005.0,1935.97915170346,1932.4451517034602,1943.5011517034602
118,34,24,f,1,2,110.0,34,1,high,7 + 1 + 6 + 1 + 1,16,18,16,17,1946.0397166999755,1948.064409999992,1949.5796856000088,1954.597577599925,1955.8129622999115,1955.812967499951,1957.32952889998,1958.3468189999692,w,16,1.2153846999863165,1,+10,650,19.439358859217826,-0.2720095272442622,-0.0013687220948419565,1944546.0,-15.207848601980206,0.5578787273108237,0.09131848638132789,1948080.0,-17.862261087584308,-0.8822040105185627,-0.06560668688002624,1955829.0,1949.57615170346,1946.0421517034601,1957.32515170346
119,34,24,f,1,2,111.0,35,3,high,3 + 1 + 8 - 5 + 9,16,17,16,15,1959.863505000016,1961.8895985999843,1963.404968299903,1968.423081399989,1969.3968487000093,1969.3968538999325,1970.913381399936,1971.930733999936,w,16,0.973767300019972,1,+10,660,12.966521221910813,0.005832672928757887,0.019835268756454028,1958372.0,-11.111962761109247,-0.5193527870262349,0.026742335133622674,1961905.0,16.604716457002183,-0.36126560449843925,0.03181268269203885,1969413.0,1963.40115170346,1959.8681517034602,1970.90915170346
120,34,24,f,1,2,112.0,36,4,high,3 + 9 - 4 + 7 + 6,21,19,20,21,1973.447233499959,1975.4750322999896,1976.99042399996,1982.008694899967,1983.036905999994,1983.0369113999184,1984.5534825999057,1985.5708494000137,e,21,1.0282111000269651,1,+10,670,18.377082223988356,0.019288714456960676,0.006771440184187183,1971957.0,-13.126487387632338,0.7179376741748653,0.023228856642100393,1975491.0,-12.251779839516502,0.46566414039315873,0.056383543736019615,1983053.0,1976.98715170346,1973.4531517034602,1984.5491517034602
121,34,24,f,1,2,113.0,37,1,low,6 + 9 + 1 + 1 - 1,16,16,15,14,1987.0876762999687,1989.1119129,1990.6269461999184,1995.6447056999896,1996.684882499976,1996.684887700016,1998.201682099956,1999.2190154999264,q,16,1.0401767999865117,1,+1,671,-13.055896255348717,0.7750580766127726,0.0086230623331649,1985595.0,14.877035949240165,-0.5863598071885807,0.012102738383267697,1989127.0,10.315108498646827,-0.06622580989978832,0.06767789048578088,1996700.0,1990.62315170346,1987.0911517034601,1998.1961517034601
122,34,24,f,1,3,114.0,0,4,high,8 + 4 + 7 - 5 - 6,8,9,8,7,2039.0093387999805,2041.036722299992,2042.5521593999583,2047.572074699914,2048.61294859997,2048.612954800017,2050.129993099952,2051.1472483999096,w,8,1.040873900055885,1,+10,681,9.41636095546185,0.20367706819042475,-0.123406308849483,2037518.0,4.0705956303601685,0.25314760840670303,0.018920009733885745,2041054.0,13.303091901835518,-0.04635139499430263,0.03197297977061475,2048629.0,2042.5501517034602,2039.0141517034601,2050.1251517034602
123,34,24,f,1,3,115.0,1,2,low,3 + 9 + 1 - 5 + 1,9,7,9,8,2052.663995799958,2054.691661699908,2056.2073147000046,2061.2251392999897,2062.124955100008,2062.1249602999305,2063.641617599991,2064.6585640999256,w,9,0.8998158000176772,1,+1,682,14.150206076259543,-0.7356385541150035,-0.010634311551948938,2051173.0,-1.7429121569175372,-0.14454246620142186,0.06639767260927143,2054707.0,-7.7261214968657335,-1.582216186832138,0.04641588336624958,2090252.0,2056.20315170346,2052.66915170346,2091.7481517034603
124,34,24,f,1,3,116.0,2,3,low,2 + 1 + 9 - 4 + 6,14,14,16,15,2066.17544069991,2068.2036826999392,2069.719049999956,2074.7375610999297,2076.133271700004,2076.1332767999265,2077.6495877999114,2078.666401299997,q,14,1.3957106000743806,1,+1,683,-7.2405353889566975,-0.1744402404089218,0.009264735819945802,2064685.0,-6.364706234724139,0.386667584358535,0.05609799275431837,2068219.0,-3.2051328050344967,-0.586445157128554,0.04388814107768413,2076148.0,2069.7151517034604,2066.1811517034603,2077.6441517034605
125,34,24,f,1,3,117.0,3,2,high,6 + 1 + 1 + 7 - 9,6,8,6,4,2080.1832136999583,2082.2087514000013,2083.72368029994,2088.741972599993,2090.2369437000016,2090.236949199927,2091.753515199991,2092.771376199904,w,6,1.4949711000081152,1,+10,693,-7.459436189431351,0.33048431084528573,0.07696543040540726,2078691.0,-4.003225901129099,0.8105229802303704,-0.10392734281286087,2082223.0,6.332154977136998,0.45199580236059766,0.010169163158537886,2173891.0,2083.7191517034603,2080.18715170346,2175.3871517034604
126,34,24,f,1,3,118.0,4,1,low,5 + 6 + 1 + 1 + 1,14,16,15,14,2094.2885613999097,2096.314093599911,2097.829243999906,2102.8471219999483,2103.9330816,2103.933086799924,2105.4497844999423,2106.4666873000097,e,14,1.085959600051865,1,+1,694,-6.000060180675751,-0.12033662234717468,-0.012950811762142855,2092796.0,-5.560825821442156,0.5748801093138347,0.02487380396750627,2096328.0,-11.637773178997133,-0.5087258413503717,0.01603606500761723,2103948.0,2097.8241517034603,2094.29215170346,2105.44415170346
127,34,24,f,1,3,119.0,5,3,low,2 + 9 + 1 - 5 + 7,14,14,15,12,2107.983426399994,2110.008735499927,2111.524180599954,2116.5422810999444,2118.3891268000007,2118.389131899923,2119.90544449992,2120.9233995999675,q,14,1.846845700056292,1,+1,695,-4.978324079489193,0.025869952984781897,0.013614626063661595,2106490.0,-5.8720289813544255,-0.2365846528453348,-0.02962286484923493,2110024.0,-7.946091050570191,-0.36245644678845323,0.013834356543431126,2118404.0,2111.52015170346,2107.98615170346,2119.9001517034603
128,34,24,f,1,3,120.0,6,3,low,4 + 7 + 1 + 9 - 5,16,17,18,16,2122.440139299957,2124.463864899939,2125.9793503999244,2130.997385900002,2131.9730295999907,2131.9730349999154,2133.4888298999285,2134.505762099987,e,16,0.9756436999887228,1,+1,696,-8.101388007723607,0.016938461042620645,0.0330747076916591,2120945.0,-14.765156278987842,-0.11883066599267167,0.01036684632200946,2124479.0,-40.35614841413567,-0.9396758819088236,-0.04193819800353782,2131987.0,2125.97515170346,2122.4411517034605,2133.4831517034604
129,34,24,f,1,3,121.0,7,1,high,4 + 8 + 1 - 1 - 1,11,9,13,11,2136.022258899989,2138.046614199993,2139.5611858000048,2144.579312699964,2146.0689686000114,2146.068973599933,2147.585472199949,2148.6027696999954,e,11,1.489655900048092,1,+10,706,1.564036577404127,-0.5360316813581427,0.08208527449556469,2134528.0,-18.840574527383858,-0.25253873417082406,0.018204751309886857,2138061.0,50.54834761819979,-1.0012738928424278,0.0024667991907776354,2146084.0,2139.5571517034605,2136.02415170346,2147.58015170346
130,34,24,f,1,3,122.0,8,4,low,8 + 4 - 5 + 7 - 6,8,7,6,8,2150.119365999941,2152.1475621999707,2153.662743599969,2158.681179899955,2160.037111899932,2160.037116799969,2161.553615199984,2162.570651799906,e,8,1.3559319999767467,1,+1,707,24.235160308069577,-0.2525621824822668,0.0780901016638571,2148629.0,-11.606893412808274,0.7067541956298973,0.07807089580654458,2152162.0,17.85988133341701,0.1769148449618374,-0.10039751569442457,2160052.0,2153.65815170346,2150.1251517034602,2161.5481517034605
131,34,24,f,1,3,123.0,9,2,high,7 + 5 + 1 + 9 + 1,23,23,21,22,2164.0875600000145,2166.1111594999675,2167.626464399975,2172.6448454000056,2173.87703209999,2173.877036799909,2175.39302879991,2176.4101399999345,q,23,1.2321866999845952,1,+10,717,-6.778465622271554,-0.34972785942969864,0.04475685463144741,2162592.0,-7.938347204581203,-0.07089282594308699,0.009981914398056846,2166126.0,-0.657447059235098,-0.6338705836128824,0.020693263462720823,2418587.0,2167.6221517034605,2164.0881517034604,2420.0831517034603
132,34,24,f,1,3,124.0,10,1,low,2 + 1 + 1 + 9 - 1,12,11,13,12,2177.927414399921,2179.950525299995,2181.4659258999163,2186.484000299941,2187.7250422999496,2187.725047099986,2189.2416045999853,2190.2582793999463,e,12,1.241042000008747,1,+1,718,8.750401863157215,0.14269819746892765,0.0017252583289684154,2176432.0,18.573515332814388,-1.3293878333411016,0.05045819167166199,2179965.0,45.73284776151877,-0.2745438040303787,-0.06243286633522471,2187740.0,2181.4611517034605,2177.92815170346,2189.23615170346
133,34,24,f,1,3,125.0,11,1,low,9 + 1 + 1 + 7 - 1,17,19,16,17,2191.775987499976,2193.802460399922,2195.3174299999373,2200.335485399933,2201.453192099929,2201.453197399969,2202.9698378000176,2203.9866923999507,e,17,1.117706699995324,1,+1,719,33.28450304396465,-0.11976599002699118,-0.03073642240727703,2190283.0,45.94218434431754,0.09932384482739476,-0.02817058507024406,2193817.0,-2.968829144680533,-0.6824189942282333,-0.023307117551341294,2201468.0,2195.3131517034603,2191.7791517034602,2202.96415170346
134,34,24,f,1,3,126.0,12,1,high,6 + 9 + 1 + 1 - 1,16,15,14,16,2205.503672199906,2207.5295687000034,2209.0449602999724,2214.064117299975,2214.957134999917,2214.957139899954,2216.4737318999832,2217.4911709999437,e,16,0.8930176999419928,1,+10,729,37.179438383670536,-0.46491483512487086,0.00562652164903632,2204010.0,19.748618749269838,0.06365993853191387,0.04911068798585494,2207545.0,11.840750314355535,0.06623906143113079,0.020381222473486726,2214972.0,2209.0411517034604,2205.5061517034605,2216.4681517034605
135,34,24,f,1,3,127.0,13,3,low,7 - 1 + 9 - 5 + 4,14,15,13,14,2219.007929699961,2221.0322696999647,2222.547610100009,2227.5659554000013,2229.1731899000006,2229.173194999923,2230.690659699961,2231.7075364999478,q,15,1.607234499999322,0,+0,729,-16.828233497020417,0.573786834476131,0.03216223616606251,2217513.0,-13.82819448923788,0.4237783254858707,-0.03218132315300437,2221047.0,-1.7296594499101925,-0.9361847183918837,0.026868443634922246,2255899.0,2222.5431517034604,2219.0091517034602,2257.39515170346
136,34,24,f,1,3,128.0,14,4,low,5 + 8 - 6 + 7 + 4,18,18,19,17,2233.2244604999432,2235.2507076999173,2236.765735899913,2241.784150399966,2242.4691596999764,2242.4691646000138,2243.985586199909,2245.002364599961,q,18,0.6850093000102788,1,+1,730,-27.606306565596192,0.18547138371948257,-0.04209868435899611,2231731.0,-7.539424591499488,-0.43313418875919396,0.08715022746732215,2235265.0,9.660394828690992,0.24776922250012046,-0.09470353094546113,2242483.0,2236.76115170346,2233.2271517034605,2243.9791517034605
137,34,24,f,1,3,129.0,15,3,high,3 + 1 + 8 - 5 + 6,13,14,15,13,2246.5190454999683,2248.545270900009,2250.0604874999262,2255.0786049999297,2255.8851018999703,2255.885106800008,2257.401512500015,2258.418783699977,e,13,0.8064969000406563,1,+10,740,5.437093793528178,-0.5082218486786649,0.03870674817675046,2245026.0,11.008774663579128,0.1646312710603386,-0.04107120208586923,2248559.0,18.771885988392963,-0.7300079258182972,0.0002030412095341827,2351643.0,2250.0551517034605,2246.52215170346,2353.1391517034604
138,34,24,f,1,3,130.0,16,1,low,3 + 1 + 8 + 1 + 1,14,16,13,14,2259.9354156999616,2261.962052899995,2263.477317199926,2268.4955529000144,2269.3171000999864,2269.317105199909,2270.8333045999752,2271.849854399916,e,14,0.8215471999719739,1,+1,741,2.051301676718097,0.04537552319106197,0.0500919469427894,2258442.0,-28.238729571240945,-0.736380855656602,-0.18661177388153294,2261976.0,7.53275836927471,-0.8740852905835705,0.2143967389277308,2269331.0,2263.4721517034604,2259.9381517034603,2270.8271517034605
139,34,24,f,1,3,131.0,17,3,low,5 + 6 + 7 - 1 - 9,8,8,7,9,2273.3665853999555,2275.393984699971,2276.909783100011,2281.928598799976,2284.349203999969,2284.349209100008,2285.865934100002,2286.8835481000133,e,9,2.420605199993588,0,+0,741,-30.089323307610318,-0.05798758749028199,-0.33935791334490517,2271875.0,8.395022015248127,-0.35118820732623046,0.058159653106491405,2275409.0,12.706855693154996,0.4043743995321103,0.041241370361180696,2378131.0,2276.9051517034604,2273.3711517034603,2379.62715170346
140,34,24,f,1,3,132.0,18,4,high,3 + 8 - 5 + 9 - 7,8,8,6,7,2288.400409499998,2290.4259681999683,2291.941120399977,2296.9596116999164,2297.9011400999734,2297.901145400014,2299.41796589992,2300.4349521999247,q,8,0.9415284000569956,1,+10,751,25.9771676990386,0.8883082560958844,0.02116142257179998,2286906.0,10.740584130926132,0.9499985924686856,-0.011246312700826877,2290440.0,-21.02936994448315,-0.9913501670401743,0.05721671758003022,2297916.0,2291.9361517034604,2288.4021517034603,2299.4121517034605
141,34,24,f,1,3,133.0,19,4,low,5 + 6 - 4 + 7 + 9,23,25,23,24,2301.952732399921,2303.97868499998,2305.493923699949,2310.512343799928,2311.157214000006,2311.1572191999294,2312.6737293999176,2313.690778899938,w,23,0.6448702000780031,1,+1,752,1.7758363988291954,0.2664837994399427,-0.01773700550529078,2300459.0,14.960635697913899,-0.13566582824409856,0.014661946621082667,2303993.0,3.568456752765286,-0.20119004671941632,-0.031059996303701043,2311171.0,2305.4891517034603,2301.95515170346,2312.66715170346
142,34,24,f,1,3,134.0,20,4,high,3 + 9 - 5 + 8 - 7,8,8,7,9,2315.2075342999306,2317.2329526999965,2318.747971499921,2323.766747799935,2324.5411789999343,2324.5411848999797,2326.057602199958,2327.0750165999634,q,8,0.7744311999995261,1,+10,762,36.855618728670144,-0.6628512810243832,0.6894668815857865,2313714.0,-12.812058442177038,0.7857709075691517,0.0014758313625882202,2317247.0,5.988485470606655,-0.9520890420987724,-0.02303732248080048,2324555.0,2318.74315170346,2315.2101517034603,2326.05115170346
143,34,24,f,1,3,135.0,21,4,low,4 + 7 - 8 + 9 - 3,9,9,8,11,2328.5918412000174,2330.6174792000093,2332.1326734999893,2337.1515554999933,2338.1812343999045,2338.1812398999464,2339.6980985999107,2340.7151048999517,q,9,1.0296788999112323,1,+1,763,-33.59025683143809,-0.45738670561130945,-0.028623736209165695,2327098.0,-5.1274680792064355,0.039262066765640036,-0.03371085373773686,2330632.0,24.310260784643717,0.7068151463284487,0.013049436112219537,2338195.0,2332.1281517034604,2328.5941517034603,2339.6911517034605
144,34,24,f,1,3,136.0,22,3,low,7 + 5 + 9 + 1 - 6,16,16,15,14,2342.231759599992,2344.25897789991,2345.7742623999948,2350.7927113999613,2351.629279399989,2351.6292841999093,2353.145436299965,2354.1621268999297,q,16,0.8365680000279099,1,+1,764,8.940343417132864,-0.21682562762050583,0.021193755644348,2340739.0,7.721996080105846,0.5114645688265602,-0.09224232437128976,2344273.0,-23.293684496960143,-0.843981906175113,0.045616241471026386,2391683.0,2345.7691517034605,2342.2351517034604,2393.1791517034603
145,34,24,f,1,3,137.0,23,1,high,3 + 1 + 8 + 1 + 1,14,12,14,13,2355.678833100013,2357.703018,2359.2178828999167,2364.235906200018,2364.861201599939,2364.8612067999784,2366.3778762000147,2367.39555529994,w,14,0.6252953999210149,1,+10,774,13.117758261341402,-0.3703613569766162,0.06936626759431941,2354183.0,19.124112630749025,-0.5470035520684613,0.06618648930276883,2357716.0,11.708628147900306,-0.2860905656952806,-0.05451161544227534,2364876.0,2359.21215170346,2355.6791517034603,2366.3721517034605
146,34,24,f,1,3,138.0,24,3,low,4 + 7 - 3 + 5 - 1,12,11,13,12,2368.912369599915,2370.93719899992,2372.4529038999463,2377.4711275999434,2378.117283099913,2378.117288199952,2379.633958899998,2380.650879199966,e,12,0.6461554999696091,1,+1,775,-8.431897449415057,0.31244125309335313,-0.06312174173501206,2367417.0,30.68339606904094,0.4971129573071966,-0.024240024474831978,2370951.0,-38.59750588734677,-0.15337965126790465,0.017064036111566372,2646426.0,2372.4471517034603,2368.9131517034602,2647.9221517034603
147,34,24,f,1,3,139.0,25,3,high,4 + 1 + 8 + 9 - 5,17,19,17,18,2382.1676601999206,2384.193957799929,2385.709301199997,2390.727618100005,2391.669497099938,2391.669502299977,2393.186213999986,2394.203444999992,w,17,0.9418789999326692,1,+10,785,-16.8814336329776,-0.054433315887564504,0.03352308243960178,2380674.0,-22.49498878493764,0.2608223757414292,0.07992048536953544,2384208.0,-18.32078362277279,0.3160754030064661,0.05442412525950635,2659898.0,2385.7041517034604,2382.1701517034603,2661.3941517034605
148,34,24,f,1,3,140.0,26,4,high,9 + 3 - 5 + 8 + 6,21,21,23,19,2395.720091999974,2397.7467625999125,2399.262119799969,2404.280504599912,2405.205282400013,2405.2052873999346,2406.7217708999524,2407.739049599972,q,21,0.9247778001008556,1,+10,795,-13.782265903848206,-0.7216704076604197,0.1334364201617373,2394227.0,-12.139137764753709,-0.4728975846920145,0.10410302653216164,2397760.0,9.377997630582994,0.7128350169764239,-0.08978572624034364,2405219.0,2399.2561517034605,2395.72315170346,2406.7151517034604
149,34,24,f,1,3,141.0,27,2,low,8 + 1 + 4 - 7 + 1,7,6,7,5,2409.256067499984,2411.2842513999203,2412.7994941999204,2417.817749299924,2418.573251599912,2418.573256799951,2420.09004359995,2421.106848199968,w,7,0.755502299987711,1,+1,796,14.763832117024014,-1.017508538913078,-0.06547926357624778,2407764.0,-47.19621773742456,-0.36288902202805673,0.0822010610307673,2411298.0,5.5751481543337835,-0.6120359865610707,0.23299388220638018,2485234.0,2412.79415170346,2409.2601517034605,2486.7301517034603
150,34,24,f,1,3,142.0,28,1,low,6 + 1 + 1 + 7 - 1,14,14,13,12,2422.623750599916,2424.6493333999533,2426.164475400001,2431.184530999977,2431.989280299982,2431.989285000018,2433.505244,2434.52228029992,q,14,0.8047493000049144,1,+1,797,1.8746980728692098,0.19372096031852593,0.1589379373003421,2421129.0,-1.2602388128520943,0.34539697011220927,-0.09174145119383259,2424664.0,18.23755112941805,0.16970750926224998,-0.05438281477750473,2432002.0,2426.1601517034605,2422.6251517034602,2433.4981517034603
151,34,24,f,1,3,143.0,29,1,high,3 + 1 + 9 + 1 + 1,15,14,15,17,2436.03915899992,2438.0662515999284,2439.5813000999624,2444.599025600008,2445.3414567,2445.34146149992,2446.85747129994,2447.874649800011,w,15,0.7424310999922454,1,+10,807,11.036315045388877,1.0368232227519263,-0.15288634701231363,2434546.0,1.8086902654688188,-0.06813854441397282,0.03545728209027432,2438079.0,13.313656069254357,-0.110264637109724,0.09258894636056403,2445354.0,2439.5751517034605,2436.04215170346,2446.85015170346
152,34,24,f,1,3,144.0,30,1,high,8 + 1 + 5 + 1 + 1,16,16,15,17,2449.391419899999,2451.414644500008,2452.9297850999283,2457.947894699988,2458.5812293000054,2458.5812339999247,2460.0973843999677,2461.1155313999625,q,16,0.633334600017406,1,+10,817,-17.346581350342554,0.514793447125248,0.0004898716795316282,2447894.0,-17.35980543224906,-0.015571276624363861,0.005043487345402831,2451428.0,-1.3167103226036316,-0.5497474319071873,-0.017880363623296258,2458594.0,2452.92415170346,2449.39015170346,2460.0901517034604
153,34,24,f,1,3,145.0,31,4,low,7 + 6 - 9 + 8 - 3,9,8,7,9,2462.632083099917,2464.655414799927,2466.170684500016,2471.189032999915,2471.8533397999126,2471.85334469995,2473.3707852999214,2474.388047699933,e,9,0.6643067999975756,1,+1,818,14.925278950108005,-0.35772890544255276,0.055058184497115414,2461135.0,6.867006136035619,-0.25828954991325226,0.023995776538151548,2464669.0,5.22359438766866,-0.6349044557547527,0.03038742387064275,2471867.0,2466.16515170346,2462.6311517034605,2473.3631517034605
154,34,24,f,1,3,146.0,32,2,low,2 + 1 + 9 - 4 + 1,9,8,9,11,2475.904569800012,2477.9310287999688,2479.446344799944,2484.46502429992,2485.22136779991,2485.2213729999494,2486.737914599944,2487.7548220999306,w,9,0.7563434999901801,1,+1,819,9.07606288309163,-0.5302415102544771,0.06678583314627784,2474411.0,18.968214754350356,-0.46401544318329524,0.10407181504238516,2477945.0,-0.594733898067263,0.8508809038080081,-0.04149275197547975,2498658.0,2479.4411517034605,2475.9071517034604,2500.1541517034602
155,34,24,f,1,3,147.0,33,2,low,3 + 8 - 5 + 1 + 1,8,6,8,9,2489.2715287000174,2491.295679599978,2492.810834600008,2497.828608599957,2498.6453239999246,2498.645328899962,2500.161912099924,2501.178778099944,w,8,0.8167153999675065,1,+1,820,16.131026769693612,-0.5738126892790723,-0.019929953002131073,2487775.0,-7.76822751605202,-0.23915435940067287,-0.15724074714134173,2491309.0,35.477999505062016,-0.06405095552654405,-0.020888321248475172,2513099.0,2492.8051517034605,2489.2711517034604,2514.5951517034605
156,34,24,f,1,3,148.0,34,2,high,7 + 8 + 1 + 9 + 1,26,26,24,25,2502.6954683999065,2504.7217793000164,2506.236982899951,2511.2557150999783,2513.085284999921,2513.0852902999613,2514.601838200004,2515.618979299906,q,26,1.829569899942726,1,+10,830,14.500831922395122,-0.2536883294334542,0.046581250207812674,2501201.0,-7.879869160251976,0.26955386133934134,0.02008451236969777,2504735.0,18.525839340549922,-0.13952177968650847,-0.007738286092559221,2526458.0,2506.2311517034605,2502.6971517034603,2527.9541517034604
157,34,24,f,1,3,149.0,35,2,low,4 + 9 - 7 + 1 - 1,6,5,8,6,2517.135723899933,2519.1628567000157,2520.6780092999106,2525.698060199968,2526.4454039999982,2526.4454090999207,2527.9619903999846,2528.9787978999084,e,6,0.7473438000306487,1,+1,831,11.701400245272872,-0.4205871391681608,-0.06811457778457974,2515642.0,8.900235112513979,0.37603771484814796,0.032378021145271774,2519177.0,-52.569539696329684,-0.9152233102451124,-0.06434768325495188,2540059.0,2520.6731517034605,2517.13815170346,2541.5551517034605
158,34,24,f,1,3,150.0,36,2,low,4 + 9 + 1 - 7 - 1,6,5,8,6,2530.495503699989,2532.520098799956,2534.0353587999707,2539.0539141999325,2540.045400599949,2540.045406499994,2541.5629937999183,2542.579871099908,e,6,0.9914864000165836,1,+1,832,8.214985798649105,-1.561416049942169,0.0019689953740162913,2528999.0,8.193071199573165,-0.4172528575442014,-0.04988367403871852,2532533.0,8.103969305864824,-1.741673517369004,-1.1581253184552804,2606602.0,2534.0291517034602,2530.49515170346,2608.09815170346
159,34,24,f,1,3,151.0,37,4,high,6 + 5 - 7 + 8 - 9,3,4,3,5,2544.096474499908,2546.122785500018,2547.638070599991,2552.657087199972,2553.285472999909,2553.285477799945,2554.801996199996,2555.819395300001,w,3,0.6283857999369502,1,+10,842,-45.46920591141998,0.08263498008888615,0.08126082101594578,2542602.0,27.642578039192927,0.2806575752893874,-0.07688181113005643,2546136.0,16.868486223398843,0.07883646771364194,-0.06925950665403646,2553299.0,2547.6321517034603,2544.09815170346,2554.7951517034603
160,34,24,f,1,4,152.0,0,2,high,6 + 1 + 8 + 7 - 1,21,21,19,23,2597.306541599916,2599.3331971999723,2600.848491300014,2605.8684108000016,2606.5894371999893,2606.5894420999102,2608.105691900011,2609.1229680000106,q,21,0.7210263999877498,1,+10,852,-13.453028674161905,-0.7511601702022652,0.1105470948719891,2595812.0,-4.434213482356827,0.7451497798339464,-0.024409876738620495,2599347.0,-17.855771843029633,-0.5631232559345332,0.07673527335206654,2673137.0,2600.8431517034605,2597.30815170346,2674.6331517034605
161,34,24,f,1,4,153.0,1,4,high,3 + 8 - 4 + 9 + 7,23,22,24,23,2610.639880499919,2612.667048199917,2614.182359199971,2619.201808799989,2619.861370399944,2619.86137509998,2621.377995399991,2622.39530199999,e,23,0.6595615999540314,1,+10,862,17.686045290376573,1.1512064404045947,-0.09748550833157088,2609146.0,18.46109826833426,-0.0593515750432676,-0.05202763887936834,2612680.0,1.6929201699162864,-1.0758606487247908,0.05388284842720448,2619874.0,2614.17615170346,2610.6421517034605,2621.37015170346
162,34,24,f,1,4,154.0,2,1,low,7 + 1 + 5 + 1 - 1,13,14,13,12,2623.912071299972,2625.937849799986,2627.4531023999443,2632.471952199936,2633.117437499925,2633.1174421999604,2634.634010699927,2635.650875299936,w,13,0.6454852999886498,1,+1,863,15.505133374319229,0.02642118249516745,0.06367227093959604,2622417.0,2.654083016237451,-0.5374791364570948,-0.01815511068473885,2625951.0,8.255375930895482,0.5910477189508505,-0.03761196512297671,2633130.0,2627.4471517034603,2623.9131517034602,2634.6261517034604
163,34,24,f,1,4,155.0,3,3,low,7 - 1 + 8 - 6 + 4,12,13,11,12,2637.167616599938,2639.1931016999297,2640.708407499944,2645.7272837999044,2646.4135494999355,2646.413554699975,2647.9302998000057,2648.947227699915,e,12,0.6862657000310719,1,+1,864,-7.5674935227533275,-0.20233294709981386,0.055231935545761335,2635672.0,-5.594717273645445,0.3318570683669746,0.09201718272974158,2639206.0,26.069632936660835,0.32039940194217653,0.0508007849204013,2686505.0,2640.7021517034605,2637.1681517034604,2688.0011517034604
164,34,24,f,1,4,156.0,4,3,high,8 + 4 + 1 - 7 + 9,15,15,16,13,2650.464226800017,2652.488228900009,2654.003599699936,2659.021833000006,2659.885574899963,2659.8855806000065,2661.4020683999406,2662.4191690000007,q,15,0.863741899956949,1,+10,874,14.978218207989428,-0.18758560046145067,-0.08172749708276617,2648967.0,-12.17336759017404,-0.35981697792244116,0.005612409350230774,2652501.0,34.649725905342656,-0.17017637207254133,-0.03467454672738657,2755874.0,2653.9971517034605,2650.4631517034604,2757.37015170346
165,34,24,f,1,4,157.0,5,2,low,2 + 9 + 1 + 1 - 5,8,6,8,7,2663.9358541999245,2665.963447399903,2667.478720500017,2672.49790889991,2673.125567400013,2673.125572699937,2674.6420477000065,2675.658919999958,w,8,0.62765850010328,1,+1,875,-13.253105709374754,0.0923041883234399,0.036003686606563834,2662442.0,10.78276237331082,0.5652733776469274,-0.008921387127548419,2665977.0,12.615797001922282,1.4225840564098684,-0.015237429771247202,2796937.0,2667.47315170346,2663.9381517034603,2798.43315170346
166,34,24,f,1,4,158.0,6,3,low,9 - 1 + 5 - 6 + 8,15,17,15,14,2677.175671999925,2679.204184199916,2680.719744700007,2685.738053499954,2686.493428999908,2686.493433699943,2688.009869799949,2689.0267918999307,w,15,0.7553754999535158,1,+1,876,-19.413838101450178,0.18407489410775746,0.03023332227921194,2675683.0,-1.4683218980695893,-0.22663255616160516,0.08102503280001927,2679217.0,-2.1934534398137835,0.04840395141490994,-0.02708158071412292,2810201.0,2680.7131517034604,2677.1791517034603,2811.6971517034603
167,34,24,f,1,4,159.0,7,1,high,3 + 1 + 1 + 9 - 1,13,13,12,14,2690.543441899936,2692.567688799929,2694.0829491999466,2699.101319400012,2700.165493999957,2700.165498999995,2701.683108599973,2702.7004256999357,q,13,1.0641745999455452,1,+10,886,49.348282034953925,0.19191684448277346,-0.07901073932389346,2689046.0,-11.328208783645202,-0.13837067710048334,-0.025464293117518855,2692580.0,16.335115109763,0.01861149159417952,-1.45715851909729,2700179.0,2694.0761517034603,2690.54215170346,2701.6751517034604
168,34,24,f,1,4,160.0,8,4,low,6 + 9 - 7 + 8 - 5,11,13,11,12,2704.217257399927,2706.243684599991,2707.7587760000024,2712.777107300004,2713.6775360999163,2713.677541199955,2715.194142299937,2716.211060100002,w,11,0.9004287999123335,1,+1,887,8.580269211308238,-1.8352993840003178,0.012107963867071136,2702722.0,8.407021411639278,0.9313625928201392,0.014195655202120294,2706256.0,30.18661097832515,-1.0058018675981568,0.05739706151669477,2713689.0,2707.75215170346,2704.2181517034605,2715.18515170346
169,34,24,f,1,4,161.0,9,4,high,5 + 7 - 4 - 6 + 9,11,11,13,12,2717.728219099925,2719.755552000017,2721.270676599932,2726.3008218000177,2727.054019199917,2727.054024299956,2728.570601899992,2729.587827099953,q,11,0.7531973998993635,1,+10,897,2.0919426338134315,0.34476504575974065,-0.678910567055756,2716234.0,-18.405410357362765,-0.45176982792957876,-0.7847967309605994,2719779.0,24.839209337483297,-0.30369509191232424,0.10457700568317918,2727066.0,2721.2751517034603,2717.7301517034603,2728.56215170346
170,34,24,f,1,4,162.0,10,4,high,4 + 7 + 8 - 3 + 9,25,25,24,26,2731.104640799924,2733.1283156999853,2734.643617099966,2739.663555599982,2742.261587599991,2742.261592999916,2743.778256499907,2744.8421454000054,q,25,2.5980320000089705,1,+10,907,-20.935687886954163,0.22329151338288256,0.061864063982791206,2729606.0,8.298266326345336,-0.634365931026748,0.08074753880068841,2733142.0,-8.857247540111363,-0.4098849969335019,0.05758562023145708,2742320.0,2734.63815170346,2731.1021517034605,2743.8161517034605
171,34,24,f,1,4,163.0,11,3,high,6 - 1 + 7 - 8 + 9,13,13,11,12,2746.359020199976,2748.3838718999177,2749.899199499981,2754.9175565999467,2755.861642699921,2755.86164769996,2757.378263499937,2758.3959464000072,q,13,0.9440860999748112,1,+10,917,-8.933713534472492,-0.5398307014484995,-0.010918822442930631,2744862.0,10.699091932440478,-0.08503961607338084,-0.006015021305285861,2748396.0,33.62447617177925,0.537241976673422,0.022684122211350077,2823569.0,2749.8921517034605,2746.3581517034604,2825.0651517034603
172,34,24,f,1,4,164.0,12,4,low,4 + 7 - 8 + 9 - 4,8,8,9,7,2759.913409099914,2761.940287999925,2763.4552784999837,2768.473771399935,2770.1174913999857,2770.1174963999074,2771.6341313999146,2772.6510497999843,q,8,1.643720000050962,1,+1,918,45.217178894405876,-0.3441852995853969,0.24105552896732818,2758418.0,-10.927021426309075,0.7939184285277312,-0.16013184580330564,2761952.0,-6.214680945385917,0.4459028645201393,-0.028351444800803982,2770129.0,2763.4481517034606,2759.9141517034604,2771.6251517034602
173,34,24,f,1,4,165.0,13,1,high,8 - 1 + 1 + 6 + 1,15,15,14,16,2774.167794500012,2776.1923063999275,2777.7074003999587,2782.7261921999743,2783.493558299961,2783.493563600001,2785.0104153999127,2786.027743899962,q,15,0.7673660999862477,1,+10,928,16.80093010532617,-0.179914520425295,0.034656230339104255,2772671.0,-2.510256982981648,-0.023126404866088635,-0.6404088488487927,2776205.0,-64.11703978675042,-0.40945353064974466,-0.0528076588646893,2783506.0,2777.7011517034603,2774.16715170346,2785.00215170346
174,34,24,f,1,4,166.0,14,2,low,9 + 6 + 1 + 7 + 1,24,23,24,25,2787.544522000011,2789.571317899972,2791.0865431999555,2796.105604699929,2796.9256374000106,2796.9256426999345,2798.442199999932,2799.459270399995,w,24,0.8200327000813559,1,+1,929,19.36233151940303,-0.9406241062977045,-0.033843873554070925,2786049.0,27.22903922196795,0.3683604614018776,0.0006061219765469694,2789584.0,-1.838270089196687,0.4052926887275903,0.010198369576700062,2836833.0,2791.08015170346,2787.5451517034603,2838.3291517034604
175,34,24,f,1,4,167.0,15,3,low,7 - 6 + 8 + 1 + 7,17,15,17,16,2800.975980499992,2803.0019195999485,2804.516954199993,2809.587940700003,2810.1895218999125,2810.189527199953,2811.7058480000123,2812.723004899919,w,17,0.6015811999095604,1,+1,930,-6.4460463561717205,-1.3675719173259369,-0.07193514687278757,2799480.0,-8.657738041407931,-0.331955179540115,0.04539324309400983,2803066.0,17.38155691781902,0.026644889091439694,0.02437305674803647,2867361.0,2804.56215170346,2800.9761517034603,2868.85715170346
176,34,24,f,1,4,168.0,16,3,low,5 - 1 - 4 + 6 + 7,13,15,14,13,2814.239724399988,2816.262115599937,2817.7773938999744,2822.795914200018,2823.5575318000047,2823.557536699925,2825.0741206000093,2826.0909538000124,e,13,0.7616175999864936,1,+1,931,-22.349710031293515,-0.43939513828041754,0.11862848139430326,2812740.0,7.351725353840623,-0.010954232266914943,-1.16827961882479,2816274.0,-18.948781505885083,-0.20516654396049727,-0.051888184184223585,2907208.0,2817.77015170346,2814.23615170346,2908.7041517034604
177,34,24,f,1,4,169.0,17,2,low,3 + 1 + 8 - 5 - 1,6,6,7,5,2827.608798399917,2829.632445199997,2831.1474539999617,2836.165761500015,2836.8215991999023,2836.8216044999426,2838.3381758999312,2839.354982099961,q,6,0.6558376998873428,1,+1,932,-36.55128485216355,-0.215803750856443,-0.0030829218583454665,2826110.0,-20.837821960744,-0.00196287099065362,0.08628591939051966,2829644.0,-1.8433833973324374,0.42305937391190485,0.026803160941267334,2894065.0,2831.14015170346,2827.6061517034605,2895.5611517034604
178,34,24,f,1,4,170.0,18,1,high,8 + 1 + 1 + 1 - 4,7,8,5,7,2840.871679999982,2842.897900699987,2844.4131652999204,2849.4311558000045,2850.2216021999484,2850.2216071999865,2851.738058999996,2852.755400099908,e,7,0.7904463999439031,1,+10,942,4.390304321007221,0.24543684448826486,0.0528153289258666,2839376.0,-6.335842828547012,-0.22626652146552395,-0.06443780347782568,2842909.0,29.3235415801281,-0.005136019483609644,-0.008487734145218973,2850233.0,2844.4051517034604,2840.8721517034605,2851.7291517034605
179,34,24,f,1,4,171.0,19,3,high,2 + 1 + 9 - 7 + 6,11,12,13,11,2854.272471299977,2856.296285499935,2857.812016699929,2862.83168339997,2867.349677899969,2867.3496838000137,2868.8663764999947,2869.883615399944,e,11,4.517994499998167,1,+10,952,12.592188506710775,0.018501794115917125,-0.07585261196731619,2852774.0,-15.180719740029232,0.30662331104949825,-0.058119983176285306,2856309.0,25.35886191284258,0.2756445579208049,0.04887926553490418,3003072.0,2857.8051517034605,2854.27015170346,3004.5681517034604
180,34,24,f,1,4,172.0,20,4,high,6 + 9 + 7 - 3 - 5,14,14,12,13,2871.4006777999457,2873.426374099916,2874.9416480999207,2879.9617264999542,2880.573619299917,2880.573624299956,2882.0902482999954,2883.1073851999827,q,14,0.6118927999632433,1,+10,962,1.9986297768709347,-0.6142959051567582,-0.005116704943589179,2869904.0,6.6000071540566925,0.4474462654669913,0.006571064322128617,2873439.0,16.316000907130835,0.2845298049353766,-0.1183093482949571,2880585.0,2874.93515170346,2871.4001517034603,2882.0811517034604
181,34,24,f,1,4,173.0,21,2,high,5 - 8 + 7 + 1 + 1,6,8,7,6,2884.6251898999326,2886.65192059998,2888.1672611999093,2893.185893599992,2894.053678199998,2894.053683699924,2895.570378599921,2896.588023899938,e,6,0.8677846000064164,1,+10,972,-25.431828929986597,0.8517247296920245,-0.04245655214884336,2883129.0,-12.5388106908966,0.14659189074120693,-0.018469857264515444,2886663.0,-49.478997901968135,0.13264739913979762,0.008608127144711375,2933825.0,2888.1591517034603,2884.6251517034602,2935.32115170346
182,34,24,f,1,4,174.0,22,3,low,2 + 9 - 3 + 4 + 1,13,11,13,14,2898.1046965999994,2900.1306373999687,2901.645874599926,2906.665856599924,2907.197604999994,2907.197612299933,2908.7141671999125,2909.7309585999465,w,13,0.5317484000697732,1,+1,973,5.390577297641972,0.026674429582061787,0.018373441656778233,2896608.0,16.428993546902294,0.15119268666780572,-0.04053412354282604,2900143.0,23.346915920064287,0.06837181057300246,-0.05391909841322429,3029760.0,2901.6391517034604,2898.1041517034605,3031.2561517034605
183,34,24,f,1,4,175.0,23,4,low,5 + 8 - 4 - 6 + 9,12,14,13,12,2911.247305499972,2913.2747772999573,2914.789850399946,2919.8081241999757,2920.525694399956,2920.5256994999945,2922.042260200018,2923.059723299928,e,12,0.7175701999804005,1,+1,974,18.62949328068925,-0.024004239439443076,0.131162258004331,2909752.0,1.5589659341202573,-0.1237923217535819,-0.0019898409879006707,2913285.0,-22.14767838589578,0.27936259677654984,-0.007172857223007867,2920537.0,2914.78115170346,2911.2481517034603,2922.03315170346
184,34,24,f,1,4,176.0,24,2,low,6 + 1 + 1 + 8 - 9,7,7,9,5,2924.576415999909,2926.602253199904,2928.117480899906,2933.136731299921,2933.813743399922,2933.813748699962,2935.3307379999897,2936.3481133999303,q,7,0.6770121000008658,1,+1,975,-35.844795267422086,0.18017004007439352,0.014277901451146269,2923079.0,-1.5956390113909293,-0.09688007141481814,0.03588549200969049,2926614.0,21.23503788800187,-0.2787264807027734,0.00889623609980461,3085888.0,2928.1101517034604,2924.5751517034605,3087.3841517034602
185,34,24,f,1,4,177.0,25,1,low,7 - 1 + 9 + 1 - 1,15,13,14,15,2937.864782599965,2939.8919945999514,2941.4071950999787,2946.426415199996,2947.365771199926,2947.3657762999646,2948.897317899973,2949.9141500999685,e,15,0.9393559999298304,1,+1,976,-9.303438212062304,-0.18707295598442286,0.09397588237640564,2936369.0,-17.420402947529528,-0.021703471970263788,-0.335046515441072,2939903.0,2.9014459411361955,0.17637815989792172,-0.011316851205360301,2947391.0,2941.39915170346,2937.8651517034605,2948.8871517034604
186,34,24,f,1,4,178.0,26,1,low,6 + 1 + 1 + 9 - 1,16,16,14,15,2951.4308133999584,2953.454285799992,2954.969345599995,2959.987270399928,2960.5898291999474,2960.5898340999847,2962.106321899919,2963.1231743999524,q,16,0.6025588000193238,1,+1,977,-30.206392084565994,-0.07614720782028472,0.19464448517971178,2949931.0,-12.845914178500447,-0.32244201858643695,0.0329833939017532,2953464.0,27.27453831833775,-0.27468598761179575,0.4767044513461871,2960600.0,2954.9601517034603,2951.4271517034604,2962.0961517034602
187,34,24,f,1,4,179.0,27,1,low,2 + 1 + 9 + 1 - 1,12,12,11,13,2964.639909799909,2966.6624503999483,2968.1777357999235,2973.196058199974,2973.7977031999035,2973.7977077999385,2975.314237399958,2976.3312349999323,q,12,0.6016449999297038,1,+1,978,18.07946148851506,0.09714671241689654,-0.13646394435044162,2963140.0,-1.0194391733865835,-0.2778127904619643,0.04181558301935806,2966673.0,-1.3537693787311884,-0.2177469768703948,0.010354073592447444,2973808.0,2968.16915170346,2964.63615170346,2975.3041517034603
188,34,24,f,1,4,180.0,28,4,low,8 + 4 + 7 - 5 - 6,8,8,9,6,2977.848140799906,2979.876546200016,2981.3918684999226,2986.410077999928,2988.7896735999966,2988.78967879992,2990.306239699945,2991.3236420999747,e,6,2.379595600068569,0,+0,978,-7.716346107643977,0.11823289410365945,-0.05466083280038103,2976354.0,4.494228709585823,0.11860309200108832,-0.14998991089103053,2979887.0,-11.846161212309294,0.018840131174805208,0.10242521136779925,3100384.0,2981.3831517034605,2977.85015170346,3101.8801517034603
189,34,24,f,1,4,181.0,29,3,low,8 + 5 + 1 - 7 + 9,16,14,17,16,2992.8406010000035,2994.866649399977,2996.381893799989,3001.4014727999456,3003.061737000011,3003.061741999933,3004.578170199995,3005.595006499905,e,16,1.660264200065285,1,+1,979,0.042367708176961116,0.5166429801468304,0.018991907113865114,2991343.0,11.678998496866416,-0.14633394731326943,0.08046117789626783,2994878.0,1.1547920826036968,0.5845909727637775,-0.04749644086550453,3043134.0,2996.3741517034605,2992.83915170346,3044.6301517034603
190,34,24,f,1,4,182.0,30,1,high,6 + 1 + 8 + 1 - 1,15,15,14,13,3007.111662499956,3009.135184300016,3010.650428599911,3015.6687863999978,3016.2538345999783,3016.2538398999022,3017.770357499947,3018.7878157999367,q,15,0.5850481999805197,1,+10,989,9.485788593784072,0.6463056271893097,-0.038203578469631294,3005612.0,-7.170606966685192,0.7481295676091713,-0.00010476597825892497,3009145.0,3.9941265472622103,-0.049049263439004065,-0.03738561738845303,3016265.0,3010.6411517034603,3007.1081517034604,3017.76115170346
191,34,24,f,1,4,183.0,31,3,low,7 + 1 + 9 + 5 - 6,16,15,16,14,3020.304806099972,3022.328131599934,3023.8433068000013,3028.861650099978,3029.749814199982,3029.7498192999046,3031.266092499951,3032.2826767999213,w,16,0.8881641000043601,1,+1,990,10.94754403624109,0.0030444494917034604,0.0405242473751104,3018805.0,-6.7645237286462105,0.1529496262747556,0.01588566411025516,3022338.0,-12.231429720560227,-0.05443107750841358,-0.007856352489435281,3059152.0,3023.8341517034605,3020.30115170346,3060.6481517034604
192,34,24,f,1,4,184.0,32,3,high,6 - 1 + 7 - 8 + 9,13,12,11,13,3033.7989317999454,3035.8249845999526,3037.340391399921,3042.358719800017,3043.077846999978,3043.077852100017,3044.625396299991,3045.65711489995,e,13,0.7191271999618039,1,+10,1000,-38.05129600329714,0.00828355762474331,-0.030870119271031893,3032301.0,12.796010683542006,-0.07034502936201958,0.11686091626986417,3035836.0,,,,,3037.33215170346,3033.7971517034603,
193,34,24,f,1,4,185.0,33,3,high,6 + 8 + 7 + 1 - 9,13,13,15,14,3047.173800699995,3049.1993105999427,3050.714592000004,3055.734704899951,3059.1417751999106,3059.141780099948,3060.6582299999427,3061.6755292000016,q,13,3.407070299959741,1,+10,1010,-9.329857249990045,-0.08424099755892378,0.04823830795183426,3045676.0,-2.138952111106306,0.32835355092751684,-0.09043850804748144,3049211.0,,,,,3050.70715170346,3047.1721517034603,
194,34,24,f,1,4,186.0,34,1,low,9 + 7 + 1 + 1 + 1,19,19,20,18,3063.192299199989,3065.217452200013,3066.7322532999096,3071.7501592999324,3072.669787499937,3072.6697919999715,3074.1873052999144,3075.204214599915,q,19,0.9196282000048086,1,+1,1011,-39.224998698693,0.08336352700270133,-0.07272081665136798,3061694.0,2.6933849557134995,-0.36785903113320595,0.06370307980540924,3065227.0,-2.8149867796396677,0.04573304923748456,-0.06471679006697117,3072681.0,3066.72315170346,3063.1901517034603,3074.1771517034604
195,34,24,f,1,4,187.0,35,2,low,9 + 5 - 6 + 1 - 1,8,7,8,9,3076.7208774000173,3078.7492441999493,3080.264448800008,3085.282375599956,3085.877845400013,3085.877850199933,3087.394460899988,3088.411466799909,w,8,0.5954698000568897,1,+1,1012,7.147527664414319,-0.11311388757775642,0.21442302296145588,3075226.0,-31.358504401325927,-0.2400837894893777,0.05886537364358424,3078759.0,37.80629972651469,0.35053522509711943,0.18919383556359048,3164600.0,3080.2551517034603,3076.7221517034604,3166.0961517034602
196,34,24,f,1,4,188.0,36,4,high,5 + 7 - 4 + 6 + 9,23,24,23,25,3089.928506199969,3091.9539432999445,3093.468862599926,3098.4872316999827,3100.373828999931,3100.3738337999675,3101.89023489994,3102.907568699913,w,23,1.8865972999483347,1,+10,1022,-6.061098755895399,-0.5477010046615716,0.04710024365648935,3088431.0,-1.4338249124093991,-0.48373448603827374,0.043079854677039675,3091964.0,30.390654690157852,-0.1869024644123245,-0.10328210006926297,3177903.0,3093.4601517034603,3089.9271517034604,3179.39915170346
197,34,24,f,1,4,189.0,37,1,high,3 + 1 + 8 - 1 + 1,12,12,10,13,3104.4244348999346,3106.448336699977,3107.963330199942,3112.981270199991,3113.6538075999124,3113.653812799952,3115.1703918999992,3116.188075199956,q,12,0.6725373999215662,1,+10,1032,-19.216674631190536,0.5451552456673783,-0.00473627992217196,3102925.0,9.245987320571407,-0.08742299668113684,0.004375339162901115,3106458.0,-0.5268038989123092,-0.1407889187642919,0.0017258895495404492,3113664.0,3107.9541517034604,3104.4211517034605,3115.1601517034605
198,34,24,f,1,5,190.0,0,2,high,9 + 4 + 5 + 1 - 1,18,17,18,19,3155.290188099956,3157.3177667999407,3158.832816399983,3163.852149499929,3164.589913100004,3164.589918499929,3166.10645219998,3167.123427899904,w,18,0.7377636000746861,1,+10,1042,17.613793759347345,1.6112830568056786,1.3046871520412158,3153794.0,19.179419955596845,0.529839732716713,0.0489753548627867,3157328.0,,,,,3158.8241517034603,3155.29015170346,
199,34,24,f,1,5,191.0,1,4,low,7 + 6 + 8 - 4 + 5,22,22,23,21,3168.639916599961,3170.664941599942,3172.1797639,3177.1983536999905,3177.893858199939,3177.8938630999764,3179.4102439999115,3180.426936100004,q,22,0.6955044999485835,1,+1,1043,-25.876432040593105,-1.5589274305194323,-0.035440006393968826,3167141.0,-13.639926772525076,-0.030015769168924678,0.0611273708206419,3170674.0,,,,,3172.1701517034603,3168.6371517034604,
