,id,age,sex,cued,block,trial,trialinblock,efflev,rewlev,calc,corAns,option1,option2,option3,tstart,ITI1Time,probTime,respTime,selectTime,ITI2Time,fbTime,ITI3Time,key_press,chosenAns,RT,acc,feedback,total_points,cuescr,cuecor,cuezyg,cuetime,probscr,probcor,probzyg,probtime,fbscr,fbcor,fbzyg,fbtime,probtime_c,cuetime_c,fbtime_c
0,35,24,f,0,Practice,,0,1,0,4 + 1 + 9 + 1 + 1,16,16,15,14,70.17127659986727,,70.17127879988402,75.27367179980502,77.02238849992864,77.02239379985258,78.53900469979271,79.56065819994546,q,16.0,1.748716700123623,1,Correct,0,,,,,11.322852699600837,0.9826882099328689,0.2387363375407876,67725.0,16.819908333752174,-2.2715177596238805,1.0008864036693441,76011.0,70.26413872041515,,78.55013872041515
1,35,24,f,0,Practice,,1,1,0,3 + 1 + 1 + 8 - 1,12,11,12,10,81.07753339991905,,81.07753639994189,86.09858689992689,89.23051089979708,89.23051669984125,90.74737509991974,91.76505169994198,w,12.0,3.131923999870196,1,Correct,0,,,,,9.143297069709167,0.8208747323825536,-0.13015087515141577,78550.0,13.342959774548858,-0.005478920069369231,0.15215536504099525,88216.0,81.08913872041515,,90.75513872041515
2,35,24,f,0,Practice,,2,2,0,8 + 1 + 6 + 1 - 4,12,10,12,11,93.2826620999258,,93.2826672999654,98.30219609988852,101.11838849983178,101.11839399999008,102.6348584999796,103.6523948998656,w,12.0,2.8161923999432474,1,Correct,0,,,,,11.395165358684835,0.0965710209322248,-1.4747059301106988,90754.0,-6.205252244150319,-1.2422303564533124,4.269625670868715,100104.0,93.29313872041516,,102.64313872041515
3,35,24,f,0,Practice,,3,2,0,9 + 4 - 6 + 1 - 1,7,6,7,5,105.1699517997913,,105.1699546999298,110.1899070998188,112.83855269989,112.83855869993567,114.35518199997024,115.37439339980484,q,6.0,2.648645600071177,0,Incorrect,0,,,,,-51.17662451551922,0.03551497512759649,-0.7875499623982956,102640.0,11.033433455985765,1.0021571484397924,-2.71063247826784,111826.0,105.17913872041515,,114.36513872041515
4,35,24,f,0,Practice,,4,3,0,9 + 3 - 5 + 6 + 7,20,21,22,20,116.8912396999076,,116.89124269993044,121.91019520000556,122.77462359983474,122.77462979988196,124.2909976998344,125.30831929994748,e,20.0,0.864428399829194,1,Correct,0,,,,,7.808735103116892,1.5215697669426964,-5.102738608469801,114361.0,-25.833608183888913,3.2353537440687603,-5.387326005279595,121759.0,116.90013872041516,,124.29813872041515
5,35,24,f,0,Practice,,5,3,0,2 + 1 + 9 - 7 + 6,11,11,10,9,126.82602119981313,,126.8260240999516,131.84590999991633,132.51053630001843,132.51054199994542,134.0273930998519,135.0454374998808,q,11.0,0.6646263001020998,1,Correct,0,,,,,1.0889090502663086,0.6965646187182166,0.17182067381310562,124297.0,-15.258910775334144,-0.28935187242011473,-0.2584032837790069,131497.0,126.83613872041515,,134.03613872041518
6,35,24,f,0,Practice,,6,4,0,4 + 8 + 5 - 3 + 7,21,23,21,22,136.56250429991633,,136.56250739982352,141.58345729997382,144.11055390001275,144.11056009982713,145.62734929984435,146.64491609996185,w,21.0,2.5270966000389308,1,Correct,0,,,,,6.153167010648925,-0.38607043334450797,-0.43233570860351733,134034.0,-61.72648718978351,-1.2023975175554327,-0.36556418880590513,143096.0,136.57313872041516,,145.63513872041517
7,35,24,f,0,Practice,,7,4,0,5 + 8 - 4 + 6 + 9,24,22,24,23,148.16243269992992,,148.1624355998356,153.18214489985257,153.81464049988426,153.81464649992995,155.33151509985328,156.349201799836,w,24.0,0.6324956000316888,1,Correct,0,,,,,-33.13220397657334,-0.9079715576859151,0.009073243890773686,145633.0,-16.12109012871073,0.014958810187174265,0.8271291544628219,152800.0,148.17213872041518,,155.33913872041518
8,35,24,f,1,0,0.0,0,2,high,9 + 5 - 6 + 1 - 1,8,8,9,7,269.3083118000068,271.35676219989546,272.8716626998503,277.889450899791,278.6362720998004,278.6362774998415,280.1518963999115,281.1686817998998,q,8.0,0.7468212000094354,1,+10,10,-15.429881542872627,-1.3170501837831843,0.34148774463548515,266807.0,-1.6668410325041136,-0.1546004214283716,-0.1679647667262878,270341.0,-1.8861815335591903,-0.28312794910969075,-0.39370654949128614,277619.0,272.8801387204152,269.3461387204152,280.1581387204152
9,35,24,f,1,0,1.0,1,4,low,5 + 9 - 4 + 7 + 6,23,24,25,23,282.6852458999492,284.760654799873,286.27594369999133,291.2953090998344,292.13232869980857,292.13233419996686,293.6488712998107,294.6664304998704,e,23.0,0.8370195999741554,1,+1,11,22.32520191081828,-1.478137017624861,0.7422041188939814,280211.0,-27.829528503662058,1.3906738746092158,-0.8473099110690092,283745.0,-4.498475087403573,0.8891129178238764,-0.29063697688721657,291116.0,286.28413872041517,282.7501387204152,293.65513872041515
10,35,24,f,1,0,2.0,2,1,high,7 - 1 + 8 + 1 - 1,14,13,12,14,296.1840017000213,298.2751092999242,299.79008169984445,304.8109004998114,306.41655700001866,306.41656319983304,307.9329056998249,308.9493656998966,q,13.0,1.6056565002072605,0,+0,11,-4.273600980338776,-1.3824708386140987,0.0883427775422172,293725.0,-19.24824242762817,0.04832003406802343,-0.9338355848782678,297261.0,31.279572508976194,-0.5344639722805606,-0.16858360458400057,460684.0,299.8001387204152,296.2641387204152,463.2231387204152
11,35,24,f,1,0,3.0,3,4,low,2 + 5 - 3 + 9 + 8,21,21,19,22,310.4662076998502,312.49337749998085,314.0084005999379,319.027548099868,319.85228289989755,319.85228779981844,321.3688981998712,322.3861465000082,q,21.0,0.824734800029546,1,+1,12,-11.588502464172144,0.1068583099013587,-0.5996707280599516,307944.0,31.64280210955623,-0.10230924900149851,0.16957590705940495,311478.0,19.172069804714056,-0.5391769950655725,1.2678166403649613,318836.0,314.0171387204152,310.4831387204152,321.3751387204152
12,35,24,f,1,0,4.0,4,2,low,3 + 9 - 1 - 5 + 1,7,5,7,6,323.90303179994226,325.9883332999889,327.5035975999199,332.5231383999344,333.132341099903,333.1323461998254,334.6487296000123,335.66567060002126,w,7.0,0.6092026999685913,1,+1,13,0.5177884616357495,0.6144981964808292,-0.9425388561935364,321438.0,0.634333899819099,0.5961859070621056,-0.21448164148850246,324973.0,2.209286284829383,1.475478398871882,-0.07725708419304977,332116.0,327.5121387204152,323.97713872041516,334.65513872041515
13,35,24,f,1,0,5.0,5,2,low,7 + 5 + 1 + 9 + 1,23,22,21,23,337.1824149999302,339.2062940998003,340.7215434999671,345.7394723999314,346.40437709982507,346.4043824998662,347.9211120000109,348.93856009980664,e,23.0,0.6649046998936683,1,+1,14,-27.59990928539982,1.7684730981767096,-0.12357023550729362,334656.0,-4.135200750723657,1.8165919128589731,-3.319263125708071,338190.0,-21.67318731682282,0.33582748962125564,0.446569570651453,345388.0,340.72913872041516,337.1951387204152,347.92713872041514
14,35,24,f,1,0,6.0,6,3,low,9 - 5 - 1 - 6 + 8,5,7,5,4,350.45504869986326,352.49442659993656,354.0097282999195,359.0279593998566,363.0523833998013,363.0523892999626,364.5688174997922,365.5854587999638,w,5.0,4.024423999944702,1,+1,15,0.6981841452895736,0.01903219256341515,0.28459439340523485,347945.0,20.993071844808867,0.004693400091344557,0.1521052514196688,351478.0,-52.36161001871045,0.9796979356217861,-0.16965469394337296,362035.0,354.0171387204152,350.48413872041516,364.5741387204152
15,35,24,f,1,0,7.0,7,4,high,3 + 9 - 4 + 7 + 6,21,19,21,20,367.10371239995584,369.1380390999839,370.65392680000514,375.6724373998586,376.4363119998016,376.4363172999583,377.9529660998378,378.9699661999475,w,21.0,0.7638745999429375,1,+10,25,21.507350266403368,-1.059950491656524,-0.3410796494762147,364587.0,-5.2994952016579076,1.0269095573290876,0.2817577854999609,368122.0,-26.194514924683695,1.1845777308149845,-2.526710756469779,375420.0,370.6611387204152,367.12613872041516,377.9591387204152
16,35,24,f,1,0,8.0,8,3,high,6 - 1 + 7 - 8 + 9,13,13,11,12,380.48684689984657,382.5261059999466,384.0409100998658,389.05883469991386,391.5084054998588,391.50841049989685,393.0250241998583,394.0424321999308,q,13.0,2.4495707999449223,1,+10,35,9.521763339896966,0.12018030898414622,-0.25540813279898344,377976.0,1.5932890120087402,0.42755018312017157,-0.34339360451544465,381509.0,8.656600589697975,-0.09596686519269149,0.38651725310270857,390492.0,384.0481387204152,380.51513872041517,393.0311387204152
17,35,24,f,1,0,9.0,9,4,low,9 + 8 - 5 - 7 + 6,11,10,11,13,395.55911129992455,397.5858367998153,399.1011081999168,404.1196559998207,405.88442389993,405.8844294999726,407.4011224999558,408.4183302999008,e,13.0,1.764767900109291,0,+0,35,-5.902975802014746,0.36402929733462486,2.152455302900264,393036.0,-11.83611011808675,1.2020023976249554,-1.2056025585563637,396569.0,-25.78648172573704,0.10105729805490249,-0.41262986104268995,420323.0,399.1081387204152,395.57513872041517,422.86213872041515
18,35,24,f,1,0,10.0,10,4,low,6 + 9 + 7 - 3 - 5,14,14,13,12,409.93533529993147,411.9569453999866,413.4722382000182,418.4911260998342,421.34049249999225,421.3404975999146,422.85713869985193,423.8741481998004,q,14.0,2.8493664001580328,1,+1,36,-1.0236408760911333,1.3424550157086568,-0.8048346057703677,407406.0,-11.111215686338426,1.0015155373377373,-0.23329703950841685,410941.0,-5.733336771367508,1.4991092227804872,-0.009139005804571276,434076.0,413.48013872041514,409.9451387204152,436.6151387204152
19,35,24,f,1,0,11.0,11,4,low,3 + 8 - 5 + 9 - 7,8,6,8,7,425.3910413999111,427.41319069988094,428.9282538997941,433.9469618999865,435.092545399908,435.0925506998319,436.60912309982814,437.62612059991807,w,8.0,1.1455834999214858,1,+1,37,6.583961749619542,-0.7346526474433652,-0.1874513201576109,422863.0,3.4545540856627888,-0.36257211131835376,-0.22863893737017316,426396.0,-3.236213026663929,1.0594144361561995,-0.19816978477941039,447419.0,428.9351387204152,425.40213872041517,449.95813872041515
20,35,24,f,1,0,12.0,12,4,high,9 + 4 - 6 + 8 + 7,22,22,24,21,439.1430277000181,441.1702725999057,442.6852748999372,447.70416049985215,448.4363422999159,448.4363470999524,449.9529845998623,450.97029859991744,q,22.0,0.7321818000636995,1,+10,47,-16.238612705863673,0.2994558120798434,-0.4929087080850958,436620.0,23.95768765800773,-0.7115106379465299,-0.4187839991023834,440153.0,6.161387521274747,0.015540474791192693,0.34264397326737006,570091.0,442.6921387204152,439.15913872041517,572.6301387204152
21,35,24,f,1,0,13.0,13,1,high,6 + 9 + 1 + 1 - 1,16,15,14,16,452.4870324998628,454.5120162998792,456.027327099815,461.0452132998034,461.7005129999016,461.7005182998255,463.2171677998267,464.2342274999246,e,16.0,0.6552997000981122,1,+10,57,17.572886279699453,1.0916011464851323,0.14004972127766901,449961.0,32.36109734168267,-0.868441392656834,0.13347761366259858,453495.0,9.390360733828262,0.07235784806234591,0.29495597097292947,473899.0,456.03413872041517,452.5001387204152,476.43813872041517
22,35,24,f,1,0,14.0,14,1,low,8 + 1 + 1 + 1 - 3,8,8,6,9,465.7511049997993,467.7782276999205,469.29324489994906,474.31154719996266,474.9164213999175,474.9164262998384,476.4330692999065,477.4499120998662,q,8.0,0.6048741999547929,1,+1,58,4.5624539297102515,-0.23742409761523398,0.03650165033582953,463227.0,3.0764351646975867,0.22734641708411907,-0.006707776416664313,466760.0,-5.138696006301638,0.5649444622673769,-0.7006891756647908,514067.0,469.29913872041516,465.76613872041514,516.6061387204152
23,35,24,f,1,0,15.0,15,2,high,3 + 9 + 1 - 5 + 1,9,8,9,7,478.9666585000232,480.9936527998652,482.5089422999881,487.527485099854,488.2364562998992,488.2364613998216,489.75290119997226,490.7696469000075,w,9.0,0.7089712000451982,1,+10,68,26.00836941113859,0.5341978579255713,0.3758143268484879,476443.0,-8.649715411354403,-0.9307046561766938,0.19871852372934784,479977.0,-22.616535726503994,2.0584981165182423,0.08203093477388146,487219.0,482.51613872041514,478.98213872041515,489.75813872041516
24,35,24,f,1,0,16.0,16,2,low,5 - 1 + 1 + 8 + 9,22,21,23,22,492.2863049998414,494.3123420998454,495.828160499921,500.84621139988303,501.86837119981647,501.8683766999748,503.3849571999162,504.4017543999944,e,22.0,1.0221597999334335,1,+1,69,-11.278762259592789,0.22432808079854993,-0.12453181855739848,489761.0,-24.662242287051946,0.6101800359930714,-0.09128496966876387,493295.0,-47.68297013725476,0.10914331403380473,-0.282437940152211,500851.0,495.8341387204152,492.3001387204152,503.39013872041517
25,35,24,f,1,0,17.0,17,1,low,6 + 1 + 1 + 7 - 1,14,13,12,14,505.9187857999932,507.9444249998778,509.4599325999152,514.4784952998161,515.0845421999693,515.0845474998932,516.6009442999493,517.6179902998265,e,14.0,0.6060469001531601,1,+1,70,22.00233421417892,-0.26206135166596667,0.1494050687904238,503393.0,-34.70320232698388,-0.3517671212421085,2.525283094079357,506928.0,-16.35672693367584,1.37977789393417,0.5756288412092698,527963.0,509.46713872041516,505.93213872041514,530.5021387204151
26,35,24,f,1,0,18.0,18,1,low,5 + 9 - 1 + 1 + 1,15,17,13,15,519.1348436998669,521.1582948998548,522.6736100998241,527.6917516000103,528.9805029998533,528.9805083000101,530.4969302997924,531.513773099985,e,15.0,1.2887513998430222,1,+1,71,2.928998530765091,0.03339160313751144,0.3569534425123493,516607.0,-3.8455419275111886,-0.2761925654487847,-0.19777450439249966,520140.0,12.936495488551095,0.5357201462533379,1.0307344179040863,554634.0,522.6791387204152,519.1461387204151,557.1731387204152
27,35,24,f,1,0,19.0,19,2,high,3 + 8 - 5 + 1 + 1,8,6,9,8,533.0311700999737,535.0583685999736,536.5736942999065,541.5916468999349,542.3326170998625,542.3326226999052,543.849196099909,544.8665473000146,e,8.0,0.7409701999276876,1,+10,81,19.97228752579966,2.059762172936858,-3.829896201762854,530507.0,-1.5918577775775251,-1.1949055214907478,0.6247510604772519,534041.0,21.159102850706297,-0.026149698997901538,0.058382174694881606,541315.0,536.5801387204152,533.0461387204151,543.8541387204152
28,35,24,f,1,0,20.0,20,1,low,6 + 1 + 8 + 1 - 1,15,15,14,13,546.3829631998669,548.411121299956,549.9270707999822,554.9455482999329,555.652533599874,555.6525389999151,557.1691050999798,558.1859877000097,q,15.0,0.7069852999411523,1,+1,82,-6.806562507221599,-1.0927256760692643,1.1567541226215967,543859.0,9.667944703174422,-0.2336490556708899,-0.2712890253752005,547394.0,33.784479168102976,-1.8836872988786961,-0.243279051344639,597275.0,549.9331387204152,546.3981387204152,599.8141387204151
29,35,24,f,1,0,21.0,21,4,high,8 + 4 + 7 - 5 - 6,8,9,8,7,559.7026856997982,561.7270084000193,563.2421877998859,568.2619680999778,571.1085804000031,571.108586399816,572.6251129999291,573.6424782997929,w,8.0,2.846612300025299,1,+10,92,-21.764005562624494,-0.065762866353964,-0.15299145250482526,557176.0,14.402669389430663,-0.9682105965764762,1.4656804343120498,560711.0,-15.81960991825537,0.8347603440833407,-0.14094110294323592,584058.0,563.2501387204152,559.7151387204152,586.5971387204152
30,35,24,f,1,0,22.0,22,4,high,5 + 7 - 4 - 6 + 9,11,12,13,11,575.1595566999167,577.1835636999458,578.6987728998065,583.7179230998736,585.0764967999421,585.0765017999802,586.5926899998449,587.6099801999517,e,11.0,1.3585737000685183,1,+10,102,-46.33276617164938,-0.8635448900650715,0.3392839787963937,572632.0,-11.937445755711787,0.08692688517716007,1.4629665235433857,576166.0,-10.042220412825117,-0.09853916538602903,-0.03613855891933193,778033.0,578.7051387204152,575.1711387204151,780.5721387204152
31,35,24,f,1,0,23.0,23,1,high,3 + 1 + 1 + 8 - 1,12,14,13,12,589.1267295998987,591.1523397997953,592.667592999991,597.6860809999052,598.2925835999195,598.2925897999667,599.8091702999081,600.8265462999698,e,12.0,0.6065026000142097,1,+10,112,11.49264175200144,1.49887479214798,0.22379319815366117,586601.0,-9.918469276007684,-0.28604509145026036,-0.184508138385862,590134.0,-1.0120606193281159,-0.07577875170560588,0.2212777946512059,650770.0,592.6731387204152,589.1401387204152,653.3091387204151
32,35,24,f,1,0,24.0,24,2,high,6 + 1 + 1 + 8 - 9,7,7,9,5,602.3434721999802,604.3708581998944,605.8860770999454,610.9040209997911,611.6684677999001,611.6684727999382,613.1847680998035,614.2026525998954,q,7.0,0.764446800108999,1,+10,122,-30.504860014774557,0.7257866151836367,-0.3731237846876909,599819.0,6.281903915213001,0.05088042466199383,-0.35776113301445145,603352.0,-15.127037775346668,-1.31973002810083,0.11778748608448142,610650.0,605.8911387204151,602.3581387204151,613.1891387204151
33,35,24,f,1,0,25.0,25,2,low,8 + 1 + 7 + 1 - 4,13,14,12,13,615.7195702998433,617.744875599863,619.2600608000066,624.2801553998142,624.9646065998822,624.9646119999234,626.4812015998177,627.4977151998319,e,13.0,0.684451200067997,1,+1,123,8.484308188597753,0.42076490432683045,-0.10581583515281467,613193.0,2.083528421096471,-0.8988957252686873,0.7027500641331201,616728.0,-23.15583698220099,0.17014915061759694,-1.2643626684746727,623946.0,619.2671387204151,615.7321387204152,626.4851387204152
34,35,24,f,1,0,26.0,26,3,high,8 - 1 + 6 - 7 + 5,11,11,13,12,629.0141484998167,631.0422526998445,632.557587799849,637.5761643999722,638.3725356999785,638.3725409999024,639.8891095998697,640.9064148999751,q,11.0,0.7963713000062853,1,+10,133,2.1855482854049733,-0.6159512545622192,-0.07153564657307188,626490.0,-0.36636699240387216,0.03473184511496186,0.04008560607395184,630024.0,11.301711044888515,0.8166399663391353,-4.210423167993147,637354.0,632.5631387204152,629.0291387204152,639.8931387204152
35,35,24,f,1,0,27.0,27,1,low,2 + 1 + 9 + 1 - 1,12,12,11,13,642.4226895999163,644.4478192999959,645.9631123999134,650.9823075998574,651.7886173999868,651.7886223997921,653.305143199861,654.3220193998422,q,12.0,0.8063098001293838,1,+1,134,-38.56162427934801,0.059058098638420375,-0.7538570216756999,639896.0,-49.79150417795688,1.0947753413475052,0.22950661289469299,643430.0,-28.838704562986685,-0.42716129282155535,0.7131713029648301,664059.0,645.9691387204151,642.4351387204151,666.5981387204151
36,35,24,f,1,0,28.0,28,1,high,2 + 1 + 9 + 1 - 1,12,12,13,11,655.8388960999437,657.8652559998445,659.3805281999521,664.398994699819,665.0767322999891,665.0767373999115,666.5941604999825,667.6119895000011,q,12.0,0.6777376001700759,1,+10,144,-0.2310614111298328,-1.3996631059495197,0.2224286001694762,653313.0,-0.7395470700458349,-0.6780668361974325,-0.18912598507292122,656847.0,-7.129274338185921,0.04724633801197342,0.07683387076661852,791666.0,659.3861387204151,655.8521387204152,794.2051387204152
37,35,24,f,1,0,29.0,29,2,high,7 + 1 + 9 - 1 - 8,8,7,6,8,669.1284040999599,671.1544730998576,672.6703125999775,677.690265199868,682.707076099934,682.7070787998382,684.2237608998548,685.2457206000108,,,,0,Too Slow!,144,-2.7222044450875256,-1.5268107959023887,-0.21202705736822347,666602.0,-31.000578415043243,-1.2356285303229697,-0.2007252722316859,670138.0,-4.7186360301643795,-0.704695955559604,5.6932744758624105,681694.0,672.6771387204152,669.1411387204151,684.2331387204151
38,35,24,f,1,0,30.0,30,3,high,5 + 6 - 4 - 1 + 8,14,14,16,15,686.7626585999969,688.7863923998084,690.3014195999131,695.3197424998507,696.8126790998504,696.8126844998915,698.329639500007,699.3479389999993,q,14.0,1.4929365999996662,1,+10,154,9.819063970520572,1.410364104430803,-4.856826945887734,684234.0,4.4986398834338255,-0.029490518473966887,-1.0556786035704917,687767.0,,,,,690.3061387204152,686.7731387204152,
39,35,24,f,1,0,31.0,31,3,high,4 + 7 - 3 + 5 - 1,12,13,12,11,700.8653167998418,702.8889260999858,704.4042789000086,709.4225867998321,710.356737999944,710.3567434998695,711.8733979999088,712.8904074998572,w,12.0,0.9341512001119554,1,+10,164,-19.271180949102725,1.0370328968133613,-0.5583703988223245,698337.0,-14.365335835829168,-1.3402414745667617,0.03717342012505043,701871.0,,,,,704.4101387204151,700.8761387204152,
40,35,24,f,1,0,32.0,32,2,high,5 - 8 + 7 + 1 + 1,6,6,8,7,714.4072804998141,716.4347145999782,717.9497690999415,722.9682844998315,723.7326621999964,723.7326676999219,725.2499292998109,726.2672780998982,q,6.0,0.7643777001649141,1,+10,174,-10.762459436642265,-1.137173050350441,0.2673211997426388,711882.0,3.2502041219856466,0.666387569620916,-0.7558353040809229,715416.0,,,,,717.9551387204152,714.4211387204151,
41,35,24,f,1,0,33.0,33,3,high,4 + 5 - 3 + 7 - 1,12,12,13,11,727.7845936999656,729.81084309984,731.3255900000222,736.3442319999449,737.1006942999084,737.100699499948,738.6170547998045,739.6344100998249,q,12.0,0.7564622999634594,1,+10,184,-12.374170409855536,-0.06758337055375208,0.44466402312903375,725258.0,-24.50629763353826,-1.5752735009850642,-0.1261843922429673,728792.0,,,,,731.3311387204152,727.7971387204152,
42,35,24,f,1,0,34.0,34,3,low,9 - 1 + 5 - 6 + 8,15,17,15,14,741.1511748000048,743.1753427998628,744.6904047999997,749.7082999998238,750.3086304999888,750.3086355999112,751.8255308999214,752.8423909000121,w,15.0,0.6003305001650006,1,+1,185,7.635188088309923,0.06929261575842638,0.002260199639603666,738623.0,14.096671092062667,0.5743743303955675,-0.3455370145944294,742156.0,,,,,744.6951387204151,741.1621387204152,
43,35,24,f,1,0,35.0,35,2,low,6 + 1 + 8 + 5 - 1,19,18,19,17,754.3592577998061,756.3858262998983,757.9016449998599,762.920134200016,763.4925991999917,763.4926045998,765.00892199995,766.0257641000208,w,19.0,0.5724649999756366,1,+1,186,12.474146911949601,-0.31930372070220514,0.26853764869115704,751833.0,-8.707727994092933,0.17051540956876288,0.8259035904517611,755368.0,,,,,757.9071387204152,754.3721387204151,
44,35,24,f,1,0,36.0,36,4,low,4 + 7 + 8 - 3 + 9,25,26,25,24,767.5425625999924,769.5684439998586,771.0837134998292,776.1040834998712,779.0526636999566,779.0526695998851,780.5692149999086,781.5858206998091,w,25.0,2.9485802000854164,1,+1,187,3.6788740912944,-1.6294385049210085,0.13328742391320958,765016.0,7.770209090479836,0.5134788234585272,0.18477764367678695,768551.0,,,,,771.0901387204152,767.5551387204151,
45,35,24,f,1,0,37.0,37,1,high,5 + 6 + 1 + 1 + 1,14,14,16,15,783.1025389998686,785.1300919000059,786.6455783999991,791.6637787998188,792.6846215999685,792.6846264998894,794.2012110999785,795.2187424998265,q,14.0,1.020842800149694,1,+10,197,10.305650867913402,-0.23259090340817679,0.29624723291639565,780577.0,-64.41073212834358,-0.9727520416933189,-0.2123225772024382,784111.0,,,,,786.6501387204152,783.1161387204152,
46,35,24,f,1,1,38.0,0,2,low,3 + 8 + 1 - 5 + 1,8,8,9,6,955.161425099941,957.1889942998532,958.7042041998355,963.723930499982,964.308895799797,964.3089013998396,965.825832299888,966.8440988999791,w,9.0,0.5849652998149395,0,+0,197,7.099989595433638,-9.176337565860612,-2.6250186162660247,952635.0,9.830021204020916,0.16317881982075222,-0.5144719591781914,956170.0,,,,,958.7091387204151,955.1741387204152,
47,35,24,f,1,1,39.0,1,1,high,9 + 7 + 1 + 1 + 1,19,18,20,19,968.360972699942,970.3882010998204,971.9035493999254,976.922537999926,977.9569399999456,977.9569456998724,979.4744314998388,980.4928563998546,e,19.0,1.0344020000193268,1,+10,207,-12.015149079628753,0.0510729805839234,-0.5943627095883941,965834.0,18.640102083210095,0.3712620461922742,-0.14574447889869102,969369.0,,,,,971.9081387204152,968.3731387204151,
48,35,24,f,1,1,40.0,2,1,low,4 + 7 + 1 - 1 - 1,10,10,9,11,982.0099182999692,984.0369585999288,985.551842799876,990.5704278999474,991.0608075999188,991.0608126998412,992.577388299862,993.594604899874,q,10.0,0.4903796999715268,1,+1,208,-24.409267959317326,0.32810250837226196,-0.29909482789000386,979483.0,-5.520382522372897,0.2351870067974393,-0.3306010964682624,983016.0,,,,,985.5551387204151,982.0221387204151,
49,35,24,f,1,1,41.0,3,3,high,3 + 1 + 8 - 5 + 9,16,17,16,15,995.111332600005,997.1351428998169,998.6503403999376,1003.6684649998788,1005.6211498999036,1005.6211553998291,1007.1374878999776,1008.154833199922,w,16.0,1.9526849000249056,1,+10,218,13.823358149496954,0.11953147276233844,0.37078266458186615,992581.0,2.196619976690652,-0.17452944776364632,0.006732714840762544,996114.0,,,,,998.6531387204152,995.1201387204152,
50,35,24,f,1,1,42.0,4,1,high,4 + 1 + 1 + 7 - 1,12,14,13,12,1009.6714981999248,1011.6954148998484,1013.2106852999424,1018.229055600008,1019.0048965997994,1019.0049018999562,1020.5214872998184,1021.5395690998994,e,12.0,0.7758409997913986,1,+10,228,-19.523619902521457,-0.07326171479652333,0.15863574710215111,1007141.0,-7.996018870867033,0.14543191455627946,-0.5451143758084243,1010675.0,,,,,1013.2141387204151,1009.6801387204151,
51,35,24,f,1,1,43.0,5,2,low,7 + 6 + 1 - 1 - 8,5,5,4,3,1023.0564941999036,1025.0823747999966,1026.5972672998903,1031.6298248998355,1032.332864600001,1032.3328700999264,1033.849550999934,1034.8660049999598,q,5.0,0.703039700165391,1,+1,229,-25.131445669625304,0.2455559482967713,0.15335432137934735,1020528.0,-24.468563499158563,-0.10772215319409773,-0.005561580250836418,1024076.0,,,,,1026.6151387204152,1023.0671387204152,
52,35,24,f,1,1,44.0,6,1,low,2 + 1 + 9 + 1 + 1,14,12,14,13,1036.3826158999,1038.408473199932,1039.923454599921,1044.942170499824,1045.4768393000122,1045.4768445999362,1046.9934257999994,1048.0103155998513,w,14.0,0.5346688001882285,1,+1,230,8.576015737978745,0.35276600876841613,-0.07052836314700262,1033854.0,20.544434785801922,-0.5356754927364618,0.1835760683986578,1037388.0,,,,,1039.927138720415,1036.3931387204152,
53,35,24,f,1,1,45.0,7,2,high,5 + 1 + 7 - 6 + 1,8,8,6,7,1049.5271756998263,1051.5519768998493,1053.0676835998893,1058.0878220999148,1058.813027499942,1058.813032799866,1060.3296834998764,1061.3472310998477,q,8.0,0.7252054000273347,1,+10,240,4.432742632524499,-0.278236709086237,-0.03385956001908497,1046997.0,-4.413784556442499,0.0817210349511126,-0.3491830757480656,1050533.0,,,,,1053.072138720415,1049.5361387204152,
54,35,24,f,1,1,46.0,8,4,low,8 + 4 - 5 + 7 - 6,8,6,8,7,1062.8640999000054,1064.8877055998892,1066.4030110000167,1071.421884999843,1072.965005399892,1072.9650108998176,1074.4815173000095,1075.4986635998357,e,7.0,1.5431204000487924,0,+0,240,16.676932141909873,-0.27335378466595994,0.14973638110629395,1060333.0,-24.060259905024296,0.21356557887720884,0.04052750101347291,1063867.0,,,,,1066.4061387204151,1062.8721387204153,
55,35,24,f,1,1,47.0,9,3,high,4 + 8 - 9 + 1 + 7,11,11,9,13,1077.0153528999072,1079.043776099803,1080.5589926999528,1085.5792242998723,1086.2049864998553,1086.204992099898,1087.7221868999768,1088.7391712998506,q,11.0,0.6257621999830008,1,+10,250,13.739214658022693,0.1675169320002987,0.08506441313383872,1074489.0,26.21533297188773,0.7908683941318815,-0.8331158705080091,1078025.0,,,,,1080.5641387204153,1077.0281387204152,
56,35,24,f,1,1,48.0,10,4,high,3 + 8 - 4 + 9 + 6,22,23,22,21,1090.256367399823,1092.2800433998927,1093.795265499968,1098.8137395998929,1099.780936599942,1099.78094159998,1101.2973762999754,1102.3144051998388,w,22.0,0.9671970000490546,1,+10,260,-42.37670702737535,-0.026994458416282008,0.3079820521777745,1087726.0,40.092299542504,-0.6720646844123892,-0.15143456659191967,1091259.0,,,,,1093.7981387204152,1090.2651387204153,
57,35,24,f,1,1,49.0,11,2,low,9 + 6 + 1 + 7 + 1,24,24,25,23,1103.831241399981,1105.856607099995,1107.3717970999423,1112.3898427998647,1113.0690915999005,1113.0690976998303,1114.5855262000114,1115.6034777997993,q,24.0,0.6792488000355661,1,+1,261,13.774713150318549,-0.19319809065140348,-0.24692444402307512,1101302.0,12.730347482481708,-0.4279423112050229,0.01481478049081053,1104835.0,,,,,1107.3741387204152,1103.841138720415,
58,35,24,f,1,1,50.0,12,4,low,5 + 7 - 4 + 6 + 9,23,23,25,24,1117.1205992000178,1119.1486036998683,1120.6640146998689,1125.6823910998646,1127.7010755999945,1127.7010812999215,1129.217644999968,1130.2350364997983,q,23.0,2.018684500129893,1,+1,262,21.806664588220908,0.25030285898908566,0.31925066095139876,1114594.0,-34.3539007464803,0.5803711337998978,-0.6578870556412499,1118128.0,,,,,1120.667138720415,1117.1331387204152,
59,35,24,f,1,1,51.0,13,4,high,5 + 7 - 4 + 8 + 6,22,23,22,24,1131.751564399805,1133.7771804998629,1135.292507799808,1140.3114482997917,1143.2530952999368,1143.253100299975,1144.7703703998122,1145.7877783000004,q,23.0,2.941647000145167,0,+0,262,6.22136664837994,0.1708769441434983,-0.11863109111703185,1129222.0,3.5555137034240163,-0.108654520935898,0.2643188145772548,1132756.0,,,,,1135.2951387204153,1131.7611387204151,
60,35,24,f,1,1,52.0,14,3,low,4 + 1 + 8 + 9 - 5,17,19,18,17,1147.304687099997,1149.3286589998752,1150.8439146999735,1155.861983299954,1156.5090120998211,1156.5090174998622,1158.0254291999154,1159.0422628999222,e,17.0,0.6470287998672575,1,+1,263,-3.7336887759940147,-0.7795149530668066,-0.18054502165393682,1144774.0,1.6861450332826653,-5.531751316615086,-2.9133641883093357,1148307.0,,,,,1150.8461387204152,1147.313138720415,
61,35,24,f,1,1,53.0,15,1,low,2 + 1 + 1 + 9 - 1,12,12,11,13,1160.5586689999327,1162.5847239999566,1164.100094199879,1169.1181497999933,1169.7089223999064,1169.7089273999443,1171.2254333999008,1172.2424087999389,q,12.0,0.5907725999131799,1,+1,264,17.66957235950652,0.13431817781200728,0.17194170320580904,1158030.0,-11.475604071657143,-0.34189547031456424,-0.22613757060556905,1161563.0,,,,,1164.1021387204153,1160.5691387204151,
62,35,24,f,1,1,54.0,16,4,high,5 + 8 - 4 - 6 + 9,12,12,13,14,1173.759183399845,1175.7873374000192,1177.3024852999952,1182.3206293999683,1183.1250496997964,1183.1250549999531,1184.6410004999489,1185.6582824999932,q,12.0,0.8044202998280525,1,+10,274,-1.4632272669791746,0.4819531711137701,-0.4343003550985265,1171232.0,-45.022094802131505,0.586188693988261,-0.1549942520373837,1174766.0,,,,,1177.3051387204152,1173.7711387204151,
63,35,24,f,1,1,55.0,17,2,low,9 + 6 + 1 + 7 + 1,24,23,25,24,1187.1750593998004,1189.2030943999998,1190.7181809998583,1195.7362456999251,1196.453025699826,1196.4530305999797,1197.9705233999994,1198.9876955000218,e,24.0,0.7167799999006093,1,+1,275,6.901240961526606,-0.382011554586704,0.38989775496949397,1184648.0,26.93902900027844,0.46235399850762127,-0.026209363751092507,1188181.0,,,,,1190.7201387204152,1187.187138720415,
64,35,24,f,1,1,56.0,18,2,low,9 + 4 + 5 + 1 - 1,18,17,19,18,1200.5047673999798,1202.529493500013,1204.044746399857,1209.0625269999728,1209.7490477999672,1209.7490530998912,1211.265711599961,1212.2827246999368,e,18.0,0.6865207999944687,1,+1,276,3.7552686006036655,-0.06350948442612037,0.3753626265790113,1197974.0,-23.382519333492787,0.13064742254757888,-0.2654515533540409,1201508.0,,,,,1204.0471387204152,1200.513138720415,
65,35,24,f,1,1,57.0,19,2,low,4 + 7 + 1 + 1 - 8,5,4,7,5,1213.799505099887,1215.8248496998567,1217.3399463999085,1222.3580121998675,1224.101091899909,1224.1010974999515,1225.6176554998383,1226.6343580000105,e,5.0,1.7430797000415623,1,+1,277,1.5361977555558255,0.5659347010450295,0.43515528986808194,1211270.0,-35.53577032626848,0.5419279618742223,-0.272141246923141,1214803.0,,,,,1217.3421387204153,1213.8091387204151,
66,35,24,f,1,1,58.0,20,2,low,5 + 9 - 8 + 1 + 1,8,8,9,7,1228.1510890999343,1230.1771199000068,1231.6920806998387,1236.71041719988,1237.437148500001,1237.4371536998078,1238.9539265998174,1239.9708127998747,q,8.0,0.7267313001211733,1,+1,278,9.426766645962545,-0.46676861883560505,-0.13026482294691988,1225622.0,8.362029534565782,-0.10556229427344554,-0.254921975954709,1229155.0,,,,,1231.6941387204151,1228.1611387204152,
67,35,24,f,1,1,59.0,21,2,high,9 + 4 - 6 + 1 - 1,7,9,7,8,1241.4876674998086,1243.5153734998312,1245.030542699853,1250.0485632999334,1250.9330504999962,1250.933055399917,1252.4495116998442,1253.4676675000228,w,7.0,0.884487200062722,1,+10,288,-15.304931697188083,-0.5105743276283805,0.38901364501648983,1238960.0,4.704971562456437,-0.5605848821335107,-0.1483368543367738,1242493.0,,,,,1245.032138720415,1241.4991387204152,
68,35,24,f,1,1,60.0,22,1,high,3 + 1 + 9 + 1 + 1,15,15,14,17,1254.9843098998535,1257.0095155998133,1258.5247115998063,1263.543483800022,1264.3651640999597,1264.3651692999993,1265.8818174998742,1266.8991817999631,q,15.0,0.8216802999377251,1,+10,298,-41.591339541286885,-13.577764175846037,-35.42478962229215,1252454.0,-31.785192062842203,3.5592730107592887,0.5185384619914846,1255988.0,,,,,1258.5271387204152,1254.9931387204151,
69,35,24,f,1,1,61.0,23,4,low,3 + 8 - 4 + 9 + 7,23,24,22,23,1268.4159632998053,1270.442814799957,1271.9581547998823,1276.9765546999406,1280.549148199847,1280.5491533998866,1282.0660434998572,1283.0831762999296,e,23.0,3.572593499906361,1,+1,299,21.700040992511084,-4.0933778614876175,-1.7937279326507056,1265887.0,4.193399198944608,-0.8233484838534624,-0.49379423015268875,1269421.0,,,,,1271.9601387204152,1268.426138720415,
70,35,24,f,1,1,62.0,24,2,high,6 + 1 + 7 + 5 - 1,18,16,17,18,1284.5998160999734,1286.62644799985,1288.141763499938,1293.1610423999373,1293.8211273998022,1293.821132799843,1295.337786299875,1296.3552290999796,e,18.0,0.660084999864921,1,+10,309,9.907579382620145,-0.005450878886346544,-0.07905448555378003,1282071.0,-2.2783023346980524,0.5132988578357427,-1.1225355483808128,1285604.0,,,,,1288.1431387204152,1284.610138720415,
71,35,24,f,1,1,63.0,25,4,low,5 + 7 - 4 - 6 + 9,11,13,11,12,1297.8722436998503,1299.896804299904,1301.411989199929,1306.4303178999107,1307.021093599964,1307.0210984998848,1308.5370755998883,1309.553606699919,w,11.0,0.5907757000532001,1,+1,310,13.68561086560212,0.3013635583010563,-0.17126896555992532,1295341.0,-17.457080757190113,-0.2872511738048882,0.06420445779404327,1298875.0,,,,,1301.4141387204152,1297.880138720415,
72,35,24,f,1,1,64.0,26,2,high,8 + 1 + 9 + 1 - 5,14,13,14,15,1311.0704478998668,1313.097123099957,1314.6123287000228,1319.6301614998374,1320.6850977998693,1320.6851028997917,1322.202303999802,1323.2199146000205,w,14.0,1.0549363000318408,1,+10,320,27.778552729847735,-0.7189502049944849,0.008652872598915007,1308541.0,15.109764347362596,-0.05286486511904709,-0.40101717842890716,1312074.0,,,,,1314.6131387204152,1311.080138720415,
73,35,24,f,1,1,65.0,27,1,high,3 + 1 + 8 + 1 + 1,14,16,14,13,1324.736497899983,1326.7634401998948,1328.2785956999287,1333.2966258998497,1333.7971549998038,1333.7971603998449,1335.3136175000109,1336.3310133998748,w,14.0,0.5005290999542922,1,+10,330,-63.574740767828665,-0.26741633540940146,-0.27562277712383354,1322208.0,-2.6644484105356554,-0.09757204277434539,0.06546591424194448,1325741.0,,,,,1328.2801387204152,1324.7471387204153,
74,35,24,f,1,1,66.0,28,3,low,8 + 5 + 1 - 7 + 9,16,16,14,17,1337.8479017999489,1339.8710603998045,1341.3865129998885,1346.4052897999063,1347.629230799852,1347.6292361000087,1349.1458060999869,1350.1627550998237,q,16.0,1.2239409999456257,1,+1,331,-18.662630578401853,-0.6925845205105583,0.3489342324337028,1335315.0,-7.5102544507720665,0.2557163370794848,0.1001993252958906,1338849.0,,,,,1341.388138720415,1337.8541387204152,
75,35,24,f,1,1,67.0,29,1,low,6 + 9 + 1 + 1 - 1,16,14,15,16,1351.679901599884,1353.7039220998995,1355.2191229998134,1360.2377334998455,1360.8051414999643,1360.805146599887,1362.321128499927,1363.3380505999085,e,16.0,0.5674080001190305,1,+1,332,-14.343264347066103,0.4938421221773872,0.04368776779448469,1349147.0,9.5048539565753,0.01766291937815545,-0.09640819892767061,1352682.0,,,,,1355.2211387204152,1351.686138720415,
76,35,24,f,1,1,68.0,30,2,low,4 + 1 + 9 + 1 - 6,9,7,9,8,1364.854644499952,1366.881934199948,1368.3981390998233,1373.4169861997943,1373.9171521998942,1373.9171571999325,1375.4338439998685,1376.450605899794,w,9.0,0.5001660000998527,1,+1,333,-11.183036151958548,0.551193136675157,0.07867631898152405,1362326.0,32.942570257806686,-0.019970980228022128,0.05179795167364887,1365860.0,,,,,1368.399138720415,1364.8651387204152,
77,35,24,f,1,1,69.0,31,2,high,8 + 1 + 1 + 9 - 4,15,15,14,16,1377.9673677999526,1379.993331699865,1381.5085483998992,1386.5262941999829,1387.357267400017,1387.3572725998238,1388.8734834999775,1389.8906377998646,q,15.0,0.8309732000343502,1,+10,343,14.429077737003347,0.018893443050307823,0.008617423797916413,1375437.0,-28.24466828292463,0.5497116546369769,-0.48987758568996487,1378970.0,,,,,1381.5091387204152,1377.976138720415,
78,35,24,f,1,1,70.0,32,2,low,7 + 5 + 1 - 1 - 8,4,4,2,3,1391.407475499902,1393.432385899825,1394.9475901999976,1399.9676671000198,1401.4612129000016,1401.4612181999255,1402.977787999902,1403.9945319998078,q,4.0,1.4935457999818027,1,+1,344,20.547993933796263,0.07522628853418123,-1.218801767137614,1388876.0,28.493737471549473,0.15096257786104772,0.13629672647776037,1392411.0,,,,,1394.9501387204152,1391.4151387204151,
79,35,24,f,1,1,71.0,33,4,high,4 + 8 + 9 - 3 + 7,25,24,25,26,1405.5122064999305,1407.5392344999127,1409.0541585998144,1414.0724837000016,1415.805252399994,1415.8052574999165,1417.3219949998893,1418.33919959981,w,25.0,1.732768699992448,1,+10,354,13.267475592408122,-3.5598539052739824,-3.23591728125771,1402983.0,-63.98358363188173,8.876552466782524,13.2280443372393,1406516.0,,,,,1409.0551387204152,1405.5221387204151,
80,35,24,f,1,1,72.0,34,2,low,6 + 1 + 7 - 8 - 1,5,4,7,5,1419.8566457999405,1421.882052499801,1423.3969415000174,1428.4168095998466,1432.0933272999246,1432.0933324999642,1433.6098847999235,1434.6257511998992,e,5.0,3.676517700077966,1,+1,355,8.312090940667947,-0.5002697466109041,0.06786435327216189,1417326.0,-0.9394898931129667,-0.04972876843620533,-0.42418797906156325,1420861.0,,,,,1423.4001387204153,1419.8651387204152,
81,35,24,f,1,1,73.0,35,3,high,2 + 1 + 9 - 4 + 6,14,15,14,16,1436.1425805999895,1438.1668367998209,1439.682928299997,1444.7022206999827,1445.2612183999736,1445.2612234000117,1446.777715299977,1447.7952129999176,w,14.0,0.5589976999908686,1,+10,365,4.72642962072306,0.4973195795052874,0.12103439282682116,1433610.0,21.7138024445821,-0.3560723327080728,-0.9116386716652234,1437146.0,,,,,1439.6851387204151,1436.149138720415,
82,35,24,f,1,1,74.0,36,2,low,4 + 8 + 1 + 1 - 5,9,9,11,8,1449.3119694998022,1451.3404029000085,1452.855604399927,1457.8736937998328,1458.589350799797,1458.5893561998382,1460.1064504999667,1461.1238231000025,q,9.0,0.715656999964267,1,+1,366,-2.3105228840489223,0.3985358619281154,0.12988040826469494,1446783.0,-5.733876835532294,-0.18660406931563855,-0.008091500058023282,1450317.0,,,,,1452.8561387204152,1449.322138720415,
83,35,24,f,1,1,75.0,37,3,low,3 + 1 + 6 - 8 + 9,11,11,13,12,1462.6403914999682,1464.6677329000086,1466.182923699962,1471.201118499972,1471.7813339999411,1471.7813394998666,1473.2985318999272,1474.315655699931,q,11.0,0.5802154999691993,1,+1,367,-12.342672054906082,-0.10919323955019777,-0.18514067761659891,1460111.0,9.047532643236842,0.21547687364181467,-0.23407050784715633,1463644.0,,,,,1466.1831387204152,1462.6501387204153,
84,35,24,f,1,2,76.0,0,4,low,8 + 4 + 7 - 5 - 6,8,6,8,9,1535.682272299891,1537.709878699854,1539.2248154999688,1544.2459768999834,1545.661354899872,1545.6613604999147,1547.1778684998862,1548.1947506999131,w,8.0,1.415377999888733,1,+1,368,6.10093995686956,-2.654077890456122,-13.582244967133228,1533153.0,-21.44859914008982,0.4478543062140399,0.39552001292424155,1536688.0,,,,,1539.2271387204153,1535.6921387204152,
85,35,24,f,1,2,77.0,1,2,high,4 + 9 + 1 - 7 - 1,6,6,8,5,1549.7122476999648,1551.736783699831,1553.2519948999395,1558.2711559999734,1558.9013836998492,1558.9013894998934,1560.417950899806,1561.4352855999025,q,6.0,0.6302276998758316,1,+10,378,19.846598012304092,-0.15222372723208322,-0.7350892903613655,1547179.0,-9.501248473186617,-0.04442788035730372,0.20117742071366562,1550713.0,,,,,1553.2521387204151,1549.7181387204153,
86,35,24,f,1,2,78.0,2,3,high,5 + 6 - 4 - 1 + 7,13,15,13,14,1562.9521013998892,1564.9774015999865,1566.49227529997,1571.5115720999893,1573.0772961999755,1573.0773016000169,1574.5938650998287,1575.6119103999808,w,13.0,1.5657240999862552,1,+10,388,-17.673370498548337,0.45206680074853134,-0.020133417914861784,1560420.0,-7.927829306669087,-0.5491142887004719,-0.0025156243542054924,1563954.0,,,,,1566.4931387204151,1562.9591387204152,
87,35,24,f,1,2,79.0,3,1,low,3 + 1 + 8 + 1 + 1,14,13,14,12,1577.1288377998862,1579.1552195998374,1580.6704449998217,1585.6883517999668,1586.1333591998557,1586.1333649000153,1587.650135899894,1588.6671066000126,w,14.0,0.4450073998887092,1,+1,389,-11.713758710531458,-0.15473788541303968,-0.7143980882703116,1574598.0,1.2027358777246029,-0.42395651679300617,-0.3460084101701857,1578131.0,,,,,1580.6701387204153,1577.1371387204151,
88,35,24,f,1,2,80.0,4,3,low,9 + 3 - 4 + 6 + 7,21,22,21,23,1590.1838233999442,1592.2102952999994,1593.7256362999324,1598.745625199983,1600.2215330000035,1600.2215385998134,1601.7377448999323,1602.7545804998372,w,21.0,1.47590780002065,1,+1,390,26.7109226940035,0.5634626851365852,0.18495208445076283,1587653.0,22.895108992997873,-12.658334038084885,-3.4515623464199585,1591188.0,,,,,1593.7271387204153,1590.1921387204152,
89,35,24,f,1,2,81.0,5,1,low,7 - 1 + 1 + 9 - 1,15,15,13,14,1604.2713709999807,1606.2985969998408,1607.814208699856,1612.8328387998044,1613.741314699873,1613.7413196999114,1615.2579067000188,1616.2747184999753,q,15.0,0.9084759000688792,1,+1,391,4.536669526907767,-0.26440142974713865,0.2527632451405153,1601741.0,13.229427266593326,-0.6552192833073907,-0.13547940689203575,1605275.0,,,,,1607.8141387204153,1604.2801387204152,
90,35,24,f,1,2,82.0,6,3,low,6 - 1 + 7 - 8 + 9,13,12,11,13,1617.7914968999105,1619.8163606999442,1621.3315308999736,1626.3516736999154,1629.1734372999051,1629.173443199834,1630.6897729998454,1631.7067558998242,e,13.0,2.821763599989936,1,+1,392,-15.161863854731148,0.7891325511468157,-0.15356626477117397,1615259.0,-24.01978482810894,0.18858851600608784,-0.24005354889901698,1618794.0,,,,,1621.3331387204153,1617.7981387204152,
91,35,24,f,1,2,83.0,7,1,low,4 + 8 + 1 - 1 - 1,11,11,9,13,1633.2237938998733,1635.249474899843,1636.7645232998766,1641.7837284000125,1642.477476999862,1642.4774821000174,1643.993984799832,1645.010885699885,q,11.0,0.6937485998496413,1,+1,393,23.467425015132303,0.5394968382293217,-0.19286987284685075,1630692.0,-11.757206754332472,-0.20758648434844762,0.012963740531576118,1634226.0,,,,,1636.7651387204153,1633.2311387204152,
92,35,24,f,1,2,84.0,8,3,low,3 + 1 + 8 - 5 + 6,13,14,15,13,1646.5277932998724,1648.553462699987,1650.0687235000078,1655.0879757998046,1655.7413906999864,1655.7413956997916,1657.3035856999925,1658.3203867999837,e,13.0,0.653414900181815,1,+1,394,-16.221002386583827,0.31286420089862776,-0.2419206803634668,1643995.0,9.115606335553528,-0.13897724087548013,-0.15143710004683353,1647530.0,,,,,1650.0691387204151,1646.534138720415,
93,35,24,f,1,2,85.0,9,1,high,5 + 8 - 1 + 1 + 1,14,16,14,12,1659.8374826998916,1661.8608903998977,1663.3761811999138,1668.395249699941,1668.877328799805,1668.8773339998445,1670.3939788998105,1671.411367899971,w,14.0,0.4820790998637676,1,+10,404,-5.34776834252996,-0.19015171680709564,-0.022859962664073308,1657303.0,17.096972746612188,-0.01060133578341027,0.2979824175056187,1660837.0,,,,,1663.3761387204152,1659.8421387204153,
94,35,24,f,1,2,86.0,10,2,high,3 - 1 + 9 - 5 + 1,7,6,7,5,1672.9281479998026,1674.955808499828,1676.4709795999806,1681.4893410999794,1683.3253880999982,1683.3253933999222,1684.8423784999177,1685.859773699893,w,7.0,1.83604700001888,1,+10,414,-5.654843563190719,0.43404444727223446,0.10964048874895616,1670398.0,16.520248866628386,0.27523583987352307,0.07867153195882493,1673931.0,,,,,1676.4701387204152,1672.937138720415,
95,35,24,f,1,2,87.0,11,3,low,2 + 1 + 9 - 7 + 6,11,13,11,12,1687.3763897998724,1689.404659199994,1690.920227999799,1695.9387660999782,1696.4053644000087,1696.4053696999326,1697.9217705999035,1698.9386103998404,w,11.0,0.466598300030455,1,+1,415,-17.092177920199138,-0.09245621496084055,-0.19380264801948588,1684847.0,15.764702557319335,-0.10696810201300533,0.16474456086645795,1688381.0,,,,,1690.9201387204153,1687.3861387204151,
96,35,24,f,1,2,88.0,12,2,low,4 + 9 - 7 + 1 - 1,6,8,5,6,1700.4553262998816,1702.4814836999867,1703.9964930999558,1709.0147462999448,1709.821404399816,1709.8214099998586,1711.3389514000155,1712.3558749000076,e,6.0,0.8066580998711288,1,+1,416,10.065803332165572,-0.36057140032211876,0.09477438089320511,1697923.0,-3.3338271898924035,0.6103720824366703,0.016909594860433863,1701457.0,,,,,1703.9961387204153,1700.4621387204152,
97,35,24,f,1,2,89.0,13,4,high,4 + 7 + 8 - 3 + 9,25,26,25,24,1713.8728879999835,1715.9001707998104,1717.415388899855,1722.433998099994,1724.5015176997986,1724.5015230998397,1726.017891699914,1727.035649099853,w,25.0,2.0675195998046547,1,+10,426,15.986552231315505,-0.012692262731384574,-0.03397002709077457,1711342.0,35.769514756491226,0.14373245011780256,0.005984406452466562,1714876.0,,,,,1717.4151387204151,1713.8811387204153,
98,35,24,f,1,2,90.0,14,4,low,8 + 7 - 4 + 5 + 9,25,26,24,25,1728.552094299812,1730.5802953999955,1732.0954849999398,1737.1140429999214,1738.2133879999164,1738.2133930998389,1739.7299624998122,1740.74686189997,e,25.0,1.0993449999950826,1,+1,427,-3.751074798786423,0.5437525072726634,0.08791323660571848,1726021.0,17.951430877776772,-3.986613210443135,-3.0975622903417577,1729555.0,,,,,1732.0941387204152,1728.5601387204151,
99,35,24,f,1,2,91.0,15,1,high,2 + 9 + 1 + 1 + 1,14,12,14,13,1742.2636128999293,1744.289588899817,1745.804827899905,1750.8238965999335,1751.32552199997,1751.3255272000097,1752.84206299996,1753.8592051998712,w,14.0,0.5016254000365734,1,+10,437,4.96845686656105,2.7862718054341347,-0.6655855162131976,1739731.0,-9.19277191502918,-0.48085450431504206,-0.15557161531485653,1743265.0,,,,,1745.8041387204153,1742.2701387204152,
100,35,24,f,1,2,92.0,16,1,low,8 + 1 + 1 + 1 - 4,7,5,8,7,1755.3758335998282,1757.401395799825,1758.9167357999831,1763.934510799823,1764.4614744000137,1764.461479399819,1765.978366700001,1766.9961239998229,e,7.0,0.5269636001903564,1,+1,438,5.123432721296279,-0.38864045102609523,-0.677713124032882,1752843.0,11.965640853150958,0.31690773043552234,-0.08628523835716662,1756376.0,,,,,1758.9151387204151,1755.3821387204152,
101,35,24,f,1,2,93.0,17,4,high,8 + 4 + 7 - 5 - 6,8,9,6,8,1768.512711999938,1770.5382683000062,1772.0536112999544,1777.07235329994,1777.829473099904,1777.8294782999435,1779.3455246000085,1780.3627950998489,e,8.0,0.7571197999641299,1,+10,448,-12.825941886363879,-0.17478376791052508,0.04539040728692756,1765980.0,9.729897950967713,0.4812159342220532,0.11691242055773454,1769514.0,,,,,1772.053138720415,1768.5191387204152,
102,35,24,f,1,2,94.0,18,3,high,7 - 1 + 9 - 5 + 4,14,14,13,15,1781.8793813998343,1783.9029961000197,1785.417971199844,1790.4365783999674,1794.0375755999703,1794.0375810998958,1795.5542571998667,1796.571554699913,q,14.0,3.600997200002894,1,+10,458,-31.07385755313073,-0.5600158699047739,-0.11705599171667114,1779344.0,11.423145669712817,-0.5903541102326546,-0.16674758463713646,1782878.0,,,,,1785.417138720415,1781.8831387204152,
103,35,24,f,1,2,95.0,19,1,high,3 + 1 + 1 + 9 - 1,13,14,13,12,1798.0883365999907,1800.1132749998942,1801.628568599932,1806.6477210999,1807.237568099983,1807.2375731999052,1808.754037699895,1809.771367299836,w,13.0,0.5898470000829548,1,+10,468,4.969526515228564,0.14674139867345737,-0.166260576407522,1795554.0,4.294579691312762,0.3514544900095071,-0.46962609269169864,1799089.0,,,,,1801.628138720415,1798.0931387204153,
104,35,24,f,1,2,96.0,20,3,low,8 - 7 + 9 + 1 + 4,15,14,16,15,1811.288308099844,1813.313883999828,1814.828789099818,1819.8478504999075,1820.3895075998732,1820.389512799913,1821.9053543999323,1822.9221924999729,e,15.0,0.5416570999659598,1,+1,469,13.929327682271682,0.17456235172941437,-0.25599887181304126,1808755.0,21.052820987512817,-0.22579159074408217,-0.3240318492276666,1812288.0,,,,,1814.8271387204152,1811.2941387204153,
105,35,24,f,1,2,97.0,21,4,low,4 + 7 - 8 + 9 - 4,8,9,8,7,1824.4389076998923,1826.467135099927,1827.982116999803,1833.000424399972,1836.06154159992,1836.061547299847,1837.577597799944,1838.5950443998445,w,8.0,3.061117199948057,1,+1,470,-21.916985867375914,-0.6296887938766771,0.337404531867858,1821908.0,-3.3036419076448684,0.1543097811253471,0.04932689260833101,1825442.0,,,,,1827.9811387204152,1824.447138720415,
106,35,24,f,1,2,98.0,22,3,low,3 + 8 - 7 + 1 + 9,14,14,13,12,1840.111874599941,1842.1389878999908,1843.6551378997972,1848.6756422999315,1850.9335506998468,1850.9335564000064,1852.45054599992,1853.4680424998517,q,14.0,2.2579083999153227,1,+1,471,-2.038473987835861,0.5126149864614478,-0.31039039132537516,1837580.0,15.174162821383405,0.3626324354890693,-0.07851553114135479,1841116.0,,,,,1843.6551387204152,1840.119138720415,
107,35,24,f,1,2,99.0,23,4,low,6 + 7 + 9 - 3 + 5,24,22,23,24,1854.9848520997912,1857.0118628998755,1858.5267917998133,1863.5451091998257,1864.4376256999092,1864.4376309998331,1865.954587999964,1866.971543799853,e,24.0,0.8925165000837296,1,+1,472,17.79812162584664,1.001612355732056,-0.18975682231693858,1852453.0,-1.1211102864168083,0.32569744516180776,-0.3966823661463881,1855986.0,,,,,1858.5251387204153,1854.9921387204151,
108,35,24,f,1,2,100.0,24,2,high,4 + 9 - 7 + 1 - 1,6,5,8,6,1868.4883253998123,1870.511505499948,1872.0272843998391,1877.0467664999887,1877.605664299801,1877.6056695999575,1879.1218463999685,1880.1390243999197,e,6.0,0.5588977998122573,1,+10,482,-12.850831567017277,-1.2345899407218424,-0.11386031837662536,1865953.0,2.468758911348745,0.5766412778742867,-0.28981439586707136,1869488.0,,,,,1872.0271387204152,1868.4921387204151,
109,35,24,f,1,2,101.0,25,3,low,2 + 1 + 9 - 5 + 6,13,13,11,14,1881.6564879999496,1883.6845006998628,1885.1998399998995,1890.217994499952,1890.8776465998965,1890.877651799936,1892.394277899992,1893.4112350000069,q,13.0,0.6596520999446511,1,+1,483,45.86394527961228,-0.5858474651147398,0.3802149134157444,1879125.0,8.582436022888137,-0.5616050095046985,-4.009426355658994,1882659.0,,,,,1885.1981387204153,1881.6641387204152,
110,35,24,f,1,2,102.0,26,4,low,5 + 8 - 6 + 7 + 4,18,17,19,18,1894.927798199933,1896.9557927998248,1898.4709795999809,1903.4895575998817,1904.6855390998533,1904.6855444000105,1906.2021381999368,1907.2189619999845,e,18.0,1.195981499971822,1,+1,484,-43.89054188234555,-5.7220287990837555,-1.4370178304900927,1892396.0,-6.574542644106941,1.8022406843841896,0.8642697113437832,1895930.0,,,,,1898.4691387204152,1894.9351387204151,
111,35,24,f,1,2,103.0,27,1,low,9 + 8 + 1 + 1 - 1,18,17,19,18,1908.7358835998457,1910.7611606998837,1912.2766650998965,1917.295720799826,1918.3576594998597,1918.3576648999008,1919.8742368000092,1920.891606999794,e,18.0,1.0619387000333518,1,+1,485,4.1773890145144845,-0.7014250894370955,-0.007405045998882365,1906202.0,18.119447838238834,-0.4517767427368833,0.059905872088043655,1909737.0,,,,,1912.2761387204152,1908.7411387204152,
112,35,24,f,1,2,104.0,28,3,high,8 + 4 + 1 - 7 + 9,15,13,16,15,1922.4084557997996,1924.4356276998296,1925.9505235999825,1930.9690069998612,1933.9256651999892,1933.9256708999164,1935.4421428998469,1936.4594998999964,w,16.0,2.956658200128004,0,+0,485,4.949581930554947,-0.3162623778115048,0.0652229850761814,1919876.0,13.585398181366703,-0.541566763181577,0.26175421126984677,1923409.0,,,,,1925.9481387204153,1922.4151387204151,
113,35,24,f,1,2,105.0,29,4,high,7 + 6 + 8 - 4 + 5,22,21,23,22,1937.9759350998795,1940.0005852999168,1941.515771599952,1946.534386100015,1947.34962169989,1947.3496270999312,1948.8658223999664,1949.8829127999488,e,22.0,0.8152355998754501,1,+10,495,-29.153065260715007,0.034586278581627994,-0.5121618996406898,1935441.0,11.263738445540241,-0.2817640925901044,-0.16262775660131057,1938975.0,,,,,1941.514138720415,1937.9801387204152,
114,35,24,f,1,2,106.0,30,2,high,6 + 8 + 1 + 1 - 7,9,9,11,8,1951.3997955999805,1953.427763799904,1954.9427314999048,1959.9608632000163,1960.7335893998388,1960.7335945998784,1962.252630899893,1963.2709738998676,q,9.0,0.7727261998225003,1,+10,505,-27.23637576521419,-0.9651896633922306,-2.9687130522342198,1948868.0,-0.44265378860774973,0.6397506375555224,-0.11556573958460348,1952401.0,,,,,1954.9401387204152,1951.407138720415,
115,35,24,f,1,2,107.0,31,3,high,6 + 8 + 7 + 1 - 9,13,14,13,15,1964.7880438999275,1966.8153970998248,1968.3304369999096,1973.3487201998944,1977.173715999816,1977.1737219998613,1978.6903760000127,1979.707630599849,w,13.0,3.824995799921453,1,+10,515,8.925684859065619,1.53322464190759,0.09783181687414988,1962256.0,14.501690557133166,0.13809543181571104,-0.3902600800826459,1965789.0,,,,,1968.3281387204152,1964.7951387204153,
116,35,24,f,1,2,108.0,32,4,low,4 + 7 - 8 + 9 - 3,9,11,8,9,1981.2243048998064,1983.2487788000144,1984.7640509000048,1989.7826234998647,1990.6697266998235,1990.6697327999864,1992.186259499984,1993.2031793999488,e,9.0,0.8871031999588013,1,+1,516,-7.278377484641279,0.2718957826863351,0.145168150899591,1978689.0,-0.19867698097797426,-0.2029771096990789,0.04339785146690689,1982223.0,,,,,1984.7621387204151,1981.2281387204152,
117,35,24,f,1,2,109.0,33,1,low,8 + 1 + 5 + 1 + 1,16,16,15,17,1994.7194500998596,1996.7452636000237,1998.26060899999,2003.2787324998064,2003.9016689998095,2003.9016738999635,2005.418189399876,2006.4349956000224,q,16.0,0.6229365000035614,1,+1,517,-3.750956974335649,1.3615270952804117,-0.01375485298133361,1992185.0,28.005501738806643,0.5225263463998315,-0.20002113102113794,1995719.0,,,,,1998.2581387204152,1994.724138720415,
118,35,24,f,1,2,110.0,34,4,high,8 + 5 - 4 + 7 + 9,25,25,24,26,2007.95228149998,2009.977761399932,2011.4928651999217,2016.512928399956,2018.4377484999127,2018.43775419984,2019.954347899882,2020.971542699961,q,25.0,1.9248200999572875,1,+10,527,-48.032356197415346,0.1754271768227751,-0.027784155374023456,2005418.0,-19.292000783552346,0.28292950569409303,-0.3289614393816098,2008953.0,,,,,2011.4921387204151,2007.957138720415,
119,35,24,f,1,2,111.0,35,4,high,2 + 9 - 3 + 5 + 8,21,21,23,22,2022.4879091000184,2024.5142931998707,2026.0293024999555,2031.047513999976,2031.7017583998384,2031.7017636999956,2033.2183768998368,2034.2358014998024,q,21.0,0.6542443998623639,1,+10,537,-8.79246325790071,0.04879866929677146,-0.28315007520580204,2019954.0,2.4650324200561187,0.0648658375705109,-0.04345153130412571,2023487.0,,,,,2026.0261387204152,2022.4931387204151,
120,35,24,f,1,2,112.0,36,1,high,8 - 1 + 1 + 6 + 1,15,14,16,15,2035.752758399816,2037.778891999973,2039.2937675998544,2044.32758939988,2044.9977119998075,2044.9977170999628,2046.5142139999664,2047.5312882999424,e,15.0,0.6701225999277085,1,+10,547,-9.623838349072035,-0.528760433129011,0.20016573621610823,2033219.0,-21.008986564018084,-0.20808004261336288,-0.11505502238336263,2036767.0,,,,,2039.3061387204152,2035.7581387204152,
121,35,24,f,1,2,113.0,37,4,high,6 + 9 + 7 - 3 - 5,14,15,13,14,2049.048176399898,2051.074600899825,2052.5899558998644,2057.609692499973,2059.6137750998605,2059.6137800998986,2061.130392599851,2062.1476964999456,e,14.0,2.0040825998876244,1,+10,557,-39.57615587384218,0.87260692210543,-0.6602553052379325,2046514.0,4.139205911823218,-0.3700619243092209,-0.1922888494859265,2050048.0,,,,,2052.5871387204147,2049.053138720415,
122,35,24,f,1,3,114.0,0,4,high,2 + 9 - 4 + 8 + 7,22,22,21,23,2142.025930099888,2144.052331199869,2145.5677852998488,2150.587575200014,2151.149831800023,2151.149837099947,2152.6663587999064,2153.683811899973,q,22.0,0.5622566000092775,1,+10,567,0.34467342784997257,7.100458515922926,-3.6817455170900892,2139492.0,45.64965959139691,-0.9798360292445727,-0.0789820549831215,2143027.0,,,,,2145.566138720415,2142.031138720415,
123,35,24,f,1,3,115.0,1,3,high,4 + 7 + 1 + 9 - 5,16,16,17,18,2155.200716999825,2157.2269195998088,2158.742099299794,2163.760132199852,2164.8618065000046,2164.86181149981,2166.3781948999967,2167.395508499816,q,16.0,1.1016743001528084,1,+10,577,10.827079950641815,0.14655481939446702,-0.22470715271255193,2152666.0,4.256040743770907,-0.0040849522838319885,-0.7862693121668562,2156200.0,,,,,2158.7391387204148,2155.205138720415,
124,35,24,f,1,3,116.0,2,2,high,6 + 1 + 8 + 7 - 1,21,19,21,23,2168.912230399903,2170.9392225998454,2172.454436399974,2177.4732997999527,2178.0218662999105,2178.021871799836,2179.538319199812,2180.5553284999914,w,21.0,0.5485664999578148,1,+10,587,10.910901548810156,0.22339936350918155,0.009382787745205956,2166378.0,6.53719333937172,0.12256814855783826,0.06213509355043367,2169912.0,,,,,2172.4511387204147,2168.917138720415,
125,35,24,f,1,3,117.0,3,4,low,3 + 9 - 5 + 8 - 7,8,7,9,8,2182.072200599825,2184.094964399934,2185.610114599811,2190.628270099871,2192.3258755998686,2192.3258809999097,2193.8430790998973,2194.8600773999933,e,8.0,1.697605499997735,1,+1,588,8.709894828918848,-0.26744981691855596,0.026982223652520343,2179534.0,-16.699558830940056,-0.04783936840258107,0.09967678038256622,2183068.0,,,,,2185.607138720415,2182.073138720415,
126,35,24,f,1,3,118.0,4,1,low,9 + 1 + 1 + 7 - 1,17,17,19,16,2196.376890799962,2198.40187169984,2199.91686859983,2204.935109599959,2205.613802299835,2205.613807099872,2207.1304111999925,2208.1473536998965,q,17.0,0.6786926998756826,1,+1,589,21.425236239989726,0.19560406602831826,-0.16576550579422022,2193840.0,16.406903823741875,-0.44711818980964413,-0.04886492413548593,2197374.0,,,,,2199.9131387204147,2196.379138720415,
127,35,24,f,1,3,119.0,5,4,low,7 + 8 - 4 + 6 - 5,12,12,11,13,2209.6640774998814,2211.690667100018,2213.205935199978,2218.224654699909,2221.2858145998325,2221.2858210999984,2222.802450399846,2223.8192676999606,q,12.0,3.0611598999239504,1,+1,590,-29.12228480476216,1.004222642585546,-0.12353214720099781,2207129.0,-29.58285434577623,0.37781166368078356,-0.12279268450001335,2210663.0,,,,,2213.202138720415,2209.668138720415,
128,35,24,f,1,3,120.0,6,4,low,6 + 5 - 7 + 8 - 9,3,3,5,4,2225.336040899856,2227.3607876999304,2228.8759711999446,2233.8942881999537,2235.733837899985,2235.7338433999103,2237.250439299969,2238.2678040999454,e,4.0,1.839549700031057,0,+0,590,-0.19623263607780306,0.04268401070069139,-0.008920846816803163,2222800.0,21.430125424448256,-0.3538814434924049,0.11218871537082475,2226333.0,,,,,2228.872138720415,2225.339138720415,
129,35,24,f,1,3,121.0,7,3,low,5 - 1 - 4 + 6 + 7,13,15,14,13,2239.784302499844,2241.810575899901,2243.325914499816,2248.344340799842,2249.013936799951,2249.0139422998764,2250.530515599996,2251.5477666999213,q,15.0,0.6695960001088679,0,+0,590,17.720166453801312,-0.25403293828404294,-0.2462820390452931,2237249.0,25.734462256190834,-0.06581019365941021,-1.0717241557445423,2240783.0,,,,,2243.322138720415,2239.7881387204147,
130,35,24,f,1,3,122.0,8,4,high,7 + 6 - 4 + 9 - 5,13,12,13,14,2253.0646145998035,2255.0898696999066,2256.604968999978,2261.623028700007,2262.1259284999687,2262.125933999894,2263.642634499818,2264.660045299912,w,13.0,0.5028997999615967,1,+10,600,-47.12165778960117,-0.14570983207419985,0.028201890877472824,2250528.0,32.54988079526147,-0.11706936547810365,0.007917532885495682,2254062.0,,,,,2256.601138720415,2253.0671387204147,
131,35,24,f,1,3,123.0,9,4,low,4 + 7 + 9 - 5 + 7,22,24,23,22,2266.176697199932,2268.2026746999472,2269.718142399797,2274.737383299973,2276.270038299961,2276.2700437998865,2277.7862517000176,2278.803222700022,e,22.0,1.5326549999881536,1,+1,601,10.931537815562708,-0.13820728703140706,-1.8631207809178871,2263641.0,-11.301861622509396,-0.08863372162838523,-0.011510079719364796,2267176.0,,,,,2269.715138720415,2266.180138720415,
132,35,24,f,1,3,124.0,10,1,low,3 + 1 + 8 - 1 + 1,12,13,12,10,2280.320079299854,2282.346535699908,2283.86156079988,2288.8795988999773,2289.4778735998552,2289.477878500009,2290.994214099832,2292.011243399931,w,12.0,0.5982746998779476,1,+1,602,0.2859783091306394,-0.8956876065735031,0.09299252083543497,2277785.0,26.659648544428507,-0.5006240159857649,-0.7407177232985216,2281318.0,,,,,2283.857138720415,2280.324138720415,
133,35,24,f,1,3,125.0,11,1,low,7 + 1 + 4 + 1 - 1,12,13,12,11,2293.528159499867,2295.550972800004,2297.065930499928,2302.084251599852,2302.7499299999326,2302.749935499858,2304.2663663998246,2305.283392699901,w,12.0,0.665678400080651,1,+1,603,30.359848638282184,0.4372024850487968,0.55782704986047,2290989.0,34.46533892383118,-0.7701275549604709,-0.3331934745511056,2294523.0,,,,,2297.062138720415,2293.528138720415,
134,35,24,f,1,3,126.0,12,1,high,9 + 8 + 1 + 1 - 1,18,20,18,17,2306.8002545000054,2308.8271865998395,2310.342090799939,2315.3612284997944,2316.1578900997997,2316.157895799959,2317.674236799823,2318.691666299943,w,18.0,0.7966616000048816,1,+10,613,-7.435726284257033,1.115432681353271,0.1705874611156304,2304265.0,9.563150530577932,-0.5596781037738232,-0.02363551725400459,2307799.0,,,,,2310.338138720415,2306.804138720415,
135,35,24,f,1,3,127.0,13,4,low,2 + 9 - 6 + 8 - 4,9,11,9,7,2320.2080766998697,2322.2354774998967,2323.7503351999912,2328.7694727999624,2329.413935099961,2329.413939899998,2330.930494299857,2331.947415999836,w,9.0,0.6444622999988496,1,+1,614,-24.223435430909973,1.150440297967684,-0.21434295222899058,2317674.0,2.26914169868844,-0.7040204397560723,-0.09574875918598336,2321208.0,,,,,2323.747138720415,2320.213138720415,
136,35,24,f,1,3,128.0,14,1,low,8 + 1 + 1 - 1 - 4,5,6,5,3,2333.4649035998154,2335.497030799976,2337.0121896998025,2342.0303057997958,2342.6781334998086,2342.6781387999654,2344.19463449996,2345.211575999856,w,5.0,0.6478277000132948,1,+1,615,41.542520738206754,-0.6962822423218,-0.8767424811424966,2330936.0,-11.230515117004202,-0.5702154021297332,0.19863997047096493,2334469.0,,,,,2337.008138720415,2333.475138720415,
137,35,24,f,1,3,129.0,15,2,high,4 + 8 + 1 + 1 - 6,8,7,9,8,2346.728559699841,2348.7537492997944,2350.269270699937,2355.2875270999502,2356.102007699897,2356.10201329994,2357.6185590999667,2358.6364164999686,e,8.0,0.8144805999472737,1,+10,625,7.096975531206792,-0.795752599095648,1.2310594351902302,2344192.0,-11.355926472216971,0.4450719688658378,-0.7605050279821142,2347725.0,,,,,2350.264138720415,2346.731138720415,
138,35,24,f,1,3,130.0,16,4,low,7 + 6 - 9 + 8 - 3,9,7,8,9,2360.1530733997934,2362.178078399971,2363.6935936999507,2368.711991599994,2369.534042599844,2369.534048100002,2371.0503678999376,2372.0668436998967,e,9.0,0.8220509998500347,1,+1,626,-15.287402621037268,-0.17234397241334953,-0.0661011470440993,2357615.0,-4.530902385880278,-0.10422461654225756,-0.15115681516035462,2361150.0,,,,,2363.689138720415,2360.1541387204147,
139,35,24,f,1,3,131.0,17,2,low,2 + 1 + 9 - 4 + 1,9,11,9,8,2373.583491999889,2375.608862799825,2377.1239928998984,2382.141950599849,2382.7659376999363,2382.7659426999744,2384.282843799796,2385.299818599829,w,9.0,0.6239871000871062,1,+1,627,2.219873333095279,-0.19845274854423067,-0.41336858662974096,2371047.0,5.395130628821141,0.10840199181732846,-0.0614101286200075,2374580.0,,,,,2377.119138720415,2373.586138720415,
140,35,24,f,1,3,132.0,18,3,low,7 - 1 + 8 - 6 + 4,12,11,12,13,2386.816514099948,2388.8430408998397,2390.3583395998,2395.377158700023,2396.533988500014,2396.5339936998207,2398.0503140999936,2399.0673866998404,w,12.0,1.156829799991101,1,+1,628,-19.57156475893301,-0.2073079984496875,-0.13339069959187455,2384280.0,7.062852560046103,-0.1954793080969095,0.08588266951361234,2387815.0,,,,,2390.354138720415,2386.819138720415,
141,35,24,f,1,3,133.0,19,3,high,4 + 8 - 3 + 5 - 1,13,12,13,14,2400.5842674998567,2402.607289399952,2404.1219409999903,2409.140197699889,2410.133969899965,2410.133975100005,2411.650171199813,2412.6674943999387,w,13.0,0.9937722000759096,1,+10,638,-11.723429556084906,0.3511607953777709,0.07387944147236736,2398045.0,10.443924346345172,-0.021036836178463858,-0.3191343181627584,2401578.0,,,,,2404.117138720415,2400.584138720415,
142,35,24,f,1,3,134.0,20,1,low,7 + 1 + 5 + 1 - 1,13,13,14,12,2414.184214500012,2416.20866429992,2417.7239959000144,2422.743287699996,2423.53415169986,2423.5341570000164,2425.050824799808,2426.067848699866,q,13.0,0.7908639998640865,1,+1,639,-3.4053885119570975,0.14731563381983293,0.6290124354401367,2411646.0,15.78817742119399,-1.0419994871385159,-0.061365720292311465,2415180.0,,,,,2417.719138720415,2414.185138720415,
143,35,24,f,1,3,135.0,21,3,low,5 + 6 + 7 - 1 - 9,8,7,9,8,2427.5845884999726,2429.61176959984,2431.127163999947,2436.145449699834,2436.846020499943,2436.8460259998683,2438.3629288999364,2439.3794290998485,e,8.0,0.7005708001088351,1,+1,640,46.59373291661963,-0.3387384892919325,-0.058444568720556145,2425049.0,27.448354098001467,-0.7479081360266644,0.008299861522449437,2428583.0,,,,,2431.122138720415,2427.588138720415,
144,35,24,f,1,3,136.0,22,3,high,7 + 5 + 9 + 1 - 6,16,15,16,14,2440.8955045000184,2442.918848000001,2444.4340554999653,2449.452064699959,2449.9502446998376,2449.950249899877,2451.466636699857,2452.483981699916,w,16.0,0.49817999987863,1,+10,650,10.975176014358794,-0.5649333205397316,-0.1516671522082742,2438357.0,8.209591175658048,-1.4820921654400134,0.2553862286207784,2441890.0,,,,,2444.429138720415,2440.896138720415,
145,35,24,f,1,3,137.0,23,1,high,5 + 6 + 1 + 1 + 1,14,13,14,16,2454.000702999998,2456.0255215999205,2457.5404114997946,2462.558354399865,2463.0540372999385,2463.0540425998624,2464.570418599993,2465.587621100014,w,14.0,0.4956829000730067,1,+10,660,15.727107452933655,-1.631927754182393,-0.39415408326253987,2451463.0,8.16902144538728,-0.36246185666757746,-0.19887563102952077,2454995.0,,,,,2457.534138720415,2454.002138720415,
146,35,24,f,1,3,138.0,24,2,high,3 + 1 + 8 - 5 - 1,6,7,5,6,2467.105331399944,2469.1336613998283,2470.648957700003,2475.667075099889,2477.1820111998823,2477.182016499806,2478.6985529998783,2479.7159424999263,e,6.0,1.514936099993065,1,+10,670,12.861914757855741,0.6204790804882876,0.3134381598355751,2464571.0,-49.19160667259317,-2.260664136819768,-0.6389602082565862,2468104.0,,,,,2470.6431387204148,2467.110138720415,
147,35,24,f,1,3,139.0,25,4,high,7 + 6 - 9 + 8 - 3,9,9,7,8,2481.232693400001,2483.261111599859,2484.775993800024,2489.7946972998325,2490.550059999805,2490.5500651998445,2492.0664379999507,2493.08365509985,q,9.0,0.7553626999724656,1,+10,680,14.172590981965604,-0.7009862886110483,0.768582672692598,2478698.0,14.719628045990905,-8.32022358625366,-6.074072251053426,2482232.0,,,,,2484.771138720415,2481.237138720415,
148,35,24,f,1,3,140.0,26,2,low,5 + 8 + 1 - 1 + 9,22,22,23,21,2494.600750599988,2496.628400599817,2498.143480999861,2503.1616808997933,2503.8781627998687,2503.878168299794,2505.394557100022,2506.41220339993,q,22.0,0.7164819000754505,1,+1,681,22.19988546117853,-1.017659466186796,-0.7127983545649466,2492065.0,8.947459676049416,0.0029511165328957034,0.019658711665244244,2495599.0,,,,,2498.138138720415,2494.604138720415,
149,35,24,f,1,3,141.0,27,4,low,9 + 7 - 5 + 8 + 6,25,27,25,24,2507.928920599865,2509.9554117999505,2511.471135499887,2516.4911674999166,2517.9101507999003,2517.9101561999414,2519.426802099915,2520.443733099848,w,25.0,1.4189832999836651,1,+1,682,7.323717151731559,0.5996482500684799,0.005762593365527202,2505392.0,19.500748903152235,-0.20447461473977935,-0.4175758866017527,2508928.0,,,,,2511.467138720415,2507.9311387204148,
150,35,24,f,1,3,142.0,28,3,low,8 + 3 + 1 - 7 + 9,14,15,14,12,2521.960250099888,2523.9873889999,2525.50249679992,2530.521241399925,2531.07015689998,2531.070162500022,2532.586525199935,2533.6034553998616,w,14.0,0.5489155000541359,1,+1,683,10.915869996465439,0.4205700918292692,0.05740178142402508,2519424.0,-3.3851572719070653,-0.7986123163453032,-0.021388160719864047,2522958.0,,,,,2525.497138720415,2521.963138720415,
151,35,24,f,1,3,143.0,29,1,high,2 + 9 + 1 + 1 + 1,14,14,13,12,2535.1202119998634,2537.143418499967,2538.6584516000003,2543.6764624998905,2544.382209399948,2544.382214699872,2545.8988532999065,2546.9163317999337,q,14.0,0.7057469000574201,1,+10,693,-28.14359194916357,0.3322772000312515,-0.08390967026911866,2532580.0,4.726114682483176,-0.9193131857241239,-0.18634689086555722,2536113.0,,,,,2538.6521387204148,2535.119138720415,
152,35,24,f,1,3,144.0,30,4,high,5 + 6 - 4 + 7 + 9,23,23,24,25,2548.433157699881,2550.457072999794,2551.9723462997936,2556.990567100001,2557.758110499941,2557.7581157998648,2559.274688999867,2560.2918487999123,q,23.0,0.7675433999393135,1,+10,703,27.527772549664277,0.49615116328238784,0.13441778393592907,2545893.0,-0.2603584362165101,-0.5311837549923837,-0.27823859078785684,2549428.0,,,,,2551.967138720415,2548.432138720415,
153,35,24,f,1,3,145.0,31,3,low,8 + 6 - 7 + 1 - 4,4,5,3,4,2561.8083871998824,2563.835397699848,2565.350289199967,2570.3685917998664,2571.182140899822,2571.1821466998663,2572.6995899998583,2573.717488599941,e,4.0,0.8135490999557078,1,+1,704,21.07378514440122,1.0026112339497146,-0.03435690390118351,2559272.0,28.004778363857806,-0.5202410470594492,-0.014622602987556022,2562805.0,,,,,2565.344138720415,2561.811138720415,
154,35,24,f,1,3,146.0,32,4,high,9 + 3 - 5 + 8 + 6,21,19,21,23,2575.233861799817,2577.2587995999493,2578.7737032999285,2583.7928072998766,2584.494144999888,2584.4941501999274,2586.01082700002,2587.027824299876,w,21.0,0.7013377000112087,1,+10,714,3.8537255952383784,0.12191911494444696,5.4305720256074785,2572695.0,2.037117626889536,0.39488307611239826,0.1128140977306038,2576230.0,,,,,2578.769138720415,2575.234138720415,
155,35,24,f,1,3,147.0,33,1,high,6 + 1 + 1 + 9 - 1,16,16,15,14,2588.544901399873,2590.570763199823,2592.0859639998525,2597.103866999969,2597.9902219998185,2597.9902274999768,2599.5067737998907,2600.523816199973,q,16.0,0.8863549998495728,1,+10,724,-1.0997403935444616,-0.08896827712728594,0.3401918059314508,2586007.0,2.506266314172803,-0.765655722436029,-0.1828952908504533,2589540.0,,,,,2592.079138720415,2588.546138720415,
156,35,24,f,1,3,148.0,34,4,high,3 + 9 - 5 + 6 + 8,21,21,22,23,2602.040529299993,2604.06716169999,2605.582454899792,2610.6007812998723,2612.4862239998765,2612.4862292998005,2614.002896099817,2615.0202748999,q,21.0,1.885442700004205,1,+10,734,6.990768488406445,1.6014940783761134,-0.08447961791642644,2599504.0,0.5802260579499094,0.5922726497370245,0.03432358864266494,2603037.0,,,,,2605.5761387204147,2602.043138720415,
157,35,24,f,1,3,149.0,35,1,high,6 + 9 + 1 + 1 - 1,16,16,15,14,2616.5369771998376,2618.5617821998894,2620.077112399973,2625.095262199873,2625.750254899962,2625.750261399895,2627.266596799949,2628.284033499891,q,16.0,0.6549927000887692,1,+10,744,-11.320830171802823,0.6500125754806021,0.12200413276547017,2613998.0,-4.943336664732895,-0.46403289580171325,-0.05641390927289924,2617532.0,,,,,2620.071138720415,2616.537138720415,
158,35,24,f,1,3,150.0,36,1,high,7 + 1 + 4 + 1 - 1,12,14,13,12,2629.8008312999737,2631.826813000021,2633.342479999876,2638.360919500002,2639.102239699801,2639.102244999958,2640.618972599972,2641.636158099864,e,12.0,0.7413201997987926,1,+10,754,-0.5661617212438612,-0.07155620706614663,0.06635372930468186,2627263.0,-2.9154089345020715,0.3142888984303518,3.958342927134888,2630797.0,,,,,2633.336138720415,2629.802138720415,
159,35,24,f,1,3,151.0,37,3,low,2 + 9 - 3 + 4 + 1,13,14,13,11,2643.152822099859,2645.1795347000007,2646.694743299857,2651.7129184999503,2654.5662081998307,2654.566213599872,2656.0828366000205,2657.099686199799,w,13.0,2.8532896998804063,1,+1,755,-38.318619708574076,0.26016710396327003,0.12109337268001719,2640615.0,-1.160703547910333,-0.18265835081713355,-0.16269097385965514,2644149.0,,,,,2646.688138720415,2643.1541387204147,
160,35,24,f,1,4,152.0,0,1,high,8 + 1 + 4 + 1 + 1,15,16,14,15,2762.875019099796,2764.899799699895,2766.4147568999324,2771.4337135998067,2772.0384175998624,2772.038422900019,2773.554963999893,2774.5721930998843,e,15.0,0.60470400005579,1,+10,765,-8.076239900638882,-1.945758505488092,-1.0095522668263737,2760335.0,14.912250432082264,0.8970657462651022,0.18991134226971962,2763869.0,,,,,2766.408138720415,2762.874138720415,
161,35,24,f,1,4,153.0,1,2,high,6 + 1 + 1 + 7 - 9,6,8,4,6,2776.088965599891,2778.1163284999784,2779.6320453998637,2784.650334599893,2785.326406299835,2785.326414699899,2786.8439230998047,2787.860944399843,e,6.0,0.6760716999415308,1,+10,775,-16.17512045451026,-0.13078450124793495,-0.134464100495582,2773552.0,-25.52475677347129,-0.060000394423425085,-0.2222780166255367,2777086.0,,,,,2779.6251387204147,2776.091138720415,
162,35,24,f,1,4,154.0,2,3,high,6 + 1 + 8 + 7 - 9,13,13,15,14,2789.377782800002,2791.4033203998115,2792.9185365999583,2797.938344599912,2801.206334499875,2801.206339399796,2802.72325699986,2803.740082499804,q,13.0,3.2679898999631405,1,+10,785,20.468867113753202,0.6265248083787434,-0.08191938504244112,2786839.0,10.666634542649861,0.008943432816658436,-0.00015800328644610673,2790374.0,,,,,2792.9131387204147,2789.378138720415,
163,35,24,f,1,4,155.0,3,3,high,3 + 8 - 7 - 1 + 9,12,14,12,13,2805.2568502000067,2807.2810711998027,2808.7962970000226,2813.815043999813,2815.3743389998563,2815.374344300013,2816.89084909996,2817.9077595998533,w,12.0,1.5592950000427663,1,+10,795,-4.178778057225262,2.8832915857431693,-2.144616231634215,2802717.0,9.313378445908139,0.25211763979753776,-0.2698365198471038,2806250.0,,,,,2808.789138720415,2805.256138720415,
164,35,24,f,1,4,156.0,4,4,high,6 + 9 - 7 + 8 - 5,11,11,13,12,2819.4245395998005,2821.449851399986,2822.9652386999223,2827.9834811999463,2829.8144160998054,2829.8144219999667,2831.3310799999163,2832.3484717998654,q,11.0,1.8309348998591304,1,+10,805,29.55437313786896,-0.5344934943292952,-0.30660860046484917,2816885.0,-25.463620845681366,0.07002105444680584,-0.24385283021138005,2820419.0,,,,,2822.958138720415,2819.424138720415,
165,35,24,f,1,4,157.0,5,1,low,5 + 1 + 1 + 6 + 1,14,14,16,13,2833.865175999934,2835.891864300007,2837.407044599997,2842.424781400012,2843.038292599842,2843.03829759988,2844.5547222998,2845.571604499826,q,14.0,0.6135111998300999,1,+1,806,25.66267791486228,-0.03817478647927164,0.5821608014771651,2831328.0,-17.927765087334556,0.2215122774728604,0.012473040259518342,2834860.0,,,,,2837.399138720415,2833.867138720415,
166,35,24,f,1,4,158.0,6,2,low,2 + 1 + 9 - 4 + 1,9,8,9,11,2847.0884473000187,2849.11289089988,2850.628022299846,2855.647436299827,2856.270324199926,2856.270330199972,2857.786926999921,2858.8038925998844,w,9.0,0.6228879000991583,1,+1,807,8.709115111456015,-0.2924533283172206,-0.29716220240874414,2844548.0,31.604558190824818,0.32718721383395355,-0.27864860238146916,2848082.0,,,,,2850.621138720415,2847.0871387204147,
167,35,24,f,1,4,159.0,7,4,low,4 + 9 - 7 + 8 + 5,19,20,21,19,2860.320562899811,2862.347517799819,2863.862690599868,2868.8827638998628,2871.710387300001,2871.710392499808,2873.2267934998963,2874.2441399998497,w,21.0,2.827623400138691,0,+0,807,-8.477507388180541,-0.041930846602367566,0.1671209077432132,2857782.0,2.3490784452620783,-0.42446142215728333,-0.13590694210458887,2861318.0,,,,,2863.857138720415,2860.321138720415,
168,35,24,f,1,4,160.0,8,3,high,7 - 1 + 8 - 6 + 4,12,11,12,13,2875.7607470999938,2877.78752100002,2879.3025062999222,2884.322489499813,2884.7983728998806,2884.79837809992,2886.315377399791,2887.3325681998394,w,12.0,0.475883400067687,1,+10,817,-5.201891726003199,-0.12710147852318077,0.21884241009282457,2873222.0,25.85786573452479,0.2712230812137051,-0.09886577638361649,2876757.0,,,,,2879.296138720415,2875.761138720415,
169,35,24,f,1,4,161.0,9,3,high,3 + 8 + 1 + 5 - 9,8,9,7,8,2888.849123499822,2890.872213299852,2892.3873715000227,2897.405483499868,2902.150432099821,2902.150437699864,2903.667072399985,2904.684318399988,e,8.0,4.744948599953204,1,+10,827,8.454135127088918,-0.3577051373021298,0.09459464771227122,2886307.0,-7.348215811467127,-0.16292928890770497,-0.05303801308171119,2889840.0,,,,,2892.379138720415,2888.8461387204147,
170,35,24,f,1,4,162.0,10,1,low,7 + 1 + 6 + 1 + 1,16,16,18,17,2906.2010377999395,2908.227385999868,2909.7427192998584,2914.760350199882,2915.4547422998585,2915.454747499898,2916.97122940002,2917.9878632999025,q,16.0,0.6943920999765396,1,+1,828,-9.939930484741861,-21.03053340863615,-28.232279389856302,2903662.0,-11.622793726943895,-0.3032211463296717,-0.30487946344845396,2907195.0,,,,,2909.734138720415,2906.2011387204147,
171,35,24,f,1,4,163.0,11,3,low,3 - 7 + 5 + 1 + 9,11,13,12,11,2919.5047477998305,2921.529967099894,2923.045239500003,2928.064102299977,2929.40731099993,2929.40731709986,2930.923863099888,2931.940952799981,e,11.0,1.343208699952811,1,+1,829,-14.41084640547863,0.35915642980189677,-0.03570242501836152,2916965.0,-27.400998680619434,0.6004294465969933,0.08242921178491436,2920499.0,,,,,2923.0381387204147,2919.504138720415,
172,35,24,f,1,4,164.0,12,4,high,8 + 3 - 4 + 5 + 9,21,21,23,22,2933.4569904999807,2935.4799751997925,2936.99498399999,2942.012983399909,2943.0305001998786,2943.03050559992,2944.546926099807,2945.5642047999427,q,21.0,1.0175167999695989,1,+10,839,-3.48173523851396,1.462982125792017,0.2881915829019661,2930914.0,-7.56543836057071,0.09861050856390463,-0.2791823409012588,2934448.0,,,,,2936.987138720415,2933.453138720415,
173,35,24,f,1,4,165.0,13,2,low,9 + 1 + 6 + 7 + 1,24,23,24,25,2947.0811269998085,2949.105795599986,2950.620683899848,2955.6386262997985,2956.2705410998315,2956.270546299871,2957.787194099976,2958.804144299822,w,24.0,0.6319148000329733,1,+1,840,10.442275638581659,-0.81937529990023,0.09136842098582143,2944541.0,-28.66690070999128,-0.44408339748994585,-0.22226079882954775,2948073.0,,,,,2950.612138720415,2947.080138720415,
174,35,24,f,1,4,166.0,14,3,high,2 + 9 + 1 - 5 + 7,14,15,14,12,2960.320603299886,2962.3490820999723,2963.863941999851,2968.8820542998146,2969.494449699996,2969.4944546998013,2971.0110739998054,2972.0282836998813,w,14.0,0.6123954001814127,1,+10,850,13.539026430181774,0.2083465116324117,-0.18177701754148679,2957784.0,-83.30315176314875,0.0021353042500527053,0.0631211805218661,2961317.0,,,,,2963.856138720415,2960.323138720415,
175,35,24,f,1,4,167.0,15,2,low,8 + 1 + 9 + 1 - 4,15,15,14,16,2973.544970999937,2975.57017620001,2977.085543999914,2982.1047487999317,2983.3986380000133,2983.39864319982,2984.915177399991,2985.931973599829,q,15.0,1.2938892000820488,1,+1,851,-3.458681906881406,-0.13965417407594138,0.053634721751398384,2971005.0,-23.12876959085581,-0.2353667988175614,0.08433868819651957,2974539.0,,,,,2977.078138720415,2973.544138720415,
176,35,24,f,1,4,168.0,16,1,high,7 + 1 + 4 + 1 - 1,12,12,13,11,2987.4488678998314,2989.475587599911,2990.9908604999077,2996.0092148999684,2996.574501299998,2996.574506999925,2998.091075999895,2999.1083430999424,q,12.0,0.5652864000294358,1,+10,861,4.948048604403274,-15.852054560997708,-6.518811650618156,2984910.0,-12.745859181923063,0.4422023602637095,-0.7803624489481695,2988443.0,,,,,2990.982138720415,2987.449138720415,
177,35,24,f,1,4,169.0,17,1,low,3 + 1 + 9 + 1 - 1,13,13,12,14,3000.624807599932,3002.650459599914,3004.16562889982,3009.184779000003,3009.8064991999418,3009.8065039999783,3011.3228250998072,3012.3408494999167,q,13.0,0.6217201999388635,1,+1,862,-4.803186259394373,0.10304573281415763,0.041342815708126146,2998085.0,-42.448673949823984,-0.5968419377371745,0.1930676616158873,3001619.0,,,,,3004.158138720415,3000.624138720415,
178,35,24,f,1,4,170.0,18,3,low,6 + 7 + 8 + 1 - 9,13,13,15,14,3013.857681499794,3015.885422799969,3017.4002998999786,3022.4186395998117,3023.0945099999662,3023.094515499892,3024.6110486998223,3025.6280149999075,q,13.0,0.6758704001549631,1,+1,863,-9.353533410652865,-1.1525120863515035,0.1722359068808248,3011319.0,-1.8266081167308652,15.169993546121793,13.21510197296118,3014853.0,,,,,3017.392138720415,3013.858138720415,
179,35,24,f,1,4,171.0,19,4,high,3 + 8 - 7 + 9 - 5,8,9,8,7,3027.1441124998964,3029.169949099887,3030.6852474999614,3035.7040316998027,3037.3744496,3037.374454399804,3038.891104199924,3039.908208699897,w,8.0,1.670417900197208,1,+10,873,-2.2749460749050883,0.5740419021591627,0.15523456496264632,3024604.0,13.6927786168662,-0.9676268886986144,0.18363434086797215,3028138.0,,,,,3030.677138720415,3027.1431387204148,
180,35,24,f,1,4,172.0,20,2,high,2 + 9 + 1 + 1 - 5,8,8,7,6,3041.4248060998507,3043.45063639991,3044.966241899878,3049.984550999943,3052.278531499905,3052.278536499944,3053.794949800009,3054.81215789984,q,8.0,2.2939804999623448,1,+10,883,9.73884530568235,0.09579997184726796,-0.0691776826002779,3038885.0,-15.693143876141681,-0.21339449377292485,0.009227735699226303,3042418.0,,,,,3044.957138720415,3041.424138720415,
181,35,24,f,1,4,173.0,21,2,high,2 + 9 - 4 + 1 + 1,9,9,8,11,3056.329121199902,3058.3547724999958,3059.8698928998783,3064.888404499972,3065.494596099946,3065.494601499988,3067.011387999868,3068.02862599981,q,9.0,0.6061915999744087,1,+10,893,3.1679830362796864,0.5699811616446624,-0.09622520904104026,3053789.0,-10.421820455448842,0.8870615047921397,1.7097503373587823,3057322.0,,,,,3059.861138720415,3056.328138720415,
182,35,24,f,1,4,174.0,22,2,high,7 + 6 + 1 + 8 + 1,23,21,23,22,3069.5454671999905,3071.5695157998707,3073.0848009998444,3078.10290739988,3078.8145329998806,3078.8145379999187,3080.3312803998124,3081.348497899948,w,23.0,0.7116256000008434,1,+10,903,-19.418684560287602,0.8365026495694874,-0.41256856509157513,3067004.0,5.673115390652032,0.7189996689850622,-0.4399743895519954,3070537.0,,,,,3073.0761387204147,3069.543138720415,
183,35,24,f,1,4,175.0,23,3,low,7 - 5 + 9 + 1 - 4,8,7,9,8,3082.865150899859,3084.8901408999227,3086.405159499962,3091.424170800019,3091.966557199834,3091.9665624999907,3093.4831304999534,3094.500097299926,e,8.0,0.542386399814859,1,+1,904,-1.9383862286917681,0.4153360123210863,0.11036650370118473,3080324.0,26.98457631721853,-0.2700579842632953,0.7174804194885107,3083857.0,,,,,3086.396138720415,3082.863138720415,
184,35,24,f,1,4,176.0,24,1,low,4 + 9 + 1 - 1 - 1,12,11,13,12,3096.016899299808,3098.043704999844,3099.5588241999503,3104.5781166998204,3105.2465609000064,3105.246565899812,3106.762964399997,3107.779810299864,e,12.0,0.6684442001860589,1,+1,905,8.167338657993671,-0.8055743282431305,0.0028689682575686604,3093477.0,-4.69750795371719,-0.8246753753578826,-0.10658069087250066,3097012.0,,,,,3099.551138720415,3096.016138720415,
185,35,24,f,1,4,177.0,25,2,low,7 + 8 + 1 + 9 + 1,26,24,25,26,3109.29708639998,3111.324863899965,3112.840179499937,3117.8585929998662,3119.470546899829,3119.4705519999843,3120.9877964998595,3122.0041248998605,e,26.0,1.6119538999628276,1,+1,906,-25.993133624303184,0.08092345447406935,-0.4715227154267465,3106758.0,-10.465178391340745,-0.1390571889475627,0.12961050105587857,3110292.0,,,,,3112.831138720415,3109.2971387204148,
186,35,24,f,1,4,178.0,26,1,high,5 + 1 + 1 + 9 + 1,17,19,17,16,3123.520890599815,3125.548722999869,3127.0636096999515,3132.081869399873,3133.350703999866,3133.350709100021,3134.86722629983,3135.8842533999123,w,17.0,1.2688345999922603,1,+10,916,-31.02256865950599,-0.938514657969483,0.0856695618986687,3120982.0,24.895263760399708,1.0841051049429797,-1.010099315415863,3124515.0,,,,,3127.054138720415,3123.521138720415,
187,35,24,f,1,4,179.0,27,2,low,8 + 1 + 4 - 7 + 1,7,7,5,6,3137.4014170998707,3139.428587799892,3140.943171699997,3145.962248199852,3147.542704899796,3147.5427107999567,3149.0597845998127,3150.076641399879,q,7.0,1.58045669994317,1,+1,917,-5.655965903318148,-0.5736202288662398,-0.0807926949111688,3134862.0,-18.739025978067442,-0.25987881665736,-0.09895672067166927,3138396.0,,,,,3140.935138720415,3137.401138720415,
188,35,24,f,1,4,180.0,28,3,high,5 + 1 + 7 - 8 + 6,11,9,11,13,3151.5934770000167,3153.6201779998373,3155.1356649999507,3160.155894299969,3160.614627999952,3160.6146335999947,3162.1320245999377,3163.1494853999466,w,11.0,0.4587336999829858,1,+10,927,6.616316129680936,-0.12885013002788437,0.06679630162949568,3149054.0,15.2826997600583,-0.411718880155477,0.2630068885354424,3152589.0,,,,,3155.128138720415,3151.593138720415,
189,35,24,f,1,4,181.0,29,3,high,6 - 1 + 7 - 8 + 9,13,11,12,13,3164.665902699809,3166.6899170000106,3168.2051536999643,3173.223745399853,3174.4066976998,3174.4067034998443,3175.922886099899,3176.940116300015,e,13.0,1.182952299946919,1,+10,937,3.9005073331547457,-0.0850529756041638,1.711454011232377,3162124.0,8.88571795358153,0.04562566612703378,-0.11486301054747061,3165657.0,,,,,3168.196138720415,3164.6631387204147,
190,35,24,f,1,4,182.0,30,4,high,7 + 8 - 4 + 6 + 5,22,23,22,21,3178.4569262999576,3180.4813739999663,3181.996659999946,3187.015468599973,3187.6467110000085,3187.646716399817,3189.163408000022,3190.181016899878,w,22.0,0.6312424000352621,1,+10,947,-7.3691779504650174,-14.770178840217843,-9.904129614858157,3175915.0,16.699068120816893,0.48483603174187984,-0.17781306648187556,3179448.0,,,,,3181.987138720415,3178.454138720415,
191,35,24,f,1,4,183.0,31,1,high,7 - 1 + 9 + 1 - 1,15,13,15,14,3191.6981736999005,3193.724091599928,3195.239348199917,3200.2575885998085,3200.85532089998,3200.855326599907,3202.371475099819,3203.388960100012,w,15.0,0.5977323001716286,1,+10,957,16.019087733797214,0.22716997247042503,0.1750496536543702,3189157.0,-12.298730520571585,1.0302983468991957,0.5338353910089628,3192691.0,,,,,3195.2301387204147,3191.696138720415,
192,35,24,f,1,4,184.0,32,3,high,2 - 4 + 9 + 7 + 1,15,15,16,13,3204.9059017999098,3206.93272339995,3208.447774299886,3213.4664390999824,3214.262786799809,3214.262791999849,3215.779187100008,3216.7964957999066,q,15.0,0.7963476998265833,1,+10,967,-53.949649706667344,-1.4500671349313619,0.36946302640423845,3202366.0,13.617324890628794,-1.0394887944818354,0.06902411726028435,3205899.0,,,,,3208.438138720415,3204.905138720415,
193,35,24,f,1,4,185.0,33,3,low,7 + 1 + 9 + 5 - 6,16,14,15,16,3218.3131100998726,3220.3400460998528,3221.8552262999583,3226.873222999973,3228.254767099861,3228.254772400018,3229.7712768998463,3230.7881297999998,e,16.0,1.381544099887833,1,+1,968,33.344901672444706,0.06350148222671326,-0.009819620977765453,3215773.0,8.973660454115132,-0.46119004966049815,-0.25611687776548786,3219307.0,,,,,3221.8461387204147,3218.312138720415,
194,35,24,f,1,4,186.0,34,2,high,5 + 7 - 8 + 1 + 1,6,7,8,6,3232.304866099963,3234.33244859986,3235.848173399921,3240.866274199914,3241.534691500012,3241.5346965999343,3243.0508047998883,3244.067878099857,e,6.0,0.6684173000976443,1,+10,978,-14.251518451293007,0.5013688203149309,0.14211736933825314,3229765.0,-12.929457275059786,-0.16553769629626558,-0.030983952073432963,3233299.0,,,,,3235.838138720415,3232.304138720415,
195,35,24,f,1,4,187.0,35,2,high,6 + 1 + 1 + 7 - 9,6,8,4,6,3245.5848517999984,3247.607598299859,3249.122669799952,3254.1413105998654,3255.646762999939,3255.64676839998,3257.1633416998666,3258.180510899984,e,6.0,1.505452400073409,1,+10,988,19.46065761646283,-1.0669361197674263,0.4575808345032981,3243041.0,5.705139074124867,-5.577992704143794,-14.525833867989311,3246574.0,,,,,3249.113138720415,3245.580138720415,
196,35,24,f,1,4,188.0,36,3,low,7 - 6 + 8 + 1 + 7,17,17,16,15,3259.6979759999085,3261.726656100014,3263.2418616998475,3268.26007079985,3269.2706585999117,3269.270663899835,3270.786747899838,3271.8036700999364,q,17.0,1.0105878000613302,1,+1,989,-1.3526929590699126,-1.8993213932864075,-3.031338302181022,3257159.0,3.634114396672068,0.8819827537186535,-0.3482071583900459,3260693.0,,,,,3263.232138720415,3259.698138720415,
197,35,24,f,1,4,189.0,37,3,low,4 + 1 + 8 + 9 - 5,17,17,18,19,3273.3202343999874,3275.34336859989,3276.858408899978,3281.87712249998,3282.454841699917,3282.4548468999565,3283.971015600022,3284.9880525998306,q,17.0,0.577719199936837,1,+1,990,27.36041039960069,0.010645168628895973,0.7404361871620404,3270776.0,31.703504228970253,-4.7391472614630725,-2.3327046810590097,3274310.0,,,,,3276.849138720415,3273.315138720415,
198,35,24,f,1,5,190.0,0,3,high,5 + 7 + 1 - 4 + 6,15,15,13,17,3359.571296399925,3361.59755379986,3363.112909999909,3368.133289599791,3368.718919300009,3368.718924999936,3370.235307799885,3371.252807599958,q,15.0,0.585629700217396,1,+10,1000,13.578120035081724,3.623087142915864,10.54928443511698,3357030.0,-9.7135891544572,0.19191147972277633,-0.15254979946081582,3360565.0,,,,,3363.104138720415,3359.569138720415,
199,35,24,f,1,5,191.0,1,1,high,6 + 1 + 8 + 1 + 1,17,15,16,17,3372.7696387998294,3374.791908700019,3376.3068379999604,3381.3250193998683,3382.1988136,3382.1988194999285,3383.7152815000154,3384.732393499929,e,17.0,0.8737942001316696,1,+10,1010,7.770117247377159,0.3218709680832408,0.0008449519330580024,3370224.0,-4.59827621765511,-0.6929436687491872,0.0829513669168227,3373757.0,,,,,3376.296138720415,3372.763138720415,
