,id,age,sex,cued,block,trial,trialinblock,efflev,rewlev,calc,corAns,option1,option2,option3,tstart,ITI1Time,probTime,respTime,selectTime,ITI2Time,fbTime,ITI3Time,key_press,chosenAns,RT,acc,feedback,total_points,cuescr,cuecor,cuezyg,cuetime,probscr,probcor,probzyg,probtime,fbscr,fbcor,fbzyg,fbtime,probtime_c,cuetime_c,fbtime_c
0,36,24,F,0,Practice,,0,1,0,4 + 1 + 9 + 1 + 1,16,16,14,15,26.83912799996324,,26.83913019997999,31.893609100021425,36.13944899989292,36.13945519994013,37.65663870004937,38.677410000003874,q,16,4.245839899871498,1,Correct,0,,,,,29.418600110018936,-0.0805655868062427,0.07235939370054956,25859.0,25.033922661335808,-0.579721986859699,1.1420261021252465,36644.0,26.881932217454146,,37.66693221745414
1,36,24,F,0,Practice,,1,1,0,3 + 1 + 1 + 8 - 1,12,10,12,11,40.19402679987252,,40.19402999989688,45.21487420005724,46.37934360001236,46.37935029994696,47.89639899996109,48.91555669996888,w,12,1.1644693999551237,1,Correct,0,,,,,9.465185717626772,-0.2825110970218443,0.08935224338455416,39181.0,16.624854119201835,-0.1250361118701777,-0.11898713044868336,46881.0,40.20393221745414,,47.90393221745414
2,36,24,F,0,Practice,,2,2,0,8 + 1 + 6 + 1 - 4,12,10,11,12,50.43333030003123,,50.43333570007235,55.45318459998816,56.07531489990652,56.07532069995068,57.59230719995685,58.61048769997433,e,12,0.6221302999183536,1,Correct,0,,,,,-34.741008678458485,0.1286844877415474,-0.8129875533435373,49419.0,-16.88020269774589,-2.0480050235466774,-0.03398284468937929,56577.0,50.44193221745414,,57.59993221745414
3,36,24,F,0,Practice,,3,2,0,9 + 4 - 6 + 1 - 1,7,7,6,5,60.128663199953735,,60.128665999975055,65.14969199988991,65.73132309992798,65.7313284999691,67.24784439988434,68.26503279991448,q,7,0.5816311000380665,1,Correct,0,,,,,8.276174229659086,0.01566699770564739,0.03898300031023427,59115.0,-18.375901178927414,0.08453403183303276,-0.19109926642248243,66231.0,60.13793221745414,,67.25393221745414
4,36,24,F,0,Practice,,4,3,0,9 + 3 - 5 + 6 + 7,20,20,21,22,69.78190259984694,,69.78190529998392,74.80103099998087,75.41942369984463,75.41943000000902,76.93607479985803,77.95311639993452,q,20,0.6183926998637617,1,Correct,0,,,,,29.73450017233234,3.435351381649774,3.0353004059417694,68767.0,4.93759379726248,-0.21339859645800185,-0.036600105376378256,75919.0,69.78993221745414,,76.94193221745414
5,36,24,F,0,Practice,,5,3,0,2 + 1 + 9 - 7 + 6,11,9,11,10,79.46993849985301,,79.46994139999151,84.48915189993568,84.99546510004438,84.99547129985876,86.51278969994746,87.53124909987673,w,11,0.506313200108707,1,Correct,0,,,,,10.61160074053224,0.06052999308797791,0.04167089806232971,78455.0,-23.808196467421812,0.4950474142416965,-0.1893486797654318,85497.0,79.47793221745414,,86.51993221745414
6,36,24,F,0,Practice,,6,4,0,4 + 8 + 5 - 3 + 7,21,22,23,21,89.04858259996399,,89.04858549986966,94.06918870005757,94.683488199953,94.68349449988456,96.20016420003958,97.21849190001376,e,21,0.6142994998954237,1,Correct,0,,,,,17.95159506523833,0.09259903137508196,-0.007831443430016627,88035.0,-8.99691459452222,-0.04476745750843314,-0.13712677949359242,95184.0,89.05793221745414,,96.20693221745414
7,36,24,F,0,Practice,,7,4,0,5 + 8 - 4 + 6 + 9,24,23,22,24,98.73573129996656,,98.73573419987224,103.7555188999977,104.2753773999866,104.27538320003076,105.79233159986325,106.81304999999702,q,23,0.5198584999889135,0,Incorrect,0,,,,,4.724994542019168,-0.6634087602280765,0.24482153486606384,97722.0,5.393523390555571,1.4904244307674004,0.19243920140579984,104779.0,98.74493221745414,,105.80193221745414
8,36,24,F,1,0,0.0,0,1,high,2 + 9 + 1 + 1 + 1,14,14,13,12,166.38545229984447,168.42522149998695,169.94049509987235,174.9587421999313,175.97711029998027,175.97711510001682,177.49369599996135,178.51099089998752,q,14,1.0183681000489742,1,+10,10,32.32295368099048,-0.10602760024614799,3.627188566924633,165391.0,4.713115952321582,-3.2611470632879414,-0.06625221044059648,168924.0,1.9813998470151049,-0.04112815867115316,0.11929059883071003,436283.0,169.94693221745416,166.41393221745415,437.30593221745414
9,36,24,F,1,0,1.0,1,2,low,4 + 9 - 7 + 1 - 1,6,5,8,6,180.0278445999138,182.0588368999306,183.57418209989555,188.5927053999621,189.19317290000615,189.19317790004425,190.70950679993257,191.72701120004055,e,6,0.6004675000440329,1,+1,11,-28.41825608997379,0.5288381086136518,-0.051894018880434434,179023.0,1.4572295422370498,0.4015803930090378,0.10951837415675758,182558.0,1.217274421209627,0.18992978107063507,0.008553403171575269,311219.0,183.58093221745415,180.04593221745415,312.2419322174541
10,36,24,F,1,0,2.0,2,1,high,3 + 1 + 8 + 1 + 1,14,13,12,14,193.24390090000816,195.27099450002424,196.7864069000352,201.80442609987225,202.3692441000603,202.36924959998575,203.8858137000352,204.9031066999305,e,14,0.5648180001880974,1,+10,21,-2.231798116090954,-0.8797667267132061,0.001972020361942217,192236.0,-27.28786271711163,0.057594835888528095,0.06876441968371427,195770.0,1.753323876515406,-0.25770633642881613,-0.00486453695026734,991682.0,196.79293221745417,193.25893221745415,992.7049322174541
11,36,24,F,1,0,3.0,3,1,high,7 + 1 + 4 + 1 - 1,12,13,12,11,206.4198638999369,208.44453569990583,209.9607116999105,214.978978500003,215.45720910001543,215.4572139999364,216.97405579988845,217.9915144999977,w,12,0.4782306000124663,1,+10,31,12.917672639520218,0.1040405004637428,-0.10706763489375959,205410.0,1.7694172008388005,-1.1541390049159261,0.0230940629892058,208944.0,,,,,209.96693221745414,206.43293221745415,
12,36,24,F,1,0,4.0,4,4,low,8 + 5 - 4 + 7 + 9,25,25,26,24,219.5083252999466,221.5542051999364,223.06948159984316,228.08984129992317,230.14520979998636,230.14521520002745,231.6616094999481,232.67865690006877,q,25,2.055368500063196,1,+1,32,3.066850896118609,0.7968694244392287,-0.04639471359621883,218519.0,14.581550934465124,0.7116135514118289,0.04162084607551586,222055.0,15.14150779513421,1.2751446216239328,0.07356214011374629,855042.0,223.07793221745416,219.54193221745416,856.0649322174542
13,36,24,F,1,0,5.0,5,4,low,2 + 9 - 3 + 5 + 8,21,22,21,23,234.1955375999678,236.2194647998549,237.73470170004293,242.753207199974,243.3132447998505,243.31324990000576,244.82988359988667,245.84683429985307,w,21,0.560037599876523,1,+1,33,5.839801051515931,0.5187615978899123,0.129506882589129,233185.0,44.90316691949209,0.7744429008425815,0.09641743544558201,236718.0,9.899888058843128,1.3491563216742213,0.04416087486734632,935065.0,237.74093221745414,234.20793221745416,936.0879322174542
14,36,24,F,1,0,6.0,6,2,high,4 + 9 + 1 - 7 - 1,6,5,8,6,247.363600499928,249.4061751998961,250.921315100044,255.93983499985188,257.64127009990625,257.6412750999443,259.15789979998954,260.17511259997264,e,6,1.7014351000543684,1,+10,43,-17.256326735401036,4.199979165103511,4.678375796419696,246371.0,28.155376405618274,0.5825372860865432,-0.11801159541909945,249905.0,-0.7504743606439597,-0.3727886443486481,0.20521855829512092,869305.0,250.92793221745416,247.39393221745416,870.3279322174541
15,36,24,F,1,0,7.0,7,1,low,4 + 1 + 1 + 7 - 1,12,13,14,12,261.69278410007246,263.72092840005644,265.23606149991974,270.255923199933,270.7212703998666,270.7212759000249,272.23793229996227,273.25462919985875,e,12,0.4653471999336034,1,+1,44,-14.351708837160714,-0.07201777760748396,-0.007565152077648296,260686.0,-7.853993998658659,-0.1565663053722819,-0.26327743572775564,264221.0,,,,,265.24393221745413,261.7089322174541,
16,36,24,F,1,0,8.0,8,4,high,9 + 3 - 5 + 8 + 6,21,23,21,19,274.7716612999793,276.80246470007114,278.3175440998748,283.3359199999832,283.9532103999518,283.95321519998834,285.46978139993735,286.48711059987545,w,21,0.6172903999686241,1,+10,54,-16.528581607749544,-1.3448007900354,-0.8882814799525409,273767.0,4.900793234107539,0.5721804190310209,-0.25495186944890413,277301.0,7.020628423745028,1.0799968060778768,0.0711764272436306,948201.0,278.3239322174541,274.7899322174541,949.2239322174541
17,36,24,F,1,0,9.0,9,4,low,5 + 7 - 4 - 6 + 9,11,11,13,12,288.0046127999667,290.03136090002954,291.5465885999147,296.56534019997343,297.1531918998808,297.1531972999219,298.6696905000136,299.6868704999797,q,11,0.5878516999073327,1,+1,55,-16.4866242908698,1.4795471740618762,0.14329576126878685,286996.0,-0.8707284627424663,-0.01847113576282755,0.08354527203304274,290530.0,9.22230478637979,0.5909458839799893,-0.0024268898686456986,975033.0,291.5529322174541,288.0189322174541,976.0559322174541
18,36,24,F,1,0,10.0,10,2,low,9 + 6 + 1 + 7 + 1,24,23,24,25,301.2041529000271,303.2313723000698,304.7463382000569,309.76409399998374,310.72128019994125,310.7212855999824,312.2369021999184,313.2540102000348,q,23,0.9571861999575048,0,+0,55,11.08344585208293,1.5489784784606462,1.7407533602271847,300196.0,13.571510584873572,1.044778315186469,-0.201269426672392,303729.0,34.001794328036496,0.489744382072697,0.05510383596996826,961289.0,304.7519322174541,301.21893221745415,962.3119322174541
19,36,24,F,1,0,11.0,11,2,high,4 + 9 - 7 + 1 - 1,6,6,8,5,314.7704163000453,316.7968949000351,318.3123141999822,323.33097000001,323.84137549996376,323.84138039988466,325.3580139998812,326.3756337999366,q,6,0.5104054999537766,1,+10,65,14.822342718396387,0.39259760710267066,0.16956482944834095,313762.0,15.355693028610226,0.7277521589552061,-0.09763917955632806,317296.0,-8.018412140530565,-0.4837301767455964,0.051189166296646604,1191351.0,318.3189322174541,314.7849322174541,1192.3739322174542
20,36,24,F,1,0,12.0,12,3,high,7 + 1 + 9 + 5 - 6,16,14,16,15,327.8928673998453,329.94205549987964,331.4572584000416,336.4757417999208,339.6973208000418,339.69732599984854,341.21388239995576,342.23105569998734,e,15,3.2215790001209825,0,+0,65,35.59232697926214,0.8680120268932763,0.0538862012120811,326907.0,1.593635791035442,0.691655124575485,0.07531220224984425,330440.0,-0.7485980456325763,-0.15709734010075316,0.2206315650566184,340196.0,331.4629322174541,327.9299322174541,341.21893221745415
21,36,24,F,1,0,13.0,13,3,low,6 + 8 + 7 + 1 - 9,13,15,13,14,343.74824439990334,345.7967290999368,347.31181399989873,352.33060289989226,353.40130509994924,353.4013107998762,354.91814889991656,355.93490720004775,w,13,1.070702200056985,1,+1,66,18.526475498866073,1.2220817751064348,0.13207872620117866,342761.0,9.355579625061832,1.1770252480755419,0.01024972369731536,346295.0,-15.132649093213416,0.5569811024136282,-0.15995192003622938,1148840.0,347.31793221745414,343.78393221745415,1149.862932217454
22,36,24,F,1,0,14.0,14,3,high,4 + 5 - 3 + 7 - 1,12,11,12,13,357.4519700999372,359.4736597998999,360.9892770999577,366.0078934999183,366.4892824999988,366.4892871999182,368.0055307999719,369.022666899953,w,12,0.4813890000805259,1,+10,76,-11.543431790097392,0.6210695774122392,0.06264116685785881,356438.0,14.855150614827737,0.8796316402154765,-0.0076005636497864515,359972.0,59.283003760789526,-0.043842740451762285,-0.1835289889905125,1531414.0,360.9949322174541,357.4609322174541,1532.4369322174541
23,36,24,F,1,0,15.0,15,1,low,2 + 1 + 9 + 1 + 1,14,12,14,13,370.53966669994406,372.5624386998825,374.0773455000017,379.0958829999436,380.4652527999133,380.4652579000685,381.98163369996473,382.9983846000396,w,14,1.369369799969718,1,+1,77,-12.605366599167295,0.7965199144531336,0.05784197926332024,369527.0,36.29058833742534,0.45188366332638363,-0.19642066943512404,373060.0,,,,,374.08293221745413,370.5499322174541,
24,36,24,F,1,0,16.0,16,2,high,7 + 6 + 1 - 1 - 8,5,5,4,3,384.5151533999015,386.5424711999949,388.05739259999245,393.075978100067,393.60936759994365,393.6093727999833,395.1259093999397,396.14307729993016,q,5,0.5333894998766482,1,+10,87,-7.186723632571461,0.7452277750691616,1.450609693386379,383507.0,-7.908478222759221,-1.4708767839065064,-1.805355479428293,387040.0,-43.35519467735809,-0.47841012140321393,0.21924850913982263,2449290.0,388.06293221745415,384.52993221745413,2450.312932217454
25,36,24,F,1,0,17.0,17,1,low,5 + 8 - 1 + 1 + 1,14,12,16,14,397.65967489988543,399.68658059998415,401.20171299995854,406.22005379991606,406.7853121999651,406.7853168998845,408.3017893999349,409.31898449989967,e,14,0.5652584000490606,1,+1,88,23.372155814458843,0.21703176575504335,-0.07545166805032322,396651.0,-27.13743805771824,0.03224787053841638,-0.036224497401757816,400184.0,,,,,401.20693221745415,397.67393221745414,
26,36,24,F,1,0,18.0,18,2,low,3 + 1 + 8 - 5 - 1,6,5,6,7,410.83566390001215,412.86173580004834,414.3770677999128,419.3965574998874,419.8253911000211,419.8253961000592,421.34163759998046,422.3587338998914,w,6,0.4288336001336574,1,+1,89,-8.95313797144375,0.8222658919641885,0.41652853863692774,409826.0,-48.330668563104304,0.49611148505004543,-0.020760028800219654,413361.0,,,,,414.3839322174541,410.84893221745415,
27,36,24,F,1,0,19.0,19,1,low,8 + 1 + 1 - 1 - 4,5,5,6,3,423.8753323999699,425.9022746998817,427.4173542000353,432.435335899936,435.7854587000329,435.7854643999599,437.30199189996347,438.3197492000181,w,6,3.350122800096869,0,+0,89,17.932549089273486,-0.14162517050989676,0.05877456564760353,422866.0,-9.718935111345402,-0.14292488283852123,0.060430467129200416,426400.0,,,,,427.4229322174541,423.8889322174541,
28,36,24,F,1,0,20.0,20,3,high,4 + 8 - 9 + 1 + 7,11,9,11,13,439.8365541000385,441.8641301000025,443.37980829994194,448.39828159986064,448.8013066998683,448.8013116999064,450.3178673000075,451.3352117000613,w,11,0.4030251000076532,1,+10,99,-20.97231086875452,0.5555836521710122,-0.008459544741946434,438828.0,17.548384287501598,0.08647620799902134,-0.014739493780731472,442362.0,9.923971274783943,-0.601082957553781,-0.08942641620527536,1737061.0,443.38493221745415,439.8509322174541,1738.083932217454
29,36,24,F,1,0,21.0,21,4,high,9 + 4 - 6 + 8 + 7,22,22,21,24,452.8519222000614,454.87560579995625,456.3909962000325,461.40947119984776,461.96147889993154,461.96148409997113,463.4780983000528,464.4953465000726,q,22,0.5520077000837773,1,+10,109,-27.443999948495392,0.7409817373954835,-0.07046539917937178,451840.0,-16.060545396635433,0.23606700906042555,-0.05758682822222516,455373.0,11.435048295988473,-0.49533553672288555,0.05699393541442754,1545854.0,456.3959322174541,452.8629322174541,1546.8769322174542
30,36,24,F,1,0,22.0,22,3,low,4 + 7 + 1 + 9 - 5,16,17,16,18,466.0120433999691,468.0382331998553,469.5533686999697,474.5718844998628,479.2014325999189,479.2014380998444,480.71810869988985,481.73498309985735,w,16,4.629548100056127,1,+1,110,-56.384898991836124,0.6370202030562089,0.2814358573433937,465002.0,34.38571753796092,1.188564239283067,0.04303908164979875,468536.0,21.484596411576366,-2.1477255915600417,-0.03449435542448409,2042299.0,469.5589322174541,466.02493221745414,2043.321932217454
31,36,24,F,1,0,23.0,23,4,high,9 + 8 - 5 - 7 + 6,11,11,10,13,483.2523129999172,485.2788382999133,486.79376629996113,491.8139990000054,493.2254907998722,493.2254959999118,494.74190739984624,495.7587383000646,q,11,1.4114917998667806,1,+10,120,-1.6217061898592298,0.9113026887141746,0.1296198874944059,482243.0,11.656783585687755,0.10774974867617004,-0.41268170739532195,485778.0,-18.159056382455947,-0.5090280667937019,0.1020243708214843,1643445.0,486.80093221745415,483.2659322174541,1644.467932217454
32,36,24,F,1,0,24.0,24,3,low,6 - 1 + 7 - 8 + 9,13,12,11,13,497.2752799000591,499.2998826999683,500.815074400045,505.83344169985503,506.3054337999784,506.3054388000164,507.8218537999783,508.83876109984703,e,13,0.471992100123316,1,+1,121,14.107628533033868,1.0227161015214703,0.1761054795070165,496264.0,-29.534526208502236,0.502625471002462,-0.10890982415547668,499797.0,17.013478895680397,-0.6241054464292972,0.03801976037416743,2342370.0,500.81993221745415,497.28693221745414,2343.392932217454
33,36,24,F,1,0,25.0,25,3,high,4 + 1 + 8 + 9 - 5,17,18,19,17,510.3552431999706,512.3805931999814,513.895871500019,518.9142253999598,519.3775221998803,519.3775275000371,520.8940280000679,521.9110935998615,e,17,0.4632967999204993,1,+10,131,9.061680589195943,0.5281600354037428,-0.019791450274731393,509345.0,-21.622631389063034,0.39731803863417703,0.07967830207876325,512878.0,-63.88676560731113,0.6547262690901992,0.0373778413097714,2652721.0,513.9009322174542,510.36793221745415,2653.743932217454
34,36,24,F,1,0,26.0,26,1,low,6 + 9 + 1 + 1 - 1,16,15,14,16,523.4275414000731,525.4546486998443,526.9706280999817,531.9897141000256,533.0173553000204,533.0173603999428,534.533892699983,535.550775700016,e,16,1.0276411999948325,1,+1,132,2.2751831361392867,-0.1800717671144101,-0.017453557334827785,522418.0,-23.33038935426728,0.42060849395387967,0.028259866401973532,525953.0,,,,,526.9759322174541,523.4409322174541,
35,36,24,F,1,0,27.0,27,2,low,3 - 1 + 9 - 5 + 1,7,5,7,6,537.0675119999796,539.0942307000514,540.6093541998416,545.6286408999003,546.0335091999732,546.0335142000113,547.550069599878,548.5674401998986,w,7,0.4048683000728488,1,+1,133,-2.239130814181398,0.716742754514434,-0.05871616626460696,536058.0,1.322655032562917,1.0279852117895985,-0.0660472007148094,539592.0,,,,,540.6149322174541,537.0809322174541,
36,36,24,F,1,0,28.0,28,2,low,6 + 1 + 7 + 5 - 1,18,17,16,18,550.0842728000134,552.1084610999096,553.6235125998501,558.6422419999726,562.5294764998835,562.529481699923,564.0460802000016,565.0628587999381,e,18,3.8872344999108464,1,+1,134,-9.272665696795384,0.7945069496717969,0.02951219753712686,549072.0,10.758491447888012,0.8879780044229184,0.07695076498974185,552606.0,,,,,553.6289322174541,550.0949322174541,
37,36,24,F,1,0,29.0,29,3,high,7 - 5 + 9 + 1 - 4,8,7,8,9,566.5796286000405,568.6067925998941,570.1218258000445,575.1418810999021,575.6735155999195,575.6735208998434,577.1903713999782,578.2075048999395,w,8,0.5316345000173897,1,+10,144,32.999767417443536,0.546425478196527,0.055652122928363745,565570.0,-16.746903868052556,-0.17888341162866972,-0.4208148636443694,569105.0,,,,,570.1279322174541,566.5929322174542,
38,36,24,F,1,0,30.0,30,1,high,7 + 1 + 4 + 1 - 1,12,12,13,11,579.7242945998441,581.7489891999867,583.2642413000576,588.2826995998621,588.9454935998656,588.9454989000224,590.4619437998626,591.4791905998718,q,12,0.6627940000034869,1,+10,154,5.340496168992665,-0.23900788465776568,-0.09824248452090867,578712.0,9.444831703246468,0.09919099292454359,0.051199750341774264,582246.0,,,,,583.2689322174541,579.7349322174541,
39,36,24,F,1,0,31.0,31,3,low,8 + 6 - 7 + 1 - 4,4,5,4,3,592.9959008998703,595.0227789999917,596.5378080999944,601.5571022999939,602.2734673998784,602.2734723000322,603.7899922998622,604.8069060000125,w,4,0.7163650998845696,1,+1,155,9.392226597961555,0.6923615847730069,-0.04913118114295445,591986.0,6.8432783750609545,0.725759632728276,-0.02732466593094718,595520.0,,,,,596.5429322174541,593.0089322174541,
40,36,24,F,1,0,32.0,32,2,high,4 + 8 + 1 + 1 - 5,9,11,9,8,606.323704399867,608.3501617999282,609.86553369998,614.8837677000556,615.3855687999167,615.3855742998421,616.9021482998505,617.9194205000531,w,9,0.5018010998610407,1,+10,165,25.473733089814914,0.46375000105165176,-0.023607943699204714,605314.0,-45.384243084538,0.4861157785114796,-0.037905189280923235,608847.0,,,,,609.8699322174541,606.3369322174541,
41,36,24,F,1,0,33.0,33,2,high,2 + 1 + 9 - 4 + 1,9,9,11,8,619.4360940998886,621.458878000034,622.9741223999299,627.9929720999207,629.1294835999142,629.1294889999554,630.6459110998549,631.6632795999758,q,9,1.136511499993503,1,+10,175,21.99252937916345,-1.2720055354311102,-3.12403533805767,618422.0,10.2309502501299,0.5189134837728915,0.005966897320177855,621956.0,,,,,622.9789322174541,619.4449322174542,
42,36,24,F,1,0,34.0,34,2,high,6 + 1 + 1 + 8 - 9,7,9,5,7,633.1801618000027,635.2016789000481,636.7169602999929,641.7352537000552,643.0095854999963,643.0095907000359,644.5267570998985,645.543956700014,e,7,1.2743317999411374,1,+10,185,8.014112135879758,0.7512488656277774,-0.0172264166928926,632165.0,16.791133920048686,0.5789700999390059,-0.020097796655587752,635698.0,,,,,636.7209322174541,633.1879322174541,
43,36,24,F,1,0,35.0,35,3,low,7 + 5 + 9 + 1 - 6,16,14,16,15,647.0604550999124,649.088355399901,650.603602899937,655.6227809998672,659.4496130999178,659.449618200073,660.9662307999097,661.9828582999762,w,16,3.826832100050524,1,+1,186,4.083033375593882,1.5880877145174517,0.05801821675937058,646051.0,55.97042612074226,1.156983570017271,0.0648332244764882,649585.0,,,,,650.6079322174542,647.0739322174542,
44,36,24,F,1,0,36.0,36,4,high,6 + 5 - 7 + 8 - 9,3,5,3,4,663.4998413999565,665.5226660000626,667.0379661000334,672.0563606999349,672.5616241998505,672.561628999887,674.0778769999743,675.0950543999206,w,3,0.5052634999155998,1,+10,196,-30.417684971595047,1.423499847880941,1.7185946349199832,662486.0,5.306833801191005,0.6676580745086147,-0.20760291770830364,666019.0,6.813344744530864,-0.18391827731182175,-0.06198049303713882,2261827.0,667.0419322174541,663.5089322174541,2262.8499322174544
45,36,24,F,1,0,37.0,37,3,high,7 - 1 + 8 - 6 + 4,12,13,12,11,676.6119363000616,678.6347630000673,680.1506616999395,685.1688500999007,685.7696193000302,685.7696247999556,687.2864771999884,688.3034483999945,w,12,0.6007692001294345,1,+10,206,-48.365996618517926,-0.3192797844271107,-0.30626737492921263,675598.0,3.1460663405894724,0.2547452575616225,-0.003537039963286581,679132.0,,,,,680.1549322174541,676.6209322174541,
46,36,24,F,1,1,38.0,0,1,high,9 + 8 + 1 + 1 - 1,18,18,20,17,750.5980122999754,752.6245550999884,754.1398567999713,759.1592480000108,759.6816728999838,759.6816781999078,761.1988190999255,762.2171342999209,q,18,0.5224248999729753,1,+10,216,-4.894524492255776,5.854928792043407,-8.883921088006069,749587.0,5.413317456132665,0.04333812831004202,-0.0634163152293965,753122.0,,,,,754.1449322174541,750.6099322174541,
47,36,24,F,1,1,39.0,1,3,low,6 - 1 + 7 - 8 + 9,13,12,13,11,763.7346854999196,765.7558531998657,767.2711149000097,772.2903344000224,772.857660099864,772.8576652000193,774.3746920998674,775.3920819000341,w,13,0.5673256998416036,1,+1,217,-9.048786538978158,0.6812845112299621,-0.26145091858620395,762719.0,45.79802538024077,0.9575542407743072,-0.13492952130241687,766253.0,,,,,767.2759322174542,763.7419322174542,
48,36,24,F,1,1,40.0,2,1,high,6 + 9 + 1 + 1 - 1,16,15,14,16,776.9090776999947,778.9316678999458,780.4470705999993,785.4650397000369,786.6976862999145,786.6976912000682,788.214631000068,789.232304800069,e,16,1.2326465998776257,1,+10,227,5.118785838681522,-0.8086716127435256,0.48578491533072654,775894.0,-16.103374646383497,-0.4175679888366721,-0.4282649079572125,779427.0,,,,,780.4499322174541,776.9169322174541,
49,36,24,F,1,1,41.0,3,1,low,7 + 1 + 4 + 1 - 1,12,14,12,13,790.7490582000464,792.7746053000446,794.2901307998691,799.3084280998446,799.7776558999904,799.7776605999097,801.2940718999598,802.3114624000154,w,12,0.4692278001457453,1,+1,228,16.128093025668544,-1.5083929106897527,-1.2675749090982782,789737.0,0.14097558286009326,0.24364135362381756,-0.0034699907249993167,793271.0,,,,,794.2939322174541,790.7599322174541,
50,36,24,F,1,1,42.0,4,1,high,2 + 1 + 1 + 9 - 1,12,12,13,11,803.8284442999866,805.853251399938,807.3684700999875,812.3893625000492,813.0016584999394,813.001663699979,814.518441400025,815.5359318000264,q,12,0.6122959998901933,1,+10,238,-12.559899712911612,-0.12949304007390472,-0.08928433234610256,802815.0,-44.406024266145295,0.16700980171695434,-0.03524247079421139,806351.0,,,,,807.3739322174541,803.8379322174542,
51,36,24,F,1,1,43.0,5,1,low,5 + 9 - 1 + 1 + 1,15,13,15,17,817.0527244999539,819.0782150998712,820.5929084999952,825.6108889000025,826.2016553999856,826.2016602999065,827.718360299943,828.7352759998757,w,15,0.5907664999831468,1,+1,239,4.237832229838817,-0.47014424347913764,-0.2652103718041747,816040.0,22.08325074016693,-0.10861211768801482,0.009250820128883674,819573.0,,,,,820.5959322174541,817.0629322174541,
52,36,24,F,1,1,44.0,6,2,low,4 + 8 + 1 + 1 - 6,8,9,7,8,830.2520783999935,832.279470599955,833.7947637999896,838.8136026998982,839.7376953999046,839.7377007999457,841.2545210998505,842.2715193000622,e,8,0.9240927000064404,1,+1,240,20.40796126459021,1.4078383127690075,0.5312334961965881,829242.0,44.2978279228851,0.8914504298715551,-0.19400358763031056,832775.0,,,,,833.7979322174541,830.2649322174541,
53,36,24,F,1,1,45.0,7,4,high,3 + 8 - 7 + 9 - 5,8,9,7,8,843.7884106999263,845.8152457000688,847.3305691999849,852.3507350999862,854.545683400007,854.5456882999279,856.0623768998776,857.0797655000351,q,9,2.194948300020769,0,+0,240,31.893864341072828,1.1900414125387728,0.3838242651843826,842776.0,-5.024263023276058,1.9133719749840914,1.6050798762996936,846313.0,3.8337379526699014,-0.5765283150686851,0.019346795970690778,2288762.0,847.3359322174541,843.7989322174541,2289.7849322174543
54,36,24,F,1,1,46.0,8,2,high,3 + 9 + 1 - 5 + 1,9,9,8,7,858.5967192999087,860.6241528000683,862.1393351999577,867.1571716000326,868.8099028998986,868.8099082000554,870.3259697998874,871.3423688998446,e,7,1.6527312998659909,0,+0,240,-7.759119974713364,-0.22731545090087568,0.010238558976039425,857586.0,-1.5272097507783915,1.301099991261153,-0.18433098732764952,861119.0,,,,,862.1419322174542,858.6089322174541,
55,36,24,F,1,1,47.0,9,4,high,5 + 7 - 4 - 6 + 9,11,13,12,11,872.8590597000439,874.8864555000328,876.4017437000293,881.4203321998939,881.8977041998878,881.8977089999244,883.4140645998996,884.4311261998955,e,11,0.4773719999939203,1,+10,250,9.021583395463617,0.8051286949257821,0.03858240984685102,871848.0,-0.38210030332706424,0.4251921578176905,-0.1507740719434536,875382.0,18.53982707026852,-0.842820788178849,0.06106415883774119,2745136.0,876.4049322174541,872.8709322174541,2746.158932217454
56,36,24,F,1,1,48.0,10,3,low,5 - 1 - 4 + 6 + 7,13,13,15,14,885.9477985999547,887.972111799987,889.4875075998716,894.5057051000185,895.0498269000091,895.0498319000471,896.5664788999129,897.5833632000722,q,13,0.5441217999905348,1,+1,251,-34.766555350975295,1.8406357668160829,0.10619636577431213,884934.0,-6.9615349312206565,0.8908029717660777,-0.005938939055277537,888468.0,,,,,889.4909322174541,885.9569322174541,
57,36,24,F,1,1,49.0,11,3,high,8 - 7 + 9 + 1 + 4,15,15,14,16,899.1001841998659,901.1251461000649,902.6405060000252,907.6589798999483,908.393755099969,908.3937611000148,909.9108805998694,910.9281704998576,q,15,0.7347752000205219,1,+10,261,-14.527810172390586,1.6291149283234496,-0.03844588973813057,898087.0,11.306659948530461,0.4022253923838375,0.027837559612009954,901621.0,,,,,902.6439322174541,899.1099322174541,
58,36,24,F,1,1,50.0,12,1,high,8 + 1 + 5 + 1 + 1,16,16,15,17,912.4448134000412,914.4691558000632,915.9844457998406,921.0020987000316,921.3937216999476,921.3937263998668,922.91027699993,923.92852950003,q,16,0.3916229999158531,1,+10,271,-0.04723464595719573,-0.8195578467399871,-0.6091271917680503,911431.0,22.447436535949926,-0.024902473143571413,-0.28697945652584567,914964.0,,,,,915.9869322174542,912.4539322174542,
59,36,24,F,1,1,51.0,13,4,low,3 + 8 - 4 + 9 + 7,23,23,24,22,925.4456588998436,927.4733917000704,928.9889777000062,934.0073839998804,934.5699607999996,934.5699660000392,936.0862626999152,937.1032767998986,w,24,0.5625768001191318,0,+0,271,22.565439025683723,-17.07498076255125,-8.315924238039644,924435.0,7.5015122274506645,0.5646777892742199,-0.04610740072830888,927969.0,20.507489701762253,0.5787528837929341,0.1967459316939444,2811817.0,928.9919322174542,925.4579322174541,2812.839932217454
60,36,24,F,1,1,52.0,14,4,low,8 + 3 - 4 + 5 + 9,21,22,23,21,938.6203364999964,940.6449277999344,942.160127500072,947.1779296000022,947.7058085999452,947.705814299872,949.2224150998518,950.2391856999602,q,22,0.5278789999429137,0,+0,271,-16.139930679613688,0.6187611858920876,0.030865197102913022,937606.0,-21.934901417374498,0.7676344225721605,-0.10010841774865176,941140.0,,,,,942.1629322174541,938.6289322174541,
61,36,24,F,1,1,53.0,15,2,low,3 + 8 - 5 + 1 + 1,8,8,9,6,951.7560310999396,953.7820317998994,955.297230300028,960.3153224000708,960.7938300999812,960.7938347000164,962.310602699872,963.3283609999344,w,9,0.4785076999105513,0,+0,271,-35.38178637208077,-0.32731924100516885,0.19938610864665285,950744.0,-24.98122114206187,0.05115367998142695,-0.009291997764519166,954277.0,,,,,955.2999322174542,951.7669322174542,
62,36,24,F,1,1,54.0,16,4,high,7 + 8 - 4 + 6 - 5,12,12,11,13,964.8449872999918,966.8729085000232,968.3883277999704,973.4071122999304,974.5378397998866,974.5378449999262,976.054325300036,977.0715212998912,w,11,1.130727499956265,0,+0,271,-2.488166358627627,-0.3703103527287457,0.1582124318444449,963834.0,-39.35529229550758,0.8234935643003665,0.06626517658082198,967368.0,,,,,968.3909322174542,964.8569322174541,
63,36,24,F,1,1,55.0,17,1,high,7 - 1 + 9 + 1 - 1,15,14,15,13,978.5883821998724,980.61274640006,982.1280513999518,987.1469212998636,991.1857569999992,991.1857622999232,992.7033881000244,993.7210780999158,q,14,4.038835700135678,0,+0,271,-26.433846167421457,-0.08786107646473784,-0.06020108984397288,977574.0,-1.3070305206658155,-0.20022680927072045,-0.03569062809048029,981108.0,,,,,982.1309322174541,978.5969322174541,
64,36,24,F,1,1,56.0,18,1,high,3 + 1 + 8 - 1 + 1,12,10,12,13,995.2378235000652,997.2634769999422,998.7789554998744,1003.79871309991,1004.2819115000312,1004.2819165999535,1005.7985354000704,1006.8157339999452,w,12,0.4831984001211822,1,+10,281,10.942481131491803,0.4390259761723536,0.07421561342676952,994224.0,-36.46236892183302,-0.40541261296167974,0.13609240997406902,997760.0,,,,,998.7829322174541,995.2469322174542,
65,36,24,F,1,1,57.0,19,1,high,2 + 9 + 1 + 1 + 1,14,13,14,12,1008.3325932999142,1010.3578645999078,1011.8719389999752,1016.8899670999964,1017.3377944999374,1017.3377994999756,1018.8542563999072,1019.8717352999374,w,14,0.4478273999411613,1,+10,291,5.716123621103447,0.26429096698278975,-0.11114090674874166,1007319.0,-25.155676935987863,0.2040406775902852,-0.074773240343597,1010851.0,,,,,1011.8739322174541,1008.3419322174541,
66,36,24,F,1,1,58.0,20,3,high,5 + 7 + 1 - 4 + 6,15,17,13,15,1021.3883044000248,1023.4143242000137,1024.9295967998914,1029.947937999852,1030.4498194998596,1030.449824299896,1031.9659295999445,1032.9834964999463,e,15,0.5018815000075847,1,+10,301,9.453593902318815,-0.4484084963853743,-0.6389026915911864,1020375.0,18.707460383391943,0.17752508943200684,0.04505835355445109,1023909.0,,,,,1024.9319322174542,1021.3979322174541,
67,36,24,F,1,1,59.0,21,1,low,7 - 1 + 1 + 9 - 1,15,15,13,14,1034.5002039999235,1036.5278932999354,1038.0429670000449,1043.061301300069,1043.9059466999024,1043.9059518000577,1045.4221963000018,1046.4399278999772,q,15,0.844645399833098,1,+1,302,10.88628515947788,1.5942960273091087,-1.2471297852599044,1033489.0,3.7828901452264567,-0.09942299398478571,-0.1993364765029786,1037022.0,,,,,1038.044932217454,1034.5119322174542,
68,36,24,F,1,1,60.0,22,2,low,3 + 9 - 1 - 5 + 1,7,5,6,7,1047.9567005999852,1049.9820363000035,1051.4974098000675,1056.516735299956,1056.9378265999258,1056.9378313999623,1058.4544843998738,1059.471232400043,e,7,0.4210912999697029,1,+1,303,-22.856199774285123,-0.15012923257783228,-0.006601291630721207,1046943.0,0.7345744490668586,0.3179373414346127,-0.1667017149026373,1050477.0,,,,,1051.4999322174542,1047.965932217454,
69,36,24,F,1,1,61.0,23,3,low,4 + 8 - 3 + 5 - 1,13,13,14,12,1060.9877641999628,1063.0131903998554,1064.5284784999676,1069.546794099966,1070.009813199984,1070.009818200022,1071.5262599000707,1072.5432521998882,q,13,0.4630191000178456,1,+1,304,-57.17267287804462,-0.08830044532566372,-0.11857989299732496,1059974.0,-40.33211387683917,0.11784099479306942,-0.18918696414989844,1063508.0,,,,,1064.5309322174542,1060.996932217454,
70,36,24,F,1,1,62.0,24,1,low,5 + 6 + 1 + 1 + 1,14,14,13,16,1074.0599859999493,1076.0852667998988,1077.600804500049,1082.6188238998875,1083.0259555999655,1083.0259604998864,1084.5434274999425,1085.56028049998,q,14,0.4071317000780254,1,+1,305,17.227343454871885,0.36009370623110737,-0.2407641350645191,1073046.0,-19.115917483678263,0.3977005297856264,-0.029152974662228104,1076580.0,,,,,1077.602932217454,1074.0689322174542,
71,36,24,F,1,1,63.0,25,2,high,7 + 5 + 1 + 9 + 1,23,22,21,23,1087.0770056999754,1089.103030399885,1090.61803709995,1095.6362753000576,1096.1219403999858,1096.1219454999082,1097.6385087999515,1098.6563742998987,e,23,0.4856650999281555,1,+10,315,3.7214817043930135,0.37910244373968105,0.716783209043764,1086063.0,-8.253810822623702,-0.15267661703122215,-0.566320178157532,1089597.0,,,,,1090.619932217454,1087.0859322174542,
72,36,24,F,1,1,64.0,26,4,low,5 + 7 - 4 + 6 + 9,23,24,23,25,1100.1735344000626,1102.196315899957,1103.7115916998591,1108.729939899873,1109.1218423000537,1109.121847299859,1110.6379821999,1111.654655299848,w,23,0.3919024001806974,1,+1,316,3.234910297042589,0.6487479680270152,-0.008814537396729882,1099157.0,-2.1175191262439546,0.3377116009350116,-0.1387195659304088,1102691.0,,,,,1103.7139322174542,1100.179932217454,
73,36,24,F,1,1,65.0,27,2,low,5 + 7 - 8 + 1 + 1,6,6,8,7,1113.1714359999169,1115.1994344000705,1116.7148020998577,1121.733448300045,1122.1539771999232,1122.1539824998472,1123.6705000000077,1124.687075299909,q,6,0.4205288998782635,1,+1,317,32.1417610541288,0.8711874050245392,2.247612466840301,1112160.0,-1.5650505743268113,0.8907120051608652,-0.006545871120900326,1115694.0,,,,,1116.716932217454,1113.1829322174542,
74,36,24,F,1,1,66.0,28,2,high,6 + 1 + 8 + 5 - 1,19,18,19,17,1126.2046647998504,1128.2321663999464,1129.7474702000618,1134.7656600000337,1135.377906299895,1135.3779110999312,1136.8944566999562,1137.9121981000062,w,19,0.612246299860999,1,+10,327,-11.13296501027408,0.6994651770406302,-0.015278918187981105,1125192.0,13.272320517626245,0.7590997021993671,0.0333117333790236,1128726.0,,,,,1129.7489322174542,1126.2149322174541,
75,36,24,F,1,1,67.0,29,3,low,3 + 8 - 7 - 1 + 9,12,14,13,12,1139.4291507999878,1141.4575982999522,1142.9734922000207,1147.9924365000334,1148.3460587000009,1148.346064100042,1149.8624309999868,1150.8798259999603,w,13,0.3536221999675035,0,+0,327,21.932737635874236,0.9460277006274973,-0.19867579666533564,1138418.0,-0.23109483395142405,1.2231467086309635,1.3147104378437748,1141953.0,,,,,1142.975932217454,1139.440932217454,
76,36,24,F,1,1,68.0,30,4,low,2 + 9 - 6 + 8 - 4,9,9,11,7,1152.3968151998706,1154.425260900054,1155.94068660005,1160.9599933999125,1161.665974699892,1161.6659802999347,1163.18256570003,1164.199445300037,q,9,0.7059812999796122,1,+1,328,-5.643510111121346,0.38858459854675775,-0.06727998124944046,1151385.0,43.120064864472056,-0.2017054571039818,-0.24942871706330072,1154920.0,,,,,1155.9429322174542,1152.4079322174541,
77,36,24,F,1,1,69.0,31,1,low,3 + 1 + 1 + 8 - 1,12,12,13,14,1165.7161399000324,1167.7445868998766,1169.2598416998517,1174.2778105998875,1174.6979550998658,1174.6979602999054,1176.214501600014,1177.2311374999117,q,12,0.4201444999780506,1,+1,329,-7.8750673907990745,-0.07192749420681288,-0.15653305319128608,1164705.0,-3.2905666572615626,-0.15306180324921304,0.037398686570851325,1168238.0,,,,,1169.2609322174542,1165.727932217454,
78,36,24,F,1,1,70.0,32,2,low,7 + 1 + 9 - 1 - 8,8,8,7,6,1178.7480826000683,1180.7750731999986,1182.2902333000677,1187.308902699966,1190.8579168999568,1190.8579218999948,1192.3744208000137,1193.3915768000295,w,7,3.549014199990779,0,+0,329,-36.407935548964204,0.8880097703747918,0.13999248387281327,1177735.0,18.210603384784356,0.9619642674827364,0.12891711666441363,1181269.0,,,,,1182.2919322174541,1178.757932217454,
79,36,24,F,1,1,71.0,33,2,low,2 + 9 + 1 + 1 - 5,8,6,8,7,1194.9083829000592,1196.933362300042,1198.4485233998855,1203.4664696999826,1203.8500228999185,1203.850027800072,1205.366658099927,1206.3834126000293,w,8,0.3835531999357044,1,+1,330,-36.090462112946774,1.3984459737500963,0.08802178613417988,1193893.0,13.616100225185932,0.025949790298511743,-0.1976735616158125,1197427.0,,,,,1198.449932217454,1194.9159322174542,
80,36,24,F,1,1,72.0,34,1,low,8 + 1 + 1 + 1 - 4,7,7,5,8,1207.9002588000149,1209.9277687000576,1211.442535399925,1216.4607982998714,1217.3219649998937,1217.3219703000505,1218.8384750999976,1219.8553712998985,q,7,0.8611667000222951,1,+1,331,-42.54137575945778,-0.22353554170507195,-0.07028203233666508,1206887.0,33.37683143314027,-3.0173834162891087,-1.0552388489389406,1210421.0,,,,,1211.4439322174542,1207.909932217454,
81,36,24,F,1,1,73.0,35,2,high,8 + 1 + 9 + 1 - 4,15,14,16,15,1221.3721258000005,1223.3999174998607,1224.916091099847,1229.93438900006,1230.4420000999237,1230.4420057998504,1231.9586577999871,1232.9759734000545,e,15,0.5076110998634249,1,+10,341,-34.854982147204936,0.7510419330311011,0.18066708874307214,1220359.0,-3.4824402720391987,0.45206017184969305,-0.22487043146174202,1223894.0,,,,,1224.9169322174541,1221.381932217454,
82,36,24,F,1,1,74.0,36,4,low,5 + 9 - 4 + 7 + 6,23,23,24,25,1234.492434100015,1236.5165873998776,1238.0317456999328,1243.050074199913,1244.5940932999365,1244.594098399859,1246.1104112998582,1247.1277022999711,q,23,1.5440191000234336,1,+1,342,3.855794376744715,-2.8183966162622855,-3.1748261791440626,1233476.0,-19.26564692161786,0.45739636658344107,-0.09287671397895014,1237010.0,,,,,1238.0329322174541,1234.4989322174542,
83,36,24,F,1,1,75.0,37,2,low,8 + 1 + 9 + 1 - 5,14,14,13,15,1248.6446191000286,1250.671831500018,1252.186971900053,1257.2049571999814,1258.970072899945,1258.9700784999875,1260.4864745000375,1261.503318199888,q,14,1.765115699963644,1,+1,343,3.778441762201318,1.013383192722248,0.059603851311464506,1247631.0,22.57798432657475,0.9007107121140816,-0.12398042545561783,1251165.0,,,,,1252.187932217454,1248.6539322174542,
84,36,24,F,1,2,76.0,0,3,high,5 + 6 + 7 - 1 - 9,8,7,8,9,1307.2142427000215,1309.2417178000323,1310.7570735998452,1315.7771981998812,1316.6268642998766,1316.6268692999147,1318.143187199952,1319.1602523999754,w,8,0.8496660999953747,1,+10,353,-8.36709415587915,-1.4820672943848683,1.4101176314459876,1306201.0,11.849387794718073,0.3282867080287586,-0.5781067435422402,1309736.0,,,,,1310.7589322174542,1307.2239322174541,
85,36,24,F,1,2,77.0,1,4,low,7 + 6 - 4 + 9 - 5,13,14,12,13,1320.677157399943,1322.7039454998448,1324.2191065999214,1329.2376800999043,1329.8100049998611,1329.8100097998977,1331.3262751998843,1332.3434816000515,e,13,0.572324899956584,1,+1,354,-5.925342151204299,0.862059424900047,0.10819878017485518,1319663.0,20.420531250397513,0.9749796379435978,-0.20578427411111644,1323197.0,,,,,1324.219932217454,1320.6859322174541,
86,36,24,F,1,2,78.0,2,1,low,7 + 1 + 5 + 1 - 1,13,12,13,14,1333.8602603999898,1335.885450999951,1337.4006103000138,1342.4204674998764,1342.802120199893,1342.802125700051,1344.319110600045,1345.3362805000506,w,13,0.381652700016275,1,+1,355,-4.734614908211141,-3.8764957621617038,-1.5998211999644973,1332845.0,22.056876529940812,-0.09239468410326124,-0.5029960483387392,1336380.0,,,,,1337.4029322174542,1333.8679322174542,
87,36,24,F,1,2,79.0,3,4,high,4 + 7 - 8 + 9 - 3,9,8,11,9,1346.8530877998564,1348.880353800021,1350.3955792000052,1355.41422279994,1355.962043100037,1355.9620483999606,1357.4790556998923,1358.4964089000132,e,9,0.547820300096646,1,+10,365,16.267009978370385,0.9103107726543658,0.03492736370204108,1345839.0,3.9207927732453456,0.256675545634959,-0.011846380711464377,1349373.0,,,,,1350.3959322174542,1346.861932217454,
88,36,24,F,1,2,80.0,4,3,low,8 + 5 + 1 - 7 + 9,16,17,14,16,1360.0131454998627,1362.037071999861,1363.5524476999417,1368.572136099916,1368.9944285000674,1368.994434399996,1370.510951699922,1371.5285868998617,e,16,0.4222924001514911,1,+1,366,-6.910182623196103,2.4883296504809667,0.422744874242559,1358996.0,-1.0186620781617108,0.3848899154502492,-0.6398961190148431,1362531.0,,,,,1363.553932217454,1360.0189322174542,
89,36,24,F,1,2,81.0,5,1,low,6 + 9 + 1 + 1 - 1,16,14,15,16,1373.04581959988,1375.0732048999052,1376.588438600069,1381.6065165000036,1382.202059000032,1382.20206400007,1383.7186064000707,1384.735485699959,e,16,0.5955425000283867,1,+1,367,-18.87599445491707,0.15531839532118585,-0.2932122188762065,1372032.0,22.3788692834398,0.3009973891925215,0.05081794681537799,1375566.0,,,,,1376.5889322174542,1373.054932217454,
90,36,24,F,1,2,82.0,6,4,high,5 + 8 - 6 + 7 + 4,18,18,19,17,1386.252330899937,1388.2800648000557,1389.795255600009,1394.813490799861,1396.530114899855,1396.5301200998947,1398.0467137999367,1399.0637393998911,q,18,1.7166240999940785,1,+10,377,1.0573838772459467,0.5888610255195994,0.013280706394008579,1385239.0,24.561827015416146,0.47070908401436373,-0.021860157757008114,1388772.0,,,,,1389.794932217454,1386.2619322174542,
91,36,24,F,1,2,83.0,7,2,high,9 + 1 + 6 + 7 + 1,24,23,24,25,1400.580575000029,1402.6062670999672,1404.1215279998723,1409.1398907999974,1409.5620734000113,1409.5620782000478,1411.0785672999918,1412.0960391999688,w,24,0.4221826000139117,1,+10,387,1.0707116219830937,0.674093107202375,-0.1578791381355722,1399565.0,9.26361470579386,0.056764034753817416,-0.09927849049862791,1403098.0,,,,,1404.120932217454,1400.5879322174542,
92,36,24,F,1,2,84.0,8,4,high,7 + 6 - 9 + 8 - 3,9,7,8,9,1413.612682200037,1415.638970799977,1417.154379799962,1422.173125699861,1422.858229599893,1422.8582399999725,1424.3749689999968,1425.3922730998602,e,9,0.685103900032118,1,+10,397,12.924221089764607,0.41381917464948925,0.01866204989599307,1412597.0,-4.115754520688718,0.47037821243234523,-0.1965851885770431,1416132.0,,,,,1417.1549322174542,1413.619932217454,
93,36,24,F,1,2,85.0,9,2,low,5 + 9 - 8 + 1 + 1,8,7,9,8,1426.9089599999131,1428.9351146998815,1430.4501419998703,1435.4682316998951,1435.9301781998947,1435.9301835000515,1437.4465665000023,1438.4636947999245,e,8,0.4619464999996125,1,+1,398,11.056844456721425,-0.8876606316090987,1.1052548633359116,1425894.0,-3.9492067871619696,0.34421455121260225,-0.361962354312662,1429427.0,,,,,1430.449932217454,1426.9169322174541,
94,36,24,F,1,2,86.0,10,3,low,6 - 1 + 7 - 8 + 9,13,13,11,12,1439.9804082999472,1442.0060618999414,1443.5213579998815,1448.5399588998407,1448.9861496998928,1448.9861544999294,1450.503070899984,1451.5198989000637,q,13,0.4461908000521362,1,+1,399,67.21300548036756,1.0964729162262636,-0.09518436629884541,1438964.0,16.022420726670333,0.8773977621044726,0.034286091525649764,1442498.0,,,,,1443.5209322174542,1439.986932217454,
95,36,24,F,1,2,87.0,11,3,high,2 + 1 + 9 - 4 + 6,14,14,15,16,1453.0366356000304,1455.061328599928,1456.5765036998782,1461.5944669998717,1462.2262623000424,1462.226267799968,1463.743268699851,1464.7604701998644,q,14,0.6317953001707792,1,+10,409,-10.063284452509624,0.30652633713261457,0.061726012745628056,1452020.0,-0.1319050491709457,0.127574911676267,-0.07401458256760618,1455553.0,,,,,1456.5759322174542,1453.042932217454,
96,36,24,F,1,2,88.0,12,4,high,5 + 8 - 4 - 6 + 9,12,14,12,13,1466.2769514999818,1468.3017382000107,1469.816933199996,1474.835205100011,1475.3623255998828,1475.3623307999223,1476.8790696999058,1477.8963231998496,w,12,0.5271204998716712,1,+10,419,10.59957331265366,1.0346631358978717,-0.07291845088167759,1465260.0,37.22596892439403,0.4769902879186789,0.08208783841452494,1468793.0,,,,,1469.815932217454,1466.2829322174541,
97,36,24,F,1,2,89.0,13,1,low,4 + 9 + 1 - 1 - 1,12,13,11,12,1479.4132469999604,1481.440018999856,1482.9550856000278,1487.9734636000358,1488.9301422999706,1488.9301475000102,1490.4467449998483,1491.4637360000052,e,12,0.9566786999348552,1,+1,420,-6.314166355265646,-0.04426991172120376,0.038322058631190314,1478398.0,-2.6751575205061364,0.7261048727159611,0.08956262339826826,1481931.0,,,,,1482.9539322174542,1479.420932217454,
98,36,24,F,1,2,90.0,14,4,high,6 + 9 + 7 - 3 - 5,14,14,15,13,1492.980516300071,1495.0059867000673,1496.5211938999128,1501.5413705999963,1504.714241300011,1504.7142471000552,1506.230899399845,1507.247959899949,q,14,3.172870700014755,1,+10,430,40.62767832679403,1.143283323960072,-0.04219181827607721,1491964.0,48.085256159567,0.1436486888628563,0.041806180744410115,1495499.0,,,,,1496.5219322174542,1492.986932217454,
99,36,24,F,1,2,91.0,15,3,high,8 + 4 + 1 - 7 + 9,15,13,16,15,1508.764732300071,1510.787820099853,1512.3028561000249,1517.3213448000606,1517.754177799914,1517.754183399957,1519.270704699913,1520.2880305999424,e,15,0.4328329998534173,1,+10,440,7.7075458198164615,0.5039116637142884,-0.05999463953173767,1507746.0,9.57376665001878,0.39733310959396473,0.12368104640877808,1511279.0,,,,,1512.3019322174541,1508.7689322174542,
100,36,24,F,1,2,92.0,16,3,high,6 + 7 + 8 + 1 - 9,13,14,15,13,1521.804719199892,1523.8285157000646,1525.343842400005,1530.3625705000013,1530.922180699883,1530.9221856000368,1532.438850800041,1533.4566341999453,w,15,0.5596101998817176,0,+0,440,15.4207321970561,-8.523665802337549,-2.6216005726557734,1520786.0,13.373367563064736,0.2346512284269675,0.10061206380781096,1524320.0,,,,,1525.342932217454,1521.8089322174542,
101,36,24,F,1,2,93.0,17,4,high,3 + 8 - 5 + 9 - 7,8,6,8,7,1534.9731016999576,1536.995669599855,1538.5108928000554,1543.5293616999406,1545.3622624999844,1545.3622679000257,1546.8787107998503,1547.8959738998674,e,7,1.832900800043717,0,+0,440,-7.0029437852828185,0.8028183746576234,-0.15026022428342056,1533954.0,9.959945601639875,0.41910969782467644,-0.15438663443614375,1537487.0,,,,,1538.5099322174542,1534.976932217454,
102,36,24,F,1,2,94.0,18,4,high,4 + 8 + 9 - 3 + 7,25,25,24,26,1549.4127730999608,1551.4359359999653,1552.9508380999323,1557.969453800004,1559.418320900062,1559.4183260998689,1560.9349318000022,1561.9525406998582,q,25,1.4488671000581237,1,+10,450,-19.452169805341132,0.9639156301527456,0.06654541598580277,1548394.0,-31.01005229737386,0.668503614462129,0.06612612320003741,1551927.0,,,,,1552.949932217454,1549.4169322174541,
103,36,24,F,1,2,95.0,19,2,high,8 + 1 + 4 - 7 + 1,7,5,7,6,1563.4690646999516,1565.4948777998798,1567.0099571999162,1572.0284551000225,1573.9063255998772,1573.9063309999185,1575.4228455000557,1576.4400009999515,w,7,1.8778704998549076,1,+10,460,-28.69317737353643,3.1352045846488137,1.5942499603980194,1562452.0,23.15468468171554,-0.042096145771654214,-0.25858781101469797,1565986.0,,,,,1567.0089322174542,1563.4749322174541,
104,36,24,F,1,2,96.0,20,1,low,5 + 1 + 1 + 6 + 1,14,14,16,13,1577.9566595000215,1579.9837495998945,1581.4986624999435,1586.516567699844,1587.1782346998807,1587.1782400999218,1588.6948913000524,1589.7116582999006,q,14,0.6616670000366867,1,+1,461,-13.34845070201844,4.760776159627612,0.07863665623358207,1576941.0,-3.2614744995178455,0.17002978239224964,-0.094963151791851,1580474.0,,,,,1581.496932217454,1577.9639322174542,
105,36,24,F,1,2,97.0,21,3,low,9 - 1 + 5 - 6 + 8,15,14,15,17,1591.228892999934,1593.2555813000072,1594.7707642999012,1599.7888306998648,1600.2102905998472,1600.2102952999994,1601.726190199843,1602.7431109999306,w,15,0.4214598999824375,1,+1,462,-0.3609844200154555,0.8290799128386417,-0.013610844001638256,1590213.0,12.297749812167076,0.9310967075378445,0.0006591555892403456,1593746.0,,,,,1594.7689322174542,1591.235932217454,
106,36,24,F,1,2,98.0,22,4,low,7 + 6 - 9 + 8 - 3,9,7,9,8,1604.259863199899,1606.2851265000645,1607.800320399925,1612.8205925000366,1613.3303499000613,1613.3303551999852,1614.8469121998642,1615.8638834999874,w,9,0.5097574000246823,1,+1,463,-41.69433151066795,0.9223906819840244,0.06417233393519206,1603243.0,-44.035237419841216,1.0260473415807931,0.03929450656216549,1606778.0,,,,,1607.8009322174541,1604.265932217454,
107,36,24,F,1,2,99.0,23,1,high,6 + 1 + 1 + 7 - 1,14,12,13,14,1617.3804694998544,1619.4077773999888,1620.922988299979,1625.9414015999064,1626.442430099938,1626.4424351998605,1627.9587326999754,1628.976203100057,e,14,0.5010285000316799,1,+10,473,-20.03491382406594,-0.1482211883155049,0.09892311127425035,1616365.0,-63.136197079710385,-3.757957329261453,-1.1289020027270706,1619899.0,,,,,1620.921932217454,1617.3879322174541,
108,36,24,F,1,2,100.0,24,4,high,8 + 4 + 7 - 5 - 6,8,6,8,9,1630.4927773999516,1632.5163265999872,1634.0315040999558,1639.0501697000582,1642.9543854999356,1642.9543907998595,1644.471009099856,1645.4882048000582,e,9,3.90421579987742,0,+0,473,-27.573501802467703,1.2083242749840926,0.6970330285901225,1629474.0,26.777735143657825,-0.9267390661100103,-0.5387688589272779,1633007.0,,,,,1634.0299322174542,1630.496932217454,
109,36,24,F,1,2,101.0,25,4,low,2 + 9 - 4 + 8 + 7,22,21,22,23,1647.0049531999975,1649.0307988000568,1650.545563499909,1655.5641340999864,1657.9223301999737,1657.9223352000115,1659.438345799921,1660.455324199982,w,22,2.358196099987253,1,+1,474,26.97375161837116,0.4166998100884909,-0.21376705228566095,1645988.0,15.456640952637404,0.8617765633770711,0.2508624796497707,1649521.0,,,,,1650.543932217454,1647.0109322174542,
110,36,24,F,1,2,102.0,26,1,low,4 + 7 + 1 - 1 - 1,10,9,11,10,1661.9720894000493,1663.998096199939,1665.5133591999763,1670.5318595999852,1670.9462812999263,1670.9462862999644,1672.4628957000095,1673.4797781999223,e,10,0.4144216999411583,1,+1,475,12.788810468869158,-1.0107030473470173,-1.0102359494102915,1660955.0,18.061881019491608,0.10255164349837198,-0.2001225534920099,1664489.0,,,,,1665.5119322174542,1661.977932217454,
111,36,24,F,1,2,103.0,27,1,high,8 - 1 + 1 + 6 + 1,15,14,15,16,1674.996465299977,1677.0216081999242,1678.5366978000384,1683.5558577999473,1683.9062914999668,1683.906296199886,1685.4228262000252,1686.4399858000688,w,15,0.3504337000194937,1,+10,485,5.025511472853774,-0.2965553499809941,-0.2268347094132941,1673979.0,35.10197060073852,-0.12437244892309263,-0.10149591495568622,1677513.0,,,,,1678.535932217454,1675.0019322174542,
112,36,24,F,1,2,104.0,28,3,low,6 + 1 + 8 + 7 - 9,13,13,14,15,1687.9567398000509,1689.9817729999777,1691.4969641000498,1696.5161333000287,1697.0183953000233,1697.0184005999472,1698.535249599954,1699.552410000004,q,13,0.5022619999945164,1,+1,486,64.33828379148419,-1.5468430961837658,-3.213303218934084,1686939.0,-12.408041265141854,1.0014853052826949,0.06197857877203994,1690472.0,,,,,1691.494932217454,1687.9619322174542,
113,36,24,F,1,2,105.0,29,1,high,8 + 1 + 4 + 1 + 1,15,15,14,16,1701.069334999891,1703.0940940000582,1704.609364999924,1709.6271226999816,1710.0663806998637,1710.0663856000174,1711.5827869998757,1712.5997802999336,q,15,0.439257999882102,1,+10,496,21.66338594580241,0.8433381163595302,0.058323471824224704,1700051.0,6.062290500641772,-0.3340361408960888,-0.12803499502449167,1703584.0,,,,,1704.6069322174542,1701.073932217454,
114,36,24,F,1,2,106.0,30,1,high,5 + 6 + 1 + 1 + 1,14,14,15,16,1714.1164965999778,1716.1437184999231,1717.658743399894,1722.6761918999257,1723.1064879000187,1723.1064929000568,1724.6229220000096,1725.6401698999107,q,14,0.4302960000932216,1,+10,506,-11.968386062639986,0.8271757465625145,0.04700832856025716,1713100.0,-23.69652998583359,-0.5360992785889431,-0.11102622377842764,1716633.0,,,,,1717.6559322174542,1714.122932217454,
115,36,24,F,1,2,107.0,31,3,low,3 - 7 + 5 + 1 + 9,11,12,13,11,1727.1571784999687,1729.18209440005,1730.6983644999564,1735.7168570999056,1736.5704801999964,1736.5704852000345,1738.087138999952,1739.104596799938,q,12,0.8536231000907719,0,+0,506,-8.03369645657061,0.585663509643382,0.18146987871132492,1726139.0,58.62078968594068,0.15567696553751365,0.04595833297349072,1729674.0,,,,,1730.696932217454,1727.161932217454,
116,36,24,F,1,2,108.0,32,4,high,2 + 5 - 3 + 9 + 8,21,19,21,22,1740.621430600062,1742.6484858000183,1744.164178499952,1749.1825995000545,1752.0183806000275,1752.0183856999502,1753.5345528998878,1754.5519486998674,w,21,2.8357810999732465,1,+10,516,24.777618079931774,0.7940787869347297,0.08734748668748016,1739605.0,-5.937010233712719,0.7804621013877462,0.0035892597277751292,1743139.0,,,,,1744.161932217454,1740.6279322174541,
117,36,24,F,1,2,109.0,33,1,low,4 + 8 + 1 - 1 - 1,11,9,13,11,1756.0687378998846,1758.095857999986,1759.6111083999276,1764.6290775998496,1765.0584801000075,1765.058485300047,1766.574990599882,1767.5919883998577,e,11,0.4294025001581758,1,+1,517,14.473688924669709,-0.46454779185445627,-0.474534234179266,1755052.0,-5.289619612701394,-0.31880691163449626,-0.16501520630195543,1758586.0,,,,,1759.6089322174541,1756.074932217454,
118,36,24,F,1,2,110.0,34,1,low,2 + 1 + 9 + 1 - 1,12,11,13,12,1769.1088511999696,1771.132656899979,1772.647897399962,1777.6665409998968,1778.1065026000142,1778.1065078999382,1779.6229071000123,1780.6397500999738,e,12,0.4399616001173854,1,+1,518,29.89452845551834,-7.423175292498285,-8.78621758256874,1768089.0,-9.950035957098358,-0.32678089404900046,-0.42128264532662296,1771623.0,,,,,1772.6459322174542,1769.111932217454,
119,36,24,F,1,2,111.0,35,2,high,7 + 5 + 1 - 1 - 8,4,2,4,3,1782.1572127998809,1784.1806433000602,1785.6958625998814,1790.7143607998732,1791.5465565000195,1791.546561599942,1793.0628325999714,1794.079724600073,w,4,0.8321957001462579,1,+10,528,-24.25654140630281,6.28489293476506,3.0108934826621407,1781137.0,16.11874953636861,0.22502602135888417,-0.25530553057040795,1784671.0,,,,,1785.6939322174542,1782.159932217454,
120,36,24,F,1,2,112.0,36,1,low,6 + 1 + 8 + 1 + 1,17,16,17,15,1795.5965135998558,1797.6237300999928,1799.138888099929,1804.156873099972,1804.642463499913,1804.642468000064,1806.159154899884,1807.176129499916,w,17,0.4855903999414295,1,+1,529,-7.336054664972413,0.4285719666131014,0.0062012537248623545,1794581.0,-65.69283677973672,0.4996088259699887,-0.07624990864973302,1798113.0,,,,,1799.1359322174542,1795.603932217454,
121,36,24,F,1,2,113.0,37,1,low,2 + 1 + 9 + 1 - 1,12,13,12,11,1808.6929051999468,1810.7157821999865,1812.2309155999685,1817.2495509998407,1817.6511990998408,1817.6512044998815,1819.167869199999,1820.1847604999784,w,12,0.4016480999998748,1,+1,530,5.538695238440161,0.6127864710457782,0.06577325727180483,1807672.0,-44.92016923852525,0.6770372595401088,-0.08269031191912513,1811206.0,,,,,1812.228932217454,1808.6949322174542,
122,36,24,F,1,3,114.0,0,2,low,6 + 1 + 8 + 7 - 1,21,21,19,23,1856.7276800998952,1858.755325699924,1860.2705071999223,1865.290520499926,1866.8904987999704,1866.890503600007,1868.4070601998828,1869.4241090998985,q,21,1.599978300044313,1,+1,531,1.8568265595733653,0.6869696799534202,-0.5292294655794216,1855711.0,-10.610456062069762,0.5218804604127154,-0.39265811587496025,1859247.0,,,,,1860.2699322174542,1856.7339322174541,
123,36,24,F,1,3,115.0,1,1,high,7 - 1 + 8 + 1 - 1,14,14,13,12,1870.9408984999168,1872.9682734999808,1874.483871199889,1879.502799399896,1879.9065745999103,1879.9065803000703,1881.423662199872,1882.4408551999368,q,14,0.4037752000149339,1,+10,541,-2.3515207401652276,-0.1407036994406763,-0.6730257322552595,1869924.0,15.614939778501824,-0.8913286116468111,-0.2672229481583186,1873459.0,,,,,1874.4819322174542,1870.946932217454,
124,36,24,F,1,3,116.0,2,3,high,9 - 5 - 1 - 6 + 8,5,5,7,4,1883.957713899901,1885.9800483998845,1887.4952187000308,1892.513451299863,1892.9466277998872,1892.9466331999283,1894.463277200004,1895.4803079999983,q,5,0.433176500024274,1,+10,551,4.462907995908433,0.6340164280979401,-0.5489689229798125,1882936.0,2.7251524612675118,0.581342923331233,-0.11192081413920718,1886469.0,,,,,1887.4919322174542,1883.958932217454,
125,36,24,F,1,3,117.0,3,3,low,7 - 1 + 9 - 5 + 4,14,13,14,15,1896.9971592999063,1899.0192632998803,1900.5342744998636,1905.554162999848,1906.58665689989,1906.586662400048,1908.1033465999644,1909.1203487999735,w,14,1.0324939000420272,1,+1,552,0.28370713584471474,1.1662017125080761,0.02847734680111036,1895975.0,-7.666172259847702,0.904834061698784,-0.06399975651918544,1899510.0,,,,,1900.5329322174541,1896.997932217454,
126,36,24,F,1,3,118.0,4,1,high,3 + 1 + 1 + 9 - 1,13,13,14,12,1910.6371420000212,1912.6644443999976,1914.1797090000475,1919.197538299952,1920.6265684999528,1920.6265737998765,1922.143137499923,1923.160503000021,q,13,1.4290302000008523,1,+10,562,-45.232281110082035,2.007902840663343,0.15540495954560773,1909619.0,48.00759489054957,-1.645852232742068,2.2461688059209672,1913154.0,,,,,1914.1769322174541,1910.641932217454,
127,36,24,F,1,3,119.0,5,3,low,2 - 4 + 9 + 7 + 1,15,16,15,13,1924.677336199908,1926.7043288999705,1928.219400699949,1933.237964999862,1934.666659499984,1934.6666649000251,1936.1833364998456,1937.1999637999104,w,15,1.428694500122219,1,+1,563,13.559554989078434,-0.9286798621323529,-0.40687817741239884,1923660.0,-5.958187042318974,0.5127787977064764,-0.10559842973429534,1927194.0,,,,,1928.216932217454,1924.6829322174542,
128,36,24,F,1,3,120.0,6,3,low,3 + 8 - 7 + 1 + 9,14,12,13,14,1938.716681699967,1940.7415068000555,1942.2572774998844,1947.2756119999103,1949.114680300001,1949.114685900044,1950.6321381998716,1951.6494300998747,e,14,1.8390683000907304,1,+1,564,0.10281166170414746,1.736123964191309,-1.3195034165526542,1937697.0,10.633581646783531,-0.1404888338276029,0.01099288748282179,1941232.0,,,,,1942.254932217454,1938.719932217454,
129,36,24,F,1,3,121.0,7,4,high,6 + 9 + 7 - 3 - 5,14,14,12,13,1953.1662538999224,1955.1924658999776,1956.707611599937,1961.7258229998408,1962.3065410000272,1962.306545800064,1963.8228722999336,1964.8402338998856,q,14,0.5807180001866072,1,+10,574,-29.985214154927025,0.5153916555623681,-0.08671123394480551,1952148.0,22.891072865003995,2.9919281618774125,1.6585912903820352,1955682.0,,,,,1956.7049322174541,1953.170932217454,
130,36,24,F,1,3,122.0,8,4,high,6 + 7 + 9 - 3 + 5,24,22,23,24,1966.356969899964,1968.383655200014,1969.899539999897,1974.9176632999445,1975.3866707000416,1975.3866754998453,1976.902943399968,1977.9199826000256,e,24,0.4690074000973254,1,+10,584,-9.117622983109282,2.105915880781963,1.9454107401791445,1965339.0,0.5644129973633483,1.2656306985062038,1.2297932998807761,1968873.0,,,,,1969.8959322174542,1966.361932217454,
131,36,24,F,1,3,123.0,9,2,low,8 + 1 + 7 + 1 - 4,13,12,14,13,1979.436525899917,1981.463877199916,1982.978888999904,1987.997249499895,1989.0906562998423,1989.090662099887,1990.6072499998843,1991.6247662999667,e,13,1.093406799947843,1,+1,585,8.492248168594841,0.9858968043860052,-0.2059240865605525,1978419.0,-30.69083421881833,0.5657426328735946,0.7573063635808959,1981953.0,,,,,1982.975932217454,1979.4419322174542,
132,36,24,F,1,3,124.0,10,4,low,4 + 7 + 9 - 5 + 7,22,23,22,24,1993.1415060998409,1995.167410499882,1996.6830527998973,2001.702579200035,2002.114624799928,2002.114629499847,2003.6312861999031,2004.6484513999892,w,22,0.4120455998927355,1,+1,586,4.162523275898181,1.124227558568701,-0.06262105293182918,1992123.0,9.030428695410258,0.7513129419242013,0.3452083464655611,1995658.0,,,,,1996.680932217454,1993.1459322174542,
133,36,24,F,1,3,125.0,11,2,low,9 + 4 - 6 + 1 - 1,7,8,7,9,2006.1653251999523,2008.1927702999676,2009.7077539998568,2014.7259184999857,2015.0986925999168,2015.0986981999597,2016.6153692998923,2017.6322516999207,w,7,0.3727740999311209,1,+1,587,-3.763248219096082,0.11548864690408012,-0.13237607399537854,2005148.0,-11.866609074510276,1.1668939977585566,0.06522792070270267,2008681.0,,,,,2009.7039322174542,2006.170932217454,
134,36,24,F,1,3,126.0,12,1,low,9 + 8 + 1 + 1 - 1,18,17,18,19,2019.1495228998829,2021.176255099941,2022.691476800013,2027.7109445999376,2028.194653699873,2028.1946588000285,2029.7111934998536,2030.728055199841,w,18,0.4837090999353677,1,+1,588,-5.629214583551045,-0.10849329802774799,-0.20714367788616128,2018131.0,1.3500429693980038,-0.10076969038410422,0.17714649059485765,2021666.0,,,,,2022.688932217454,2019.1539322174542,
135,36,24,F,1,3,127.0,13,3,high,3 + 8 + 1 + 5 - 9,8,9,8,7,2032.2447968998456,2034.2707342000213,2035.7860622999724,2040.8042711999733,2041.8106279999483,2041.810633199988,2043.3270987998692,2044.3443996999413,q,9,1.0063567999750376,0,+0,588,-13.265568040012052,0.3360980876551274,-0.17375378840051336,2031226.0,-22.104085623299184,0.8190178484885724,-0.14167775402947846,2034760.0,,,,,2035.7829322174541,2032.2489322174542,
136,36,24,F,1,3,128.0,14,2,high,5 - 8 + 7 + 1 + 1,6,7,6,8,2045.8613114999607,2047.88829370006,2049.4040474998765,2054.450204799883,2055.2028494998813,2055.202856000047,2056.7198564000428,2057.73727110005,w,6,0.7526446999981999,1,+10,598,-42.702545441819396,0.7425986814803895,0.05659266533990248,2044842.0,2.683227087231778,0.41175950554861895,-0.15239529530290374,2048405.0,,,,,2049.4279322174543,2045.8649322174542,
137,36,24,F,1,3,129.0,15,1,high,8 + 1 + 1 + 1 - 3,8,9,6,8,2059.2545229999814,2061.282028199872,2062.7970620999117,2067.8151847999543,2068.7227665998507,2068.7227719000075,2070.2392746999394,2071.2565267998725,e,8,0.907581799896434,1,+10,608,5.872278734737346,0.5541280267759037,0.7195240969963517,2058237.0,34.60021034709844,-0.40478407616048306,-0.45208699098250626,2061770.0,,,,,2062.792932217454,2059.259932217454,
138,36,24,F,1,3,130.0,16,1,high,6 + 1 + 8 + 1 - 1,15,13,15,14,2072.77329859999,2074.796556700021,2076.311793099856,2081.3300159999635,2081.74676540005,2081.746770299971,2083.263403899968,2084.2808623998426,w,15,0.4167494000867009,1,+10,618,9.831744381413346,0.10028952555557114,-0.14710252301042903,2071752.0,21.962756054773187,0.3024471743199002,0.15659155778204648,2075285.0,,,,,2076.307932217454,2072.774932217454,
139,36,24,F,1,3,131.0,17,1,high,6 + 1 + 1 + 9 - 1,16,14,16,15,2085.797715499997,2087.822698300006,2089.338167199865,2094.3560748999007,2095.122835200047,2095.1228401998524,2096.6393656998407,2097.6570906999987,w,16,0.7667603001464158,1,+10,628,-28.057095548456545,0.10673708030474494,-0.34682723815189753,2084777.0,-18.031952534620913,-0.31531132220374003,0.09811235006575636,2088311.0,,,,,2089.3339322174543,2085.799932217454,
140,36,24,F,1,3,132.0,18,2,high,9 + 5 - 6 + 1 - 1,8,9,8,7,2099.174088299973,2101.2015664000064,2102.716580499895,2107.734819599893,2112.346822399879,2112.346827900037,2113.863361899974,2114.88056900003,w,8,4.61200279998593,1,+10,638,10.566772348202825,3.099179543920319,0.8389231558231409,2098156.0,0.27272153635106644,-0.6525421447214361,-0.07646383396017153,2101689.0,,,,,2102.711932217454,2099.178932217454,
141,36,24,F,1,3,133.0,19,1,high,3 + 1 + 9 + 1 + 1,15,15,17,14,2116.3982333999597,2118.4240834999364,2119.9390092999674,2124.9566369999666,2125.3387337999884,2125.3387386999093,2126.855163499946,2127.8722428998444,q,15,0.3820968000218272,1,+10,648,10.960206683522578,-0.010488763205986906,-0.06540632684190495,2115379.0,-14.652081017705699,-0.07227073834403575,-0.04324598657454848,2118912.0,,,,,2119.934932217454,2116.401932217454,
142,36,24,F,1,3,134.0,20,3,high,2 + 9 - 3 + 4 + 1,13,13,14,11,2129.388969699852,2131.413221299881,2132.928404500009,2137.9468224998564,2138.546747199958,2138.546752399998,2140.06380870007,2141.081264500041,q,13,0.5999247001018375,1,+10,658,-21.989148267115667,0.42995509052302205,-0.05377728584986441,2128368.0,-44.946777087868256,0.19844534202001407,-0.1837769980792756,2131901.0,,,,,2132.923932217454,2129.390932217454,
143,36,24,F,1,3,135.0,21,1,low,9 + 7 + 1 + 1 + 1,19,18,20,19,2142.597713599913,2144.6246211999096,2146.139911300037,2151.159028799972,2151.7068181999493,2151.706823399989,2153.2234477999154,2154.2403807998635,e,19,0.5477893999777734,1,+1,659,-21.50777620554249,-0.07377759913039128,-1.0740441362806004,2141579.0,-8.418772574901933,-0.14302685727100517,-0.22813647955976224,2145113.0,,,,,2146.135932217454,2142.6019322174543,
144,36,24,F,1,3,136.0,22,3,high,9 + 3 - 4 + 6 + 7,21,22,21,23,2155.7580615999177,2157.7854382998776,2159.3001017998904,2164.318647200009,2164.738805099856,2164.73881000001,2166.2557562000584,2167.2730540998746,w,21,0.4201578998472541,1,+10,669,17.70285323866353,0.13458912450889748,-0.17466308244245798,2154740.0,-28.36584086955746,0.14128052797283086,0.07356078363748608,2158273.0,,,,,2159.2959322174543,2155.762932217454,
145,36,24,F,1,3,137.0,23,3,low,8 + 3 + 1 - 7 + 9,14,15,12,14,2168.790021699853,2170.811951600015,2172.3272175998427,2177.346068999963,2178.130785800051,2178.1307908999734,2179.647234800039,2180.664261600002,e,14,0.7847168000880629,1,+1,670,11.762369676907458,0.47861113202780725,-0.28835434890865574,2167766.0,3.1461190031491704,0.3298185787671759,-0.10828226948000719,2171300.0,,,,,2172.3229322174543,2168.788932217454,
146,36,24,F,1,3,138.0,24,4,low,8 + 4 + 7 - 5 - 6,8,9,8,7,2182.180963499937,2184.204303700011,2185.719659300056,2190.738072999986,2195.458874200005,2195.458879200043,2196.9754474000074,2197.9922682999168,w,8,4.720801200019196,1,+1,671,2.610116628872847,1.0596122841016076,-0.07677786073330806,2181159.0,-9.515618604977213,-3.0504063944851474,-1.407823249272143,2184692.0,,,,,2185.714932217454,2182.1819322174542,
147,36,24,F,1,3,139.0,25,4,low,8 + 4 - 5 + 7 - 6,8,6,8,7,2199.508954499848,2201.5341626999434,2203.049375399947,2208.067694999976,2208.4829253000207,2208.482930700062,2209.999429599848,2211.016387499869,w,8,0.4152303000446409,1,+1,672,23.921687418849565,2.5210331751584323,2.1778665541023523,2198488.0,14.474156123511632,0.054354082707993356,-0.4948403779500845,2202022.0,,,,,2203.044932217454,2199.510932217454,
148,36,24,F,1,3,140.0,26,4,high,8 + 4 + 7 - 5 - 6,8,9,8,6,2212.53313919995,2214.558804200031,2216.0741454998497,2221.094325599959,2221.554747799877,2221.554752799915,2223.071275800001,2224.088474399876,w,8,0.4604221999179572,1,+10,682,0.5748617511348524,0.9370282588102259,0.26347047005172675,2211513.0,17.139596803181746,0.6142559754243835,-0.06435123644263863,2215049.0,,,,,2216.071932217454,2212.535932217454,
149,36,24,F,1,3,141.0,27,2,high,5 - 1 + 1 + 8 + 9,22,21,22,23,2225.605189899914,2227.632054100046,2229.146967299981,2234.165079700062,2235.1868475999217,2235.1868528998457,2236.7035170998424,2237.721079699928,w,22,1.0217678998596966,1,+10,692,-73.72653708103402,0.6803347767758572,-0.1967613310966989,2224586.0,23.22027830527084,0.5188948831663627,0.03242030804812934,2228119.0,,,,,2229.1419322174543,2225.608932217454,
150,36,24,F,1,3,142.0,28,1,high,5 + 1 + 1 + 9 + 1,17,16,17,19,2239.237833299907,2241.2636346998625,2242.7789650999475,2247.79675139999,2248.2988700999413,2248.298875899985,2249.8155974999536,2250.83284789999,w,17,0.5021186999510974,1,+10,702,-11.253445338949515,0.3608379979573484,0.19416519745530403,2238218.0,0.9366839625674626,-0.2934591320145179,0.0696790467402364,2241751.0,,,,,2242.7739322174543,2239.240932217454,
151,36,24,F,1,3,143.0,29,4,low,3 + 8 - 4 + 9 + 6,22,22,23,21,2252.3494648998603,2254.378143399954,2255.8932533999905,2260.911430899985,2261.3388387998566,2261.338843599893,2262.85541389999,2263.8727806999814,w,23,0.4274078998714685,0,+0,702,18.203182310069685,0.9808755941677383,-0.046008104034594766,2251331.0,-7.560009218749718,0.9455560169764383,-0.009572049374990232,2254865.0,,,,,2255.887932217454,2252.3539322174543,
152,36,24,F,1,3,144.0,30,3,high,3 + 1 + 6 - 8 + 9,11,12,11,13,2265.389577999944,2267.417131499853,2268.932861600071,2273.9509236000013,2274.3628469000105,2274.362851700047,2275.879280099878,2276.89651770005,w,11,0.4119233000092208,1,+10,712,-38.198019357347,-2.9096252435685788,-0.9320122095415924,2264371.0,7.565092068804909,-0.08980865134589511,-0.37973002734153205,2267905.0,,,,,2268.9279322174543,2265.393932217454,
153,36,24,F,1,3,145.0,31,4,low,6 + 9 - 7 + 8 - 5,11,12,13,11,2278.413523199968,2280.4399874999654,2281.955273899948,2286.9737565999385,2288.274857299868,2288.2748624000237,2289.791338099865,2290.808608100051,w,13,1.3011006999295205,0,+0,712,-12.121637859122837,1.3308343353128285,1.401375988144034,2277393.0,-8.257740056642218,-0.1275400570237073,-0.45767530754614505,2280928.0,,,,,2281.950932217454,2278.415932217454,
154,36,24,F,1,3,146.0,32,1,low,7 + 1 + 6 + 1 + 1,16,18,16,17,2292.3256435999647,2294.351627399912,2295.8662630000617,2300.883860199945,2301.8108943998814,2301.81089990004,2303.327292599948,2304.344268399989,w,16,0.9270341999363154,1,+1,713,-3.44785737125466,1.096996547647008,0.027715883720680345,2291305.0,-20.93170702810091,0.3565064403123186,-0.10126273640040839,2294838.0,,,,,2295.8609322174543,2292.327932217454,
155,36,24,F,1,3,147.0,33,3,low,2 + 1 + 9 - 5 + 6,13,11,13,14,2305.8607892999426,2307.886580799939,2309.4018428998534,2314.4202568999026,2314.7709087999538,2314.7709139999934,2316.2873513000086,2317.3041926000733,w,13,0.3506519000511616,1,+1,714,49.16568092779046,1.7707402700353367,0.02349323795853664,2304840.0,6.101357682384151,0.772390094498971,-0.19658157739065718,2308374.0,,,,,2309.396932217454,2305.8629322174543,
156,36,24,F,1,3,148.0,34,2,high,2 + 1 + 9 - 4 + 1,9,9,11,8,2318.8206144999717,2320.848781700013,2322.364064299967,2327.3828654000536,2327.7869559000246,2327.786961199949,2329.303270699922,2330.321848300053,q,9,0.4040904999710619,1,+10,724,-30.503511686530608,0.6129815704585959,-0.0023810645760664606,2317802.0,15.295841365202044,0.4547029768324191,-0.028646704879165874,2321336.0,,,,,2322.358932217454,2318.8249322174543,
157,36,24,F,1,3,149.0,35,3,low,7 - 1 + 8 - 6 + 4,12,13,11,12,2331.838394399965,2333.8636195000727,2335.3789005000144,2340.398169599939,2341.8829164998606,2341.8829226000234,2343.3993037999608,2344.416271999944,w,11,1.484746899921447,0,+0,724,25.60778219658248,1.507669788242894,0.19398153624564607,2330817.0,-9.16562740378909,-0.06409213773219591,-0.8093426782968209,2334351.0,,,,,2335.3739322174542,2331.839932217454,
158,36,24,F,1,3,150.0,36,2,high,9 + 4 + 5 + 1 - 1,18,18,19,17,2345.932750799926,2347.9583075998817,2349.4741398999467,2354.4917045000475,2354.8829148998484,2354.8829198998865,2356.3995538000017,2357.416844499996,q,18,0.3912103998009115,1,+10,734,-8.635284400403368,1.7317257330816336,1.1347667802142545,2344912.0,-31.839257243039334,-6.786358326030829,-10.063651065681299,2348445.0,,,,,2349.4679322174543,2345.934932217454,
159,36,24,F,1,3,151.0,37,2,high,7 + 6 + 1 + 8 + 1,23,23,21,22,2358.933633999899,2360.9571720999666,2362.4723856998608,2367.4921531998552,2367.963045099983,2367.9630501999054,2369.4795508000534,2370.496853400022,q,23,0.4708919001277536,1,+10,744,21.425656289616924,0.5308695063769591,-0.016293525263905817,2357910.0,-22.74585844583494,0.5218692525092972,-0.07239384040897567,2361446.0,,,,,2362.468932217454,2358.932932217454,
160,36,24,F,1,4,152.0,0,2,high,6 + 1 + 1 + 7 - 9,6,6,8,4,2413.703418300021,2415.730355100008,2417.2456074999645,2422.26566779986,2422.63492750004,2422.6349324998446,2424.1520674000494,2425.1692387000658,q,6,0.3692597001791,1,+10,754,31.95302698798227,2.6489721473283954,3.8808867554448785,2412683.0,11.680185971580352,0.5256923871071066,-0.3696654883732715,2416218.0,,,,,2417.240932217454,2413.705932217454,
161,36,24,F,1,4,153.0,1,2,low,4 + 7 + 1 + 1 - 8,5,4,7,5,2426.6862089999486,2428.714593899902,2430.2297531999648,2435.2482057998423,2435.7150596999563,2435.715065199882,2437.231624699896,2438.249138299841,e,5,0.4668539001140743,1,+1,755,13.78574389091844,1.0964812501140706,-0.09616675268576236,2425667.0,-7.594100366915992,-0.3797823272736318,-0.8572147560654453,2429201.0,,,,,2430.223932217454,2426.689932217454,
162,36,24,F,1,4,154.0,2,2,high,6 + 8 + 1 + 1 - 7,9,8,9,11,2439.765911199851,2441.7924545998685,2443.30722409999,2448.327516800025,2448.8030463999603,2448.8030518998858,2450.3197218000423,2451.336720000021,q,8,0.4755295999348163,0,+0,755,18.369693045003363,0.6301951803600501,0.04839220137759481,2438745.0,10.139944480009731,0.19981788261624445,1.5068766943878718,2442280.0,,,,,2443.3029322174543,2439.767932217454,
163,36,24,F,1,4,155.0,3,2,low,6 + 1 + 7 - 8 - 1,5,4,5,7,2452.8537715000566,2454.8788347998634,2456.39405309991,2461.4140907998662,2462.8989941000477,2462.898999699857,2464.4154928999487,2465.432601799956,w,5,1.4849033001810312,1,+1,756,-4.571719433981018,1.890163572432856,-0.21305436340217998,2451831.0,-2.4178277548835148,0.28247323384858003,-0.13217158252621175,2455367.0,,,,,2456.3899322174543,2452.8539322174543,
164,36,24,F,1,4,156.0,4,3,high,8 - 1 + 6 - 7 + 5,11,12,13,11,2466.9501340000425,2468.9775373998564,2470.492788600037,2475.511417399859,2476.3310775000136,2476.3310821000487,2477.847060699947,2478.8643519000616,e,11,0.8196601001545787,1,+10,766,21.868594394219492,0.9542527189113894,0.04399132292430474,2465930.0,11.30298903331432,0.7552032694953397,-0.1805363543604015,2469464.0,,,,,2470.486932217454,2466.952932217454,
165,36,24,F,1,4,157.0,5,4,low,7 + 6 + 8 - 4 + 5,22,23,21,22,2480.381377999904,2482.410305999918,2483.9255518999416,2488.944302599877,2489.715010300046,2489.7150150998496,2491.231362899998,2492.247996999882,e,22,0.7707077001687139,1,+1,767,9.074003682672124,-14.682109063743892,-17.78604311185558,2479362.0,22.127006050243136,0.6683491637605576,0.22019120962683147,2482897.0,,,,,2483.919932217454,2480.384932217454,
166,36,24,F,1,4,158.0,6,2,high,3 + 8 + 1 - 5 + 1,8,9,8,6,2493.7647678998765,2495.7875373999123,2497.303413499845,2502.3213031999767,2503.179047199897,2503.1790525999386,2504.6954512998927,2505.712671499932,w,8,0.8577439999207854,1,+10,777,-13.424463452799763,2.6230804571314477,0.8033520030782835,2492740.0,8.30451377215669,-4.101029291879535,-1.6998711974801597,2496274.0,,,,,2497.296932217454,2493.762932217454,
167,36,24,F,1,4,159.0,7,4,low,4 + 9 - 7 + 8 + 5,19,19,20,21,2507.2296010998543,2509.2530177000444,2510.7681664000265,2515.78657129989,2516.2110266999807,2516.2110315000173,2517.727355699986,2518.7442727999296,q,19,0.4244554000906646,1,+1,778,-14.568066952257475,1.214015570425389,-0.10315420250766305,2506206.0,-43.41356104994839,1.3914863990676376,0.07369430818571843,2509739.0,,,,,2510.761932217454,2507.2289322174543,
168,36,24,F,1,4,160.0,8,4,low,8 + 7 - 4 + 5 + 9,25,25,26,24,2520.261015200056,2522.287493099924,2523.802467699861,2528.8206480999943,2531.307123299921,2531.307128599845,2532.8247201999184,2533.8418081998825,q,25,2.486475199926645,1,+1,779,27.15405981608012,1.1391131031966268,-0.001802191756324678,2519240.0,-22.71008181864822,6.970857848428084,3.341157038743736,2522773.0,,,,,2523.7959322174543,2520.262932217454,
169,36,24,F,1,4,161.0,9,3,high,2 + 9 + 1 - 5 + 7,14,15,14,12,2535.3586607000325,2537.386016600067,2538.901281799888,2543.921218100004,2544.4432389999274,2544.443244299852,2545.9594837999903,2546.976764600025,w,14,0.5220208999235183,1,+10,789,35.717646847318264,0.4310352141011391,-0.13462356524078523,2534338.0,-17.410902016722396,0.6905711339934779,-0.07971101751349341,2537873.0,,,,,2538.895932217454,2535.3609322174543,
170,36,24,F,1,4,162.0,10,2,low,2 + 9 - 4 + 1 + 1,9,9,11,8,2548.4937525000423,2550.5214662998915,2552.0367526998743,2557.0551342999097,2559.26716599986,2559.2671713999007,2560.7838707999326,2561.8007987998426,q,9,2.2120316999498755,1,+1,790,-0.1840535269379533,1.4855265924165657,0.21972322139849831,2547474.0,-20.570662028653548,0.7830799653398777,-0.05500046229748179,2551008.0,,,,,2552.030932217454,2548.4969322174543,
171,36,24,F,1,4,163.0,11,4,high,4 + 7 + 8 - 3 + 9,25,24,26,25,2563.317520600045,2565.34500760003,2566.8601998998784,2571.878762600012,2572.707035299856,2572.7070402998943,2574.2237889999524,2575.2414903000463,e,25,0.8282726998440921,1,+10,800,-10.079887480912824,1.2939899603030685,0.16695048322568695,2562297.0,-35.66164060662871,0.5113312909776968,0.03820927881741998,2565831.0,,,,,2566.8539322174543,2563.319932217454,
172,36,24,F,1,4,164.0,12,3,high,4 + 1 + 8 + 9 - 5,17,19,17,18,2576.758201099932,2578.782421000069,2580.2977950000204,2585.315839200048,2586.035167699913,2586.0351730999537,2587.551696900045,2588.568912199931,w,17,0.7193284998647869,1,+10,810,5.856157416941169,-2.811727955480941,-1.3172283963672329,2575734.0,-9.518835449040335,-0.7111591465619065,0.021368536896585244,2579268.0,,,,,2580.290932217454,2576.756932217454,
173,36,24,F,1,4,165.0,13,2,low,4 + 1 + 9 + 1 - 6,9,7,9,8,2590.085102400044,2592.1110068999697,2593.626439600019,2598.6445074998774,2599.0670731000137,2599.0670783999376,2600.5835891999304,2601.6005981999915,w,9,0.4225656001362949,1,+1,811,-13.997763321372222,2.5996464180563335,2.1127273395228805,2589063.0,10.41193640260349,0.6697930592719139,-0.031119745462791837,2592596.0,,,,,2593.618932217454,2590.0859322174542,
174,36,24,F,1,4,166.0,14,2,high,7 + 8 + 1 + 9 + 1,26,25,24,26,2603.1175899000373,2605.1454074999783,2606.660662799841,2611.6783990999684,2612.939154000021,2612.939159299945,2614.45567289996,2615.472790600033,e,26,1.2607549000531435,1,+10,821,-10.775846829330298,0.719774677139577,-0.23675276201157258,2602097.0,-9.909717917908178,0.7075663392326295,-0.4399047335688713,2605631.0,,,,,2606.653932217454,2603.1199322174543,
175,36,24,F,1,4,167.0,15,3,low,3 + 1 + 8 - 5 + 6,13,15,13,14,2616.989491000073,2619.016311599873,2620.531618699897,2625.5508556000423,2625.963137099985,2625.9631423000246,2627.4795639000367,2628.496400299948,w,13,0.4122814999427646,1,+1,822,15.011295056502092,1.5655798141731396,0.40243304874715236,2615968.0,26.669784136777402,0.22376888800278483,-0.43514364736368405,2619503.0,,,,,2620.5259322174543,2616.990932217454,
176,36,24,F,1,4,168.0,16,3,low,5 + 6 - 4 - 1 + 8,14,14,16,15,2630.0137515000533,2632.0377046999056,2633.553020299878,2638.571270799963,2639.275161099853,2639.2751662998926,2640.792581100017,2641.8096844998654,q,14,0.7038902998901904,1,+1,823,12.554723545759444,0.5221833708950441,-0.12251865447586141,2628990.0,22.77762482062454,1.1787255956045777,-0.14348643250764592,2632523.0,,,,,2633.5459322174543,2630.012932217454,
177,36,24,F,1,4,169.0,17,3,low,5 + 6 - 4 - 1 + 7,13,14,15,13,2643.3269469998777,2645.35075689992,2646.86589929997,2651.8861266998574,2652.235184099991,2652.2351889000274,2653.751596499933,2654.769121099962,w,15,0.3490574001334607,0,+0,823,2.323254079861787,0.7894093037353827,-0.04024285449684317,2642303.0,-18.06718568335932,0.2145046528612058,-0.010615788585658148,2645838.0,,,,,2646.8609322174543,2643.325932217454,
178,36,24,F,1,4,170.0,18,4,low,5 + 7 - 4 + 8 + 6,22,23,24,22,2656.286179499933,2658.314810300013,2659.830050799996,2664.8483998999,2665.283115899889,2665.2831204000395,2666.7992527000606,2667.815938899992,e,22,0.434715999988839,1,+1,824,-13.357609369643821,-1.1008522822437659,0.18597052958824833,2655266.0,-1.317092234018741,0.9611248528486516,-0.022696928557068397,2658800.0,,,,,2659.8229322174543,2656.288932217454,
179,36,24,F,1,4,171.0,19,3,high,4 + 7 - 3 + 5 - 1,12,13,11,12,2669.3326278000604,2671.359307500068,2672.874398399843,2677.8945285999216,2678.4352468000725,2678.4352517998777,2679.9521842999384,2680.9694939998444,e,12,0.5407182001508772,1,+10,834,-1.6781157075961488,-0.046305497872592305,1.8002513877988413,2668311.0,3.694233776032817,-0.018462691859029157,-0.3543972389706489,2671846.0,,,,,2672.868932217454,2669.3339322174543,
180,36,24,F,1,4,172.0,20,3,high,5 + 1 + 7 - 8 + 6,11,9,13,11,2682.486402000068,2684.5118449998554,2686.0271467999555,2691.0453383000568,2691.8592866000254,2691.8592918999493,2693.376107099932,2694.393466599984,e,11,0.8139482999686152,1,+10,844,9.654352696709884,0.7102275569626095,-0.0033675652430114056,2681462.0,-21.862419382340832,0.6374947506880471,0.025833614151618445,2684997.0,,,,,2686.019932217454,2682.484932217454,
181,36,24,F,1,4,173.0,21,1,high,9 + 1 + 1 + 7 - 1,17,19,16,17,2695.910426300019,2697.935363299912,2699.4504744000733,2704.4686978999525,2704.939231700031,2704.939237199957,2706.4558472000062,2707.4735812,e,17,0.4705338000785559,1,+10,854,-12.847879887599841,0.3224077560155725,-0.18468734397418984,2694887.0,23.181292670670054,-0.09776175066348847,-0.16653206826006617,2698420.0,,,,,2699.442932217454,2695.9099322174543,
182,36,24,F,1,4,174.0,22,4,high,4 + 7 - 8 + 9 - 4,8,9,7,8,2708.9905443000607,2711.017473899992,2712.532332599861,2717.5514128999785,2718.2032155999914,2718.203220899916,2719.719615200069,2720.73768819985,e,8,0.6518027000129223,1,+10,864,-5.2410673112841195,1.159754652362512,-0.017942997097865065,2707969.0,-7.345444386325905,0.7453184623105904,0.06815434627418804,2711502.0,,,,,2712.524932217454,2708.991932217454,
183,36,24,F,1,4,175.0,23,4,low,9 + 7 - 5 + 8 + 6,25,27,24,25,2722.2549234000035,2724.2826300000306,2725.7976160000544,2730.816349999979,2731.411171699874,2731.4111764999107,2732.9272070999723,2733.9437001000624,e,25,0.5948216998949647,1,+1,865,-44.69639316222501,0.3019275599570248,-0.4312429324978133,2721234.0,-29.13320498026634,1.2756318408527676,-7.734857300834008e-05,2724768.0,,,,,2725.790932217454,2722.256932217454,
184,36,24,F,1,4,176.0,24,4,low,3 + 9 - 5 + 8 - 7,8,7,9,8,2735.460703599965,2737.4832744998857,2738.99819149985,2744.0167517999653,2744.651347100036,2744.65135239996,2746.1676306000445,2747.184857999906,q,7,0.6345953000709414,0,+0,865,-30.499739928333774,0.9493605398943612,-0.13153273919762865,2734435.0,-20.935300176231877,1.1703045649763464,0.02925246185801167,2737968.0,,,,,2738.990932217454,2735.457932217454,
185,36,24,F,1,4,177.0,25,1,high,3 + 1 + 9 + 1 - 1,13,13,14,12,2748.7018674998544,2750.7308348000515,2752.246078999946,2757.264036499895,2757.9071986998897,2757.9072036000434,2759.4237045999616,2760.441061099991,q,13,0.6431621999945492,1,+10,875,3.6366714073840534,0.6651264538954749,0.15074146835822733,2747682.0,6.75188622505751,-4.183418211495699,-1.6185191724729373,2751215.0,,,,,2752.2379322174543,2748.704932217454,
186,36,24,F,1,4,178.0,26,2,low,8 + 1 + 1 + 9 - 4,15,15,16,14,2761.959276499925,2763.985335299978,2765.500243299873,2770.517988800071,2770.9792346998584,2770.9792398000136,2772.495751499897,2773.512525100028,q,15,0.4612458997871727,1,+1,876,18.653049147987296,1.914550201323722,3.293346668719093,2760936.0,43.52536818707335,-0.8764028542424063,-1.3599140907004656,2764469.0,,,,,2765.491932217454,2761.9589322174543,
187,36,24,F,1,4,179.0,27,2,low,6 + 1 + 1 + 7 - 9,6,8,6,4,2775.030025499873,2777.054016500013,2778.5689604999498,2783.5876072000246,2784.755217300029,2784.755222500069,2786.271826799959,2787.2887806000654,w,6,1.167610100004822,1,+1,877,-10.059601211264512,-13.039561597486486,-8.614579146166566,2774005.0,18.366811913466424,0.790482942978112,-0.05320411883815268,2777538.0,,,,,2778.560932217454,2775.0279322174542,
188,36,24,F,1,4,180.0,28,2,low,5 + 1 + 7 - 6 + 1,8,6,8,7,2788.805638599908,2790.8323832000606,2792.347407100024,2797.3657791998703,2797.827297099866,2797.8273030000278,2799.3435963999946,2800.3602934998926,w,8,0.4615178999956697,1,+1,878,-2.6172360745457226,3.6051717414624758,0.5169352760973664,2787783.0,15.532297111785208,-0.4730000149796627,-0.8774532771769681,2791316.0,,,,,2792.338932217454,2788.805932217454,
189,36,24,F,1,4,181.0,29,4,low,7 + 8 - 4 + 6 + 5,22,23,22,21,2801.877281199908,2803.90388290002,2805.4191709998995,2810.439133099979,2811.323359400034,2811.323364699958,2812.8491622998845,2813.8664575999137,e,21,0.8842263000551611,0,+0,878,-16.97061473556948,1.801968089467517,3.9088487120792577,2800855.0,3.8415900988698084,0.9122638033708861,-0.27413662870306954,2804390.0,,,,,2805.412932217454,2801.877932217454,
190,36,24,F,1,4,182.0,30,2,low,9 + 6 + 1 + 7 + 1,24,24,25,23,2815.383170699933,2817.410477400059,2818.925628100056,2823.9435546998866,2824.4112656998914,2824.411270699929,2825.9278639999684,2826.944718499901,q,24,0.4677110000047833,1,+1,879,15.433005750156639,0.5069936190176669,0.016113096405576233,2814361.0,26.640861324442955,0.7560562995714997,-0.0030655422581999936,2817894.0,,,,,2818.916932217454,2815.383932217454,
191,36,24,F,1,4,183.0,31,3,high,2 + 1 + 9 - 7 + 6,11,13,12,11,2828.461362199858,2830.4866152000614,2832.0018960000016,2837.02185359993,2837.451322299894,2837.451328099938,2838.9677822999656,2839.9853051998653,e,11,0.4294686999637633,1,+10,889,5.5981284937344515,-2.371552501187238,-8.104667011729942,2827437.0,13.97485359649514,0.5480750757034629,-0.3064885131205921,2830972.0,,,,,2831.9949322174543,2828.459932217454,
192,36,24,F,1,4,184.0,32,3,low,3 + 1 + 8 - 5 + 9,16,15,17,16,2841.501997599844,2843.526876299875,2845.042091199896,2850.060276699951,2850.531319499947,2850.5313241998665,2852.0477241000626,2853.065132699907,e,16,0.4710427999962121,1,+1,890,6.010031770030082,0.9462104939038651,-0.05791852928369545,2840477.0,-17.118932840971617,0.9111760497830872,0.08638251165497124,2844011.0,,,,,2845.033932217454,2841.499932217454,
193,36,24,F,1,4,185.0,33,4,high,3 + 9 - 4 + 7 + 6,21,21,20,19,2854.582155899843,2856.606793700019,2858.122094299877,2863.140416400041,2863.7073335000314,2863.707338599954,2865.2240283000283,2866.2414233000018,q,21,0.5669170999899507,1,+10,900,-18.631419891842345,0.4509059385412826,-0.19933881995589875,2853557.0,26.223395740498162,0.10864164893301798,-0.260342748886762,2857091.0,,,,,2858.113932217454,2854.579932217454,
194,36,24,F,1,4,186.0,34,4,high,3 + 9 - 5 + 6 + 8,21,23,22,21,2867.75811779988,2869.783774100011,2871.2986961000133,2876.316765599884,2876.827901700046,2876.827907099854,2878.3441932999995,2879.361457099905,e,21,0.5111361001618207,1,+10,910,5.963390051487934,0.64685957128422,0.030476683511322822,2866734.0,-5.936912530205637,-0.6245315682258328,-1.468902660099808,2870267.0,,,,,2871.289932217454,2867.756932217454,
195,36,24,F,1,4,187.0,35,2,high,5 + 8 + 1 - 1 + 9,22,21,23,22,2880.878382100025,2882.9058131999336,2884.421648999909,2889.440083199879,2889.915351799922,2889.9153565999586,2891.4323094000574,2892.4494485000614,e,22,0.4752686000429094,1,+10,920,-8.913220043732517,1.4495853540439594,3.510980322935576,2879856.0,-27.757035124208272,0.16982785960328783,-1.3584089234514614,2883390.0,,,,,2884.412932217454,2880.8789322174543,
196,36,24,F,1,4,188.0,36,4,high,4 + 7 + 8 - 3 + 9,25,25,26,24,2893.9660340999253,2895.9929575999267,2897.50823789998,2902.528176299995,2904.075348499929,2904.075353999855,2905.5920303000603,2906.609176900005,q,25,1.547172199934721,1,+10,930,-27.761985341346044,0.2787827202637816,-1.864377677123208,2892943.0,-13.630493604468734,0.650321258534535,-0.0019015931668708852,2896478.0,,,,,2897.500932217454,2893.9659322174543,
197,36,24,F,1,4,189.0,37,4,low,5 + 6 - 4 + 7 + 9,23,24,23,25,2908.126057999907,2910.151763800066,2911.6669081000146,2916.685256100027,2917.195459799841,2917.1954649998806,2918.712169599952,2919.729318999918,w,23,0.5102036998141557,1,+1,931,-4.123541695091208,0.17244643876133736,-5.220897881544086,2907102.0,24.968902286789227,0.7337819571129365,-0.3655306248773331,2910635.0,,,,,2911.6579322174543,2908.124932217454,
198,36,24,F,1,5,190.0,0,1,low,3 + 1 + 8 + 1 + 1,14,13,14,16,2969.111629599938,2971.138956699986,2972.653867499903,2977.6730972998776,2978.171482099918,2978.1714870999567,2979.688094099984,2980.7048235998955,w,14,0.4983848000410944,1,+1,932,23.98549840351918,-3.8106644234152247,-8.072772519027573,2968089.0,18.487546796634227,0.5652004225353418,-0.36996954047253205,2971623.0,,,,,2972.645932217454,2969.111932217454,
199,36,24,F,1,5,191.0,1,3,high,7 - 6 + 8 + 1 + 7,17,16,15,17,2982.2214321999345,2984.248463799944,2985.7632941999477,2990.781763999956,2991.307437299984,2991.307442399906,2992.824137700023,2993.8413611999717,e,17,0.5256733000278473,1,+10,942,9.6652274871876,6.044269673001876,3.6487226578582836,2981198.0,13.811759575971378,-0.19858578301518115,-0.8889367568132092,2984732.0,,,,,2985.754932217454,2982.220932217454,
