,id,age,sex,cued,block,trial,trialinblock,efflev,rewlev,calc,corAns,option1,option2,option3,tstart,ITI1Time,probTime,respTime,selectTime,ITI2Time,fbTime,ITI3Time,key_press,chosenAns,RT,acc,feedback,total_points,cuescr,cuecor,cuezyg,cuetime,probscr,probcor,probzyg,probtime,fbscr,fbcor,fbzyg,fbtime,probtime_c,cuetime_c,fbtime_c
0,37,21,F,0,Practice,,0,1,0,4 + 1 + 9 + 1 + 1,16,14,15,16,34.0949311000295,,34.09493330004625,39.12159510003403,41.083141800016165,41.08314780006185,42.60009999992326,43.62072720006108,e,16.0,1.9615466999821365,1,Correct,0,,,,,1.9683020797548316,0.5659260026199222,0.17208086996648797,33018.0,15.797593216629016,-0.14231773295570527,0.05551473652809902,41517.0,34.111321777022894,,42.6103217770229
1,37,21,F,0,Practice,,1,1,0,3 + 1 + 1 + 8 - 1,12,12,11,10,45.13712009997107,,45.13712300010957,50.15810639993288,51.50700099999085,51.50700760004111,53.02397689991631,54.04223869997077,q,12.0,1.3488946000579745,1,Correct,0,,,,,-19.05177174089907,-0.12753368892980932,0.03837899541595924,44055.0,1.6040826851733954,0.315038375855377,0.15945268436325843,51939.0,45.14832177702289,,53.032321777022894
2,37,21,F,0,Practice,,2,2,0,8 + 1 + 6 + 1 - 4,12,10,12,11,55.55997750000097,,55.559981300029904,60.57946559996344,61.795120799914,61.79512699996121,63.31253989995457,64.33084780001082,w,12.0,1.215655199950561,1,Correct,0,,,,,-3.174693034469735,-1.2610342339731244,-1.5225765518848022,54476.0,11.263665461219055,0.19686629549316015,0.007537941503892309,62227.0,55.56932177702289,,63.32032177702289
3,37,21,F,0,Practice,,3,2,0,9 + 4 - 6 + 1 - 1,7,5,7,6,65.84774999995716,,65.84775290009566,70.86787059996277,72.37894809991121,72.37895369995385,73.89505139994435,74.91249469993636,w,7.0,1.511077499948442,1,Correct,0,,,,,-13.561928617570073,0.06485223180553046,0.1274940963565223,64765.0,1.941969865256194,0.10025215275066834,0.19049978090384823,72809.0,65.8583217770229,,73.90232177702289
4,37,21,F,0,Practice,,4,3,0,9 + 3 - 5 + 6 + 7,20,20,21,22,76.42945410008542,,76.42945690010674,81.44880179991014,84.39507410000078,84.39508010004647,85.91163390013389,86.93019099999219,w,21.0,2.946272300090641,0,Incorrect,0,,,,,-5.460341838042774,0.3471781441168811,0.46104421419140573,75345.0,-12.57968293195926,-0.30719443635578125,0.3499996734223392,84827.0,76.43832177702289,,85.92032177702289
5,37,21,F,0,Practice,,5,3,0,2 + 1 + 9 - 7 + 6,11,11,9,10,88.44702109997161,,88.44702409999445,93.46595839993095,94.7391232000664,94.7391304001212,96.25623190007173,97.27451050002128,w,9.0,1.2731648001354188,0,Incorrect,0,,,,,37.38898257408854,-0.2266019268187751,-0.07047013757828147,87362.0,5.728999156776869,-2.6122527715555357,-2.7082789045313946,95171.0,88.45532177702289,,96.2643217770229
6,37,21,F,0,Practice,,6,4,0,4 + 8 + 5 - 3 + 7,21,21,23,22,98.79190860013478,,98.79191150004044,103.8120118000079,105.09112509991974,105.09113180008715,106.60811279993504,107.62595740007237,q,21.0,1.2791132999118418,1,Correct,0,,,,,-2.260275254955669,0.08508088218346721,0.1576451949476847,97708.0,11.998373467957432,0.06822715655475875,0.0659579160998578,105522.0,98.80132177702289,,106.6153217770229
7,37,21,F,0,Practice,,7,4,0,5 + 8 - 4 + 6 + 9,24,22,24,23,109.14330380014144,,109.1433067000471,114.16296410001814,115.33107460010795,115.33108090003952,116.84795910003596,117.86657160008326,w,24.0,1.1681105000898242,1,Correct,0,,,,,16.52516267074712,-0.01883198298584876,0.12151459300507561,108059.0,-1.7687436427152257,0.04699011792880636,-0.116022439535306,115762.0,109.15232177702289,,116.8553217770229
8,37,21,F,1,0,0.0,0,4,low,3 + 9 - 5 + 6 + 8,21,22,21,23,217.07285619992763,219.1015353999101,220.6166272999253,225.6343698001001,226.8167514000088,226.81675669993277,228.33362430008128,229.35026769991964,w,21.0,1.1823815999086946,1,+1,1,0.7494389538738737,0.7610710648834367,1.728483139697663,215997.0,3.6101881369561273,0.17348978883257038,-0.019084989163707267,219531.0,-19.917015834087294,-0.04930112160500855,-0.03126064508359061,227246.0,220.6243217770229,217.09032177702292,228.33932177702292
9,37,21,F,1,0,1.0,1,3,high,9 - 1 + 5 - 6 + 8,15,15,14,17,230.8666366999969,232.8918490000069,234.40677609993145,239.4248877000064,241.78483529994264,241.78484049998224,243.3016715000849,244.3191369001288,e,17.0,2.3599475999362767,0,+0,1,33.240499641682575,0.5863323706815105,-0.1267058430477399,229788.0,27.94441662036395,-0.1363353662710871,-0.013920668521236745,233321.0,11.925972272490693,0.602691780147965,-0.10588770518902457,386646.0,234.4143217770229,230.88132177702292,387.7393217770229
10,37,21,F,1,0,2.0,2,1,low,6 + 1 + 1 + 7 - 1,14,13,12,14,245.8359233001247,247.8605845000129,249.3760824999772,254.3947378001176,255.80881280009635,255.8088183000218,257.325534600066,258.3423627999145,e,14.0,1.4140749999787658,1,+1,2,4.4881827692503125,-0.11016288623211778,-0.05620818154506324,244756.0,9.317520466965659,-0.09587632432942073,0.46980588503002974,248290.0,3.219075702824134,0.46406629252998854,1.2538805028791034,256238.0,249.3833217770229,245.8493217770229,257.3313217770229
11,37,21,F,1,0,3.0,3,4,low,5 + 9 - 4 + 7 + 6,23,25,24,23,259.8594263000414,261.8846114000771,263.3999518000055,268.4186361001339,270.80083730001934,270.80084270006046,272.317367099924,273.33449340006337,e,23.0,2.3822011998854578,1,+1,3,-3.9464318938455527,-0.9293899946222846,-3.3039415911313914,258780.0,27.847635174844903,0.31507676865665957,2.634047273669822,262314.0,28.998347045823152,-0.04549919129655944,0.26057868679603446,271230.0,263.4073217770229,259.87332177702285,272.3233217770229
12,37,21,F,1,0,4.0,4,4,low,5 + 8 - 6 + 7 + 4,18,18,17,19,274.8513287999667,276.87526200013235,278.39042540011,283.4089063999709,284.63284650002606,284.63285170006566,286.14916929998435,287.1659494000487,q,18.0,1.223940100055188,1,+1,4,5.110782032032951,-0.7583251106483919,-9.041257248709737,273771.0,-24.857062630631116,-0.29498681434003604,0.016493198989537383,277305.0,-2.6301900372521514,0.4170840305557082,-0.33576913503091665,285062.0,278.3983217770229,274.8643217770229,286.1553217770229
13,37,21,F,1,0,5.0,5,2,high,6 + 1 + 7 - 8 - 1,5,4,7,5,288.6824882000219,290.7064618000295,292.2217576999683,297.2418065001257,300.3289030001033,300.3289087000303,301.8590383999981,302.8763403000776,e,5.0,3.0870964999776334,1,+10,14,-11.125546933611464,0.058908355273946,0.06066383616571036,287602.0,4.322335357308867,-7.080068057519725,-14.747092648131293,291137.0,-0.9819967589962824,2.8248579191599914,2.4182150081832963,300772.0,292.2303217770229,288.69532177702285,301.86532177702287
14,37,21,F,1,0,6.0,6,2,high,9 + 1 + 6 + 7 + 1,24,24,25,23,304.3931349001359,306.41583589999937,307.9309503000695,312.94920310005546,314.5368639000226,314.5368691999465,316.0533078999724,317.07057239999995,q,24.0,1.587660799967125,1,+10,24,-21.305397363911133,-2.1035500824287334,-1.6248853443410414,303311.0,24.24755846937963,0.09804307444760862,0.08224151317952533,306845.0,-13.792734205404697,0.20042989080745865,0.0515079109063068,314966.0,307.9383217770229,304.40432177702286,316.0593217770229
15,37,21,F,1,0,7.0,7,4,low,4 + 8 + 9 - 3 + 7,25,26,25,24,318.5875985999592,320.6111757000908,322.12635869998485,327.144902799977,329.27292690007016,329.2729323999956,330.78960669995286,331.8064137001056,w,25.0,2.128024100093171,1,+1,25,-34.15103575950853,0.3175937406405165,-0.08415966089108551,317506.0,18.710081328331093,0.15380861513599609,-0.0746206072328568,321040.0,9.5883595576176,-0.525527750198779,0.20954534403041825,329702.0,322.1333217770229,318.59932177702285,330.7953217770229
16,37,21,F,1,0,8.0,8,2,high,9 + 5 - 6 + 1 - 1,8,9,7,8,333.3229760001413,335.34452009992674,336.8590269999113,341.87746120011434,343.0649033000227,343.06490859994665,344.5812892001122,345.59835550002754,e,8.0,1.1874420999083668,1,+10,35,10.949586106982157,1.509119084722939,1.0953058740553612,332240.0,27.651231619329455,-0.15826701818513733,-0.04446920923626685,335773.0,-0.8570183647431513,-0.10486808332858022,0.06503557265075743,343494.0,336.8663217770229,333.3333217770229,344.5873217770229
17,37,21,F,1,0,9.0,9,1,high,7 + 1 + 6 + 1 + 1,16,17,16,18,347.1156425999943,349.1430784999393,350.6583841000684,355.6766254999675,356.6969497001264,356.6969550999347,358.2134092000779,359.2302939000074,w,16.0,1.0203242001589388,1,+10,45,7.615583219251164,3.1932044431939888,2.980753249512346,346038.0,35.47940134080779,0.8759761189168955,1.8453407401595805,349572.0,14.671815800036427,-0.3175387999133008,0.16327632127631464,357126.0,350.6653217770229,347.1313217770229,358.21932177702286
18,37,21,F,1,0,10.0,10,4,high,8 + 4 + 7 - 5 - 6,8,9,8,7,360.7469973000698,362.76990630012006,364.2851506001316,369.30368100013584,370.5529795999173,370.5529849000741,372.06963380007073,373.0868458000477,w,8.0,1.2492985997814685,1,+10,55,10.171098969506783,-0.3949732560278365,0.021194554861214243,359665.0,7.620099821450779,0.06436315516287205,0.09411531738081669,363199.0,1.860470685278603,-0.5798755644659828,-0.015485070814744706,370982.0,364.2923217770229,360.7583217770229,372.0753217770229
19,37,21,F,1,0,11.0,11,3,low,6 - 1 + 7 - 8 + 9,13,11,13,12,374.6035973001272,376.6250738000963,378.14018659992144,383.1600015999284,386.2169753001072,386.2169804999139,387.73429060005583,388.7512535999995,w,13.0,3.056973700178787,1,+1,56,-43.59546100719986,0.9356446460987158,0.11979604428918966,373520.0,30.512086861071772,0.13943833307175346,0.0969100078726044,377055.0,26.607373385228204,0.6014708752405777,0.4175202902232691,457381.0,378.1483217770229,374.61332177702286,458.47432177702285
20,37,21,F,1,0,12.0,12,4,high,8 + 4 + 7 - 5 - 6,8,9,8,6,390.2680427001324,392.2932873999234,393.80876610009,398.8275303000119,400.728892999934,400.7288983999752,402.24523080000654,403.2623813999817,w,8.0,1.9013626999221744,1,+10,66,17.956227600605267,-0.43031606988100357,-0.23168443579290487,389188.0,44.61596189342232,-0.8208168512065299,-0.28967881356396674,392722.0,-14.823621492253451,0.42933326752899337,0.888369444720575,401157.0,393.81532177702286,390.28132177702287,402.25032177702286
21,37,21,F,1,0,13.0,13,1,low,5 + 8 - 1 + 1 + 1,14,14,12,16,404.7792301999871,406.805284800008,408.3204340001103,413.34063290013,414.3537228999194,414.35372889996506,415.87039950001054,416.88714389991947,q,14.0,1.013089999789372,1,+1,67,-4.168056243327721,-5.423742607469876,-5.904408143657584,403700.0,22.37710156432338,-0.29809238988540354,0.0485190777275184,407235.0,-6.786335796404996,-5.265349222750087,-3.2098992894656524,414782.0,408.3283217770229,404.79332177702287,415.87532177702286
22,37,21,F,1,0,14.0,14,3,high,5 + 6 - 4 - 1 + 7,13,15,13,14,418.4038947999943,420.4310566999484,421.94636379997246,426.96478340006433,428.4570102000144,428.45701540005393,429.9736164000351,430.99082720000297,q,15.0,1.4922267999500036,0,+0,67,22.104162097258026,-12.382937563767264,-8.118902164170919,417326.0,-50.01640894803725,-0.09657212213788924,0.11464201018376263,420860.0,9.585245565273418,0.5956386014718955,-0.10726167116118068,472094.0,421.9533217770229,418.4193217770229,473.1873217770229
23,37,21,F,1,0,15.0,15,1,low,4 + 9 + 1 - 1 - 1,12,12,13,11,432.50780229992233,434.5327125999611,436.0477253999561,441.067186600063,442.35302960011177,442.3530347999185,443.8693675000686,444.8863321000245,q,12.0,1.2858430000487715,1,+1,68,2.4948972955358215,0.7213857466000224,0.13315347507529696,431427.0,7.273902731285661,-7.359607802560004,-6.557922608557947,434962.0,-29.13413307201067,-0.5020171873330082,0.05220187644242724,442781.0,436.05532177702287,432.5203217770229,443.8743217770229
24,37,21,F,1,0,16.0,16,3,high,5 + 6 + 7 - 1 - 9,8,7,9,8,446.4028249999974,448.4304502999876,449.9457418001257,454.96434430009685,456.95293290005066,456.9529383000918,458.4695909000002,459.4868238000199,e,8.0,1.9885885999538004,1,+10,78,-7.386637568104762,-0.1258954235751908,-0.1315903064095949,445325.0,-11.122235764433771,-10.766518056857715,-8.64485073954927,448859.0,17.87171152455435,0.059939416295287096,0.03754547235090744,485709.0,449.95232177702286,446.41832177702287,486.8023217770229
25,37,21,F,1,0,17.0,17,3,high,8 + 6 - 7 + 1 - 4,4,4,5,3,461.0037265000865,463.02641950012185,464.5414632000029,469.571180799976,471.6650783999357,471.6650841000956,473.1818174000364,474.1992548999842,q,4.0,2.093897599959746,1,+10,88,15.894510293489937,-0.7341749891366254,-1.6790983009854799,459921.0,14.20995049560049,0.22472613294046795,-0.04595397952412483,463466.0,19.265355480893284,0.33252106532098136,-0.1007219256038141,499830.0,464.5593217770229,461.0143217770229,500.92332177702286
26,37,21,F,1,0,18.0,18,3,high,3 + 8 - 7 + 1 + 9,14,14,13,12,475.7162419001106,477.7385231999215,479.253592299996,484.2721263000276,485.2810176999774,485.28102330002,486.7970998000819,487.8141340999864,q,14.0,1.008891399949789,1,+10,98,-21.656724880456228,0.5060929012267916,0.3281903056914097,474632.0,-28.068123241265173,-0.17136906574295452,-0.25196718758306513,478167.0,11.46018954173704,0.5960734066665365,0.03983010225808847,569237.0,479.26032177702285,475.7253217770229,570.3303217770228
27,37,21,F,1,0,19.0,19,3,high,4 + 7 - 3 + 5 - 1,12,11,13,12,489.3308689999394,491.3567643999122,492.87220490002073,497.8910980999936,499.4010229001288,499.4010280999355,500.9181860000826,501.9356972000096,e,12.0,1.5099248001351953,1,+10,108,17.66662555713367,0.5978842887693512,-1.1484712318306953,488251.0,15.962859899272523,-1.012668545950774,-0.39658711785552514,491786.0,-5.4182248607756485,-0.151954966819134,-0.11031848643800002,596628.0,492.8793217770229,489.34432177702286,597.7213217770229
28,37,21,F,1,0,20.0,20,4,high,4 + 7 - 8 + 9 - 3,9,11,8,9,503.4525504000485,505.47667160001583,506.9918684000149,512.0117997000925,513.1610825001262,513.1610878999345,514.6776710001286,515.6947198999114,e,9.0,1.1492828000336883,1,+10,118,-15.209864667668006,-1.0158824973153333,-0.07787413507697893,502371.0,-8.114711726131949,-0.6485953661762682,-0.027771286236531356,505906.0,-8.997721678030375,0.23870412493994042,0.06737895126447846,513589.0,506.9993217770229,503.46432177702286,514.6823217770229
29,37,21,F,1,0,21.0,21,1,high,5 + 6 + 1 + 1 + 1,14,16,15,14,517.2117786000017,519.2375018999446,520.7528077999596,525.7705946001224,526.8649991999846,526.8650043001398,528.3815580001101,529.398901199922,e,14.0,1.0944045998621732,1,+10,128,-24.206777799139992,-0.020132630944986296,0.0385229187313203,516132.0,14.013678779383891,-0.6738674198337131,-0.21892218902901694,519665.0,-9.413791043664139,0.3802309586737147,0.17926434996576845,527293.0,520.7583217770228,517.2253217770228,528.3863217770229
30,37,21,F,1,0,22.0,22,3,low,3 + 1 + 8 - 5 + 9,16,16,17,15,530.9156752999406,532.9419050000142,534.4569874000736,539.4753525000997,540.7370521000121,540.7370573000517,542.2530775999185,543.2704062000848,w,17.0,1.26169959991239,0,+0,128,-9.044198817000488,-0.2830039811099283,-0.037338188086074364,529836.0,14.22881688962449,-1.1300560934855275,0.07232912117358037,533369.0,-7.274844033474224,0.6569167871884183,0.2367673526124232,623748.0,534.4623217770229,530.9293217770229,624.8413217770229
31,37,21,F,1,0,23.0,23,3,low,6 - 1 + 7 - 8 + 9,13,11,12,13,544.7874481000472,546.8114628000185,548.3266433000099,553.3474115999416,555.1291223000735,555.1291277001146,556.6456269000191,557.6627104000654,w,12.0,1.7817107001319528,0,+0,128,2.3327955976297305,0.1610547681724741,-0.20854603803545535,543705.0,-9.635294200842617,0.2488229996041298,0.03599345138069587,547241.0,-6.6821732426762,0.5673194377399371,1.0215044198314045,653948.0,548.3343217770229,544.7983217770229,655.0413217770229
32,37,21,F,1,0,24.0,24,3,low,6 - 1 + 7 - 8 + 9,13,12,13,11,559.1794873999897,561.205305099953,562.7205799999647,567.740634100046,568.8091448000632,568.8091504001059,570.3257448000368,571.3427089999896,w,13.0,1.0685107000172138,1,+1,129,9.756239857716928,-1.1055360787396253,-0.3817301116894334,558099.0,5.431642736974333,-0.7364059971675951,-0.21529359854566632,561635.0,6.882510346973369,0.12297721196410549,0.2259108065500368,681501.0,562.7283217770229,559.1923217770229,682.5943217770229
33,37,21,F,1,0,25.0,25,2,low,4 + 9 - 7 + 1 - 1,6,6,5,8,572.8594542001374,574.8871359999757,576.4020956999157,581.420824999921,582.5931486999616,582.5931541000027,584.1099111000076,585.1264486999717,q,6.0,1.1723237000405788,1,+1,130,-9.657053678781908,1.8925757885328789,2.5110617119756293,571781.0,-6.819791448901206,7.052155440346369,9.298374155100408,575315.0,-4.942784928658405,6.914031082764757,4.258367042988666,583021.0,576.4083217770229,572.8743217770228,584.1143217770228
34,37,21,F,1,0,26.0,26,3,high,8 - 7 + 9 + 1 + 4,15,15,14,16,586.6430484000593,588.6686394999269,590.1840117000975,595.2044257000089,596.2010808999185,596.2010862999596,597.7173778000288,598.7344877999276,q,15.0,0.9966551999095828,1,+10,140,13.5012466005967,-6.584590115435026,-6.524501693352618,585563.0,-11.57593930681941,-1.2768228757767437,-2.994717056512763,589098.0,-7.087012235054644,0.5798267422352392,0.4213185734453304,751661.0,590.1913217770228,586.6563217770229,752.7543217770228
35,37,21,F,1,0,27.0,27,4,high,7 + 8 - 4 + 6 + 5,22,22,23,21,600.251350000035,602.2752505000681,603.7904232000001,608.8082701000385,609.7612553001381,609.7612604999449,611.2780403001234,612.2953258999623,q,22.0,0.952985200099647,1,+10,150,-7.378978023251937,3.4520130736605648,3.8498977864983526,599169.0,32.58664528366607,-0.372435323568995,0.14050421738816832,602702.0,7.0394949687988175,0.24304589528679799,-0.19858615739750318,610189.0,603.7953217770229,600.2623217770229,611.2823217770228
36,37,21,F,1,0,28.0,28,3,low,2 + 1 + 9 - 5 + 6,13,13,14,11,613.8117372000124,615.8373022000305,617.3530153001193,622.3715252000839,623.321102600079,623.3211077000014,624.8377932999283,625.854886499932,q,13.0,0.949577399995178,1,+1,151,18.34063958548939,-0.029009559442907396,-0.17120269377865194,612731.0,1.6318355504988658,-0.651082459400496,0.09406210933383008,616265.0,-31.17530467871299,0.48419105524300754,-0.004172560995828967,889371.0,617.3583217770229,613.8243217770229,890.4643217770229
37,37,21,F,1,0,29.0,29,2,low,6 + 1 + 8 + 7 - 1,21,21,23,19,627.3726923000067,629.3997023000848,630.9154926000629,635.9339471999556,639.1052650001366,639.1052705999464,640.6220357001293,641.6386841000058,q,21.0,3.1713178001809865,1,+1,152,15.641729002096346,0.3115497104902003,-0.02427659031367524,626293.0,-18.798984268258,0.13476684209072065,-0.050971697317810705,629828.0,-4.725916521549614,-0.5135042811956412,-0.0011808618314956831,639532.0,630.9213217770229,627.3863217770229,640.6253217770229
38,37,21,F,1,0,30.0,30,3,low,9 + 3 - 4 + 6 + 7,21,23,22,21,643.1552075000945,645.1833570001181,646.6987105999142,651.7170774000697,653.5210784999654,653.5210838001221,655.0378054999746,656.054737099912,e,21.0,1.804001099895686,1,+1,153,-2.3299710735189767,-2.7136025286938974,-2.227521999411853,642077.0,16.40037911117502,-0.644149483895573,0.05508473602534103,645611.0,11.195547969726377,-0.24306398214253466,0.2666577618646866,931115.0,646.7043217770229,643.1703217770229,932.2083217770229
39,37,21,F,1,0,31.0,31,2,high,4 + 9 + 1 - 7 - 1,6,8,6,5,657.5716027999297,659.5983007999603,661.1134828999639,666.132220899919,667.3371518000495,667.3371570999734,668.8537451000884,669.8717398999725,w,6.0,1.204930900130421,1,+10,163,-29.875898680291616,-1.1504225062466178,-0.9938102045659574,656492.0,18.72297209793079,-0.5787223988037873,-0.36982708921493757,660026.0,10.670767193627132,-8.381367617658483,-10.85061145055388,667764.0,661.1193217770228,657.5853217770228,668.8573217770229
40,37,21,F,1,0,32.0,32,3,high,4 + 5 - 3 + 7 - 1,12,12,11,13,671.3896276000887,673.4164649001323,674.931689399993,679.9502405000385,681.0732176001184,681.0732239999343,682.5903918000404,683.6075975999702,q,12.0,1.1229771000798792,1,+10,173,-14.888715464856876,2.4849321057271148,1.7472053317299547,670310.0,19.037586963043502,-9.682006613037304,-9.663017416985019,673844.0,4.586944040473597,-0.10732022731221935,0.3124291414339315,1030379.0,674.9373217770229,671.4033217770228,1031.472321777023
41,37,21,F,1,0,33.0,33,4,low,9 + 4 - 6 + 8 + 7,22,21,24,22,685.1245574001223,687.1512404000387,688.6664591999725,693.693986200029,694.7452189000323,694.7452243000735,696.2619459000416,697.278964499943,e,22.0,1.051232700003311,1,+1,174,-17.57878945832315,-0.16917906825576523,-0.35935008887340114,684044.0,-10.959476268126245,-0.8300329682585588,-0.062169078192511495,687587.0,-8.733011051386663,2.8790460473989112,2.817426144502115,695172.0,688.6803217770229,685.1373217770229,696.2653217770229
42,37,21,F,1,0,34.0,34,4,low,3 + 8 - 5 + 9 - 7,8,6,8,7,698.7956676001195,700.8195062999148,702.3345085000619,707.3532388000749,708.3612957999576,708.3613013001159,709.8779323000927,710.8951465999708,w,8.0,1.0080569998826832,1,+1,175,8.737147893770084,-8.500129393597996,-10.650305488287007,697713.0,6.18182775514687,-4.03569124212669,-2.0449924013275766,701246.0,9.187258280467876,1.5991510444623636,2.1101658706327897,708788.0,702.3393217770229,698.8063217770228,709.8813217770229
43,37,21,F,1,0,35.0,35,4,high,4 + 7 + 8 - 3 + 9,25,26,24,25,712.4116523999255,714.4385132000316,715.953508600127,720.9722917999607,723.9052118000109,723.9052174000535,725.4217630000785,726.4389601999428,e,25.0,2.932920000050217,1,+10,185,23.36793099304257,-0.033190350100213095,-0.27822782200099017,711332.0,5.423394034422639,-0.7811077370649837,-0.11481386495064205,714865.0,21.52993700098612,-0.028566314324597997,0.07609942490205146,724332.0,715.9583217770229,712.4253217770229,725.4253217770229
44,37,21,F,1,0,36.0,36,4,low,6 + 5 - 7 + 8 - 9,3,3,5,4,727.9556646000128,729.9830211000517,731.4976717999671,736.5162915999535,737.5212123000529,737.521218100097,739.0381922000088,740.0550782000646,q,3.0,1.0049207000993192,1,+1,186,10.22754442561067,0.5062826374415268,0.13667348812051694,726876.0,0.8808690960437673,-0.19982766865045676,-0.013431544045436894,730409.0,-8.008439214493611,0.061813161878460754,-0.044103391225501554,737948.0,731.5023217770229,727.9693217770229,739.0413217770229
45,37,21,F,1,0,37.0,37,3,low,3 + 1 + 6 - 8 + 9,11,13,11,12,741.5718318000436,743.5968333999626,745.112122300081,750.1315156000201,751.2331992001273,751.2332051000558,752.750790799968,753.7677541999146,w,11.0,1.101683600107208,1,+1,187,-6.914639457739111,-0.5349407725228517,0.2985602501575819,740490.0,-20.858664868159845,-0.8808691809681033,-0.10973437448790202,744024.0,-6.501690229754416,5.435581563680827,8.00305385127394,1061162.0,745.1173217770229,741.5833217770229,1062.255321777023
46,37,21,F,1,1,38.0,0,1,low,7 - 1 + 1 + 9 - 1,15,15,14,13,768.4537589000538,770.4808160001412,771.9961783001199,777.0163827000652,778.1452792000491,778.1452846999746,779.6623208001256,780.6802260000259,e,13.0,1.1288964999839664,0,+0,187,1.2414635018115234,-6.908489710373676,-6.746571966420952,767373.0,0.8754341104198247,-0.16445696845501523,0.15691264258380322,770909.0,-6.094037066556005,0.16844790505848994,0.040604594965584884,861963.0,772.0023217770229,768.4663217770229,863.0563217770228
47,37,21,F,1,1,39.0,1,4,low,8 + 3 - 4 + 5 + 9,21,22,23,21,782.1973077999428,784.2233303000685,785.7386658999603,790.7570649001282,791.8893037000671,791.8893091001082,793.4066228000447,794.4238915999886,e,21.0,1.132238799938932,1,+1,188,5.803565933698548,-8.137807976852413,-7.609324161201965,781116.0,-12.754750308698345,-0.349370338821859,-0.39058964028407317,784650.0,3.5405986795044315,-0.16984905671031925,-0.08671547628527909,792316.0,785.7433217770229,782.2093217770229,793.4093217770229
48,37,21,F,1,1,40.0,2,4,low,4 + 9 - 7 + 8 + 5,19,19,20,21,795.9407133001368,797.9648861000314,799.4801046999637,804.4987021000125,805.5533326000441,805.553337899968,807.0699440001044,808.0875067999586,e,21.0,1.0546305000316352,0,+0,188,10.125186172191093,13.678173748483161,10.42214232670656,794857.0,-8.474904966661995,-0.6425005597409807,-0.16485113057842682,798391.0,17.045357136957158,-0.11067997913681715,1.7277794490501899,820315.0,799.4843217770228,795.9503217770229,821.4083217770229
49,37,21,F,1,1,41.0,3,4,high,8 + 4 - 5 + 7 - 6,8,6,7,8,809.6053989999928,811.6312983001117,813.1470025000162,818.1654658000916,819.889296800131,819.8893025999423,821.4059184999205,822.423095599981,e,8.0,1.723831000039354,1,+10,198,-25.50280489471256,-5.171282547029511,-4.3168866395063095,808524.0,37.78696718233354,1.1267313201103955,0.37848687319843854,812058.0,12.746517810710525,0.35823977694641584,0.12874734805352528,834651.0,813.1513217770229,809.6173217770229,835.7443217770228
50,37,21,F,1,1,42.0,4,4,high,5 + 7 - 4 - 6 + 9,11,13,11,12,823.939911399968,825.9630545999389,827.4781774999574,832.4963625001255,834.2252915001009,834.2252968000248,835.7416582000442,836.7590622999705,w,11.0,1.7289289999753237,1,+10,208,-32.893311973469885,-0.9942178762157967,-7.153615519744079,822855.0,-6.180109777039183,2.8142502836459267,1.1382039550808365,826389.0,10.59022317096645,0.2487792994293212,-0.08144281481669502,959075.0,827.4823217770229,823.9483217770229,960.1683217770229
51,37,21,F,1,1,43.0,5,2,low,5 + 9 - 8 + 1 + 1,8,7,9,8,838.2759149000049,840.3005584001075,841.816332800081,846.8342460999265,847.9214319000021,847.9214375000447,849.437949599931,850.4554642001167,e,8.0,1.087185800075531,1,+1,209,20.157107667621162,-0.42304539966388965,0.09731080960590943,837193.0,-3.4291757919519146,-7.008346767036985,-7.0292221501161265,840727.0,10.38679222577927,1.952491484771782,1.4365969438545072,848347.0,841.8203217770229,838.2863217770229,849.4403217770229
52,37,21,F,1,1,44.0,6,1,low,2 + 9 + 1 + 1 + 1,14,12,13,14,851.9715897999704,853.9963205999229,855.5115167999174,860.5304644000717,861.5372697000857,861.5372748000082,863.0544116999954,864.0711759999394,e,14.0,1.0068053000140935,1,+1,210,-18.14871542604433,-12.970942643579193,-10.281310671915644,850888.0,21.948368862302527,0.5637199614681796,-0.1656816117516744,854422.0,7.283467989416462,-0.3061145563173868,0.0014610675187527455,875531.0,855.5153217770229,851.9813217770229,876.6243217770228
53,37,21,F,1,1,45.0,7,1,high,2 + 1 + 9 + 1 - 1,12,11,13,12,865.5878670001402,867.613536800025,869.1281670001335,874.1464937001001,875.1053816000931,875.1053875000216,876.6216003000736,877.6384525999893,e,12.0,0.9588878999929876,1,+10,220,-9.456268019123632,-0.1036457882594286,0.10755674886317168,864506.0,-6.447835668201451,0.20564955210591407,-0.17872480495334386,868039.0,-33.86395126115811,0.2701258031996252,0.004691942392477166,1074970.0,869.1323217770229,865.5993217770229,1076.063321777023
54,37,21,F,1,1,46.0,8,3,high,7 - 1 + 9 - 5 + 4,14,15,13,14,879.1552140000276,881.1800299999304,882.6957994000986,887.7143898999784,888.945380399935,888.9453861999791,890.4619926000014,891.4792903000489,e,14.0,1.230990499956533,1,+10,230,20.475588849789517,4.195473265121471,5.652342541313154,878072.0,-18.40790447531751,0.5146038409576521,1.495905159641001,881607.0,1.732999754536234,5.8750401119557605,3.2132305479029246,1102307.0,882.7003217770229,879.1653217770229,1103.400321777023
55,37,21,F,1,1,47.0,9,2,low,4 + 8 + 1 + 1 - 6,8,8,7,9,892.9960106001236,895.0236667001154,896.5388003999833,901.5567838000134,902.6653589000924,902.6653645001352,904.1821274000686,905.2004615999758,q,8.0,1.1085751000791788,1,+1,231,31.709070076417287,-1.3535887624488527,-6.572270317890638,891916.0,-21.47844247328982,-1.4055719548067325,-5.117217397872714,895449.0,22.919894136004856,0.6964680845540405,3.7575325692884842,903092.0,896.5423217770228,893.0093217770229,904.1853217770229
56,37,21,F,1,1,48.0,10,2,low,3 + 9 - 1 - 5 + 1,7,7,6,5,906.7174319000916,908.741061900044,910.2564165000804,915.2748215000612,916.3213800000958,916.3213852001354,917.8373672000598,918.854238800006,q,7.0,1.0465585000347346,1,+1,232,-15.729786563873477,1.3717918763508266,-0.2478450212966603,905633.0,6.821991616717735,-3.5841386575046226,-5.189197274813565,909167.0,10.035291562519607,11.128100202992455,10.641031778649529,916746.0,910.2603217770229,906.7263217770229,917.8393217770229
57,37,21,F,1,1,49.0,11,3,low,7 + 5 + 9 + 1 - 6,16,14,15,16,920.370914200088,922.3966735999566,923.9120096000844,928.9303701000754,930.6894153999164,930.6894209999592,932.2061044999864,933.2229663000908,e,16.0,1.759045299841091,1,+1,233,-14.861593006735735,-7.739487232526706,-7.344517281655982,919288.0,-11.175724355546189,-5.0815274842651075,-4.374580213911208,922822.0,-15.652096784990793,0.8568912261179049,1.149424424472727,1157578.0,923.9153217770229,920.3813217770229,1158.671321777023
58,37,21,F,1,1,50.0,12,2,low,7 + 8 + 1 + 9 + 1,26,26,25,24,934.740114599932,936.768392500002,938.2834993000142,943.301786000142,944.6014767000452,944.6014819999692,946.1177276999224,947.1344304999802,q,26.0,1.2996906999032944,1,+1,234,-26.729583857358065,-3.0359023556508387,-1.6142843450122362,933660.0,2.4935085506055388,-1.165259659802592,-1.3155352058595766,937193.0,-24.76799195702661,-0.969684587482373,-0.5918624716765786,945026.0,938.2863217770229,934.7533217770228,946.1193217770228
59,37,21,F,1,1,51.0,13,4,low,5 + 7 - 4 + 8 + 6,22,24,22,23,948.651050500106,950.6764440000989,952.1916831000708,957.2117296999786,958.6494517999236,958.6494571000804,960.1665237999988,961.1832735999488,w,22.0,1.4377220999449492,1,+1,235,0.3112059016908155,0.6062907370053621,-0.10920562059242167,947568.0,-8.189196216708789,-0.2620540431529781,-0.1371715067650383,951103.0,-41.169670869463594,-0.46122553758008333,-0.9209930905991159,972859.0,952.1963217770228,948.6613217770229,973.9523217770229
60,37,21,F,1,1,52.0,14,4,high,3 + 8 - 4 + 9 + 7,23,22,24,23,962.7002507001162,964.7280544000678,966.243311200058,971.2618549999316,972.4333311000372,972.4333365000784,973.949904100038,974.9670639000832,e,23.0,1.1714761001057925,1,+10,245,-6.698306804767595,6.461547097432508,6.3637096181402,961619.0,-14.382044142333024,-2.6852580657986334,-2.601458176974053,965153.0,-9.837976951936547,2.8905702344750743,3.253448004457311,1227337.0,966.2463217770229,962.7123217770229,1228.430321777023
61,37,21,F,1,1,53.0,15,2,high,8 + 1 + 7 + 1 - 4,13,13,14,12,976.4837672000284,978.5110498000868,980.0262454999612,985.0455784001388,986.057417999953,986.0574235999956,987.5738729999866,988.5915773001034,q,13.0,1.011839599814266,1,+10,255,3.216611014719337,0.7597080426678433,0.39650715585947705,975402.0,-23.254681633852467,0.4716661358300467,-0.45144352456480874,978936.0,8.797629999077852,1.8887603167115241,7.226005199054569,986482.0,980.0293217770229,976.4953217770229,987.5753217770229
62,37,21,F,1,1,54.0,16,2,low,3 + 9 + 1 - 5 + 1,9,8,9,7,990.1083507000004,992.1344459999818,993.6493140000384,998.6673833001404,999.8016818000468,999.801687200088,1001.3182200000156,1002.3355747000314,w,9.0,1.1342984999064356,1,+1,256,-3.464720350637581,0.8527264558621459,3.67502505321513,989026.0,-4.018089722881376,5.594274838360545,1.0987831050487138,992559.0,2.1881677095808882,6.297273361057544,6.1324640534724475,1000227.0,993.6523217770228,990.1193217770228,1001.3203217770229
63,37,21,F,1,1,55.0,17,2,high,5 + 1 + 7 - 6 + 1,8,8,7,6,1003.8610457999166,1005.886597600067,1007.4019714000168,1012.4205525999424,1014.145449399948,1014.1454545999876,1015.6620829000605,1016.679397800006,q,8.0,1.7248968000058085,1,+10,266,-5.607799984920089,4.507966296604835,5.339179707178163,1002778.0,-11.162496826542451,-2.664831879932276,-4.11645519125357,1006312.0,8.585205983752454,1.2319924204587096,-0.27938674238457395,1014570.0,1007.4053217770229,1003.8713217770229,1015.6633217770229
64,37,21,F,1,1,56.0,18,3,high,3 + 8 + 1 + 5 - 9,8,7,9,8,1018.196073499974,1020.2219883999788,1021.7371839000843,1026.7551071001217,1029.9534541999456,1029.9534593001008,1031.4702487001196,1032.4873202999588,e,8.0,3.198347099823877,1,+10,276,7.3422547723520495,0.06239683296688625,0.19701355589247527,1017113.0,-0.1960981040125045,-0.32682679109545365,-0.13708171610215247,1020646.0,-17.951112408355634,8.03457566050863,6.440993279567583,1171185.0,1021.7393217770228,1018.2063217770229,1172.278321777023
65,37,21,F,1,1,57.0,19,4,low,6 + 7 + 9 - 3 + 5,24,22,23,24,1034.0041288000066,1036.027759599965,1037.5429714000784,1042.5612175001295,1047.0014226001222,1047.001427799929,1048.5175606000705,1049.5345604000613,w,23.0,4.440205099992454,0,+0,276,7.379542293555012,-0.33966388411025594,-0.6192067645754653,1032919.0,5.191181286720122,-1.0646113422240049,-0.3188524817179008,1036452.0,9.905062260459289,0.6500590457786863,0.38451240719387614,1370960.0,1037.545321777023,1034.012321777023,1372.053321777023
66,37,21,F,1,1,58.0,20,3,low,3 + 1 + 8 - 5 + 6,13,13,14,15,1051.0516560000833,1053.0778465000913,1054.59308469994,1059.6109352000058,1060.7375376001,1060.7375430001412,1062.2539993000682,1063.2707432000898,q,13.0,1.1266024000942707,1,+1,277,-2.6331357975511818,5.407635197807542,3.9427670735884366,1049969.0,-3.2770055863253464,0.1663723910468704,-0.08019856776549794,1053502.0,-1.2361397720231118,7.998952889127214,4.7163158970997605,1282761.0,1054.595321777023,1051.062321777023,1283.854321777023
67,37,21,F,1,1,59.0,21,1,low,7 + 1 + 5 + 1 - 1,13,13,14,12,1064.7877321999986,1066.813114500139,1068.3279778000433,1073.346232400043,1074.545478099957,1074.5454834999982,1076.0618904000148,1077.078981900122,q,13.0,1.1992456999141723,1,+1,278,-0.8630029640690005,-11.285346641639492,-11.751466164974604,1063704.0,11.728051020125148,-0.9004495250170486,-1.2045246500958378,1067237.0,15.413760079318237,9.309192804364772,10.801893810896916,1088634.0,1068.330321777023,1064.797321777023,1089.727321777023
68,37,21,F,1,1,60.0,22,1,low,9 + 1 + 1 + 7 - 1,17,16,17,19,1078.5957291000525,1080.6195708001032,1082.1350537999533,1087.153476099949,1088.2095401000695,1088.209546300117,1089.7262271000072,1090.743143999949,w,17.0,1.0560640001203865,1,+1,279,10.895606429028756,4.919145275417531,6.084471952789061,1077510.0,-36.64656860748391,-9.320065791674264,-8.97007615237979,1081044.0,-12.685622687114563,-1.0356833057132304,0.02624322694456027,1115978.0,1082.137321777023,1078.603321777023,1117.071321777023
69,37,21,F,1,1,61.0,23,3,low,3 + 8 - 7 - 1 + 9,12,14,13,12,1092.259958599927,1094.2857663999312,1095.8010307999791,1100.8192760001402,1101.8815224000718,1101.8815278999973,1103.3992697000504,1104.416192000033,e,12.0,1.0622463999316096,1,+1,280,-5.344972214733021,-7.47807688171143,-5.047565509648142,1091176.0,11.603764911655574,-12.078576269302397,-13.098874891976386,1094710.0,-13.961135814355274,-0.36814487215464897,0.044610550006924043,1296384.0,1095.803321777023,1092.269321777023,1297.477321777023
70,37,21,F,1,1,62.0,24,1,high,4 + 1 + 1 + 7 - 1,12,14,12,13,1105.9329474999104,1107.958520699991,1109.4736593000123,1114.4921109001152,1115.5535496000666,1115.5535552001093,1117.0699710000772,1118.0873229000715,w,12.0,1.0614386999513954,1,+10,290,1.9058851004594288,-5.657267532790373,-2.7765939885050974,1104849.0,10.884509362052437,0.16594072447171548,0.24165159288397842,1108383.0,14.266165134535617,0.5359239404108349,0.06388672195026945,1130018.0,1109.476321777023,1105.942321777023,1131.111321777023
71,37,21,F,1,1,63.0,25,1,low,3 + 1 + 8 + 1 + 1,14,14,13,16,1119.6038599000312,1121.6292751000728,1123.1446517999284,1128.1642291001044,1129.5934955000412,1129.5935011000838,1131.1105065001177,1132.1277371000033,q,14.0,1.4292663999367503,1,+1,291,22.988235934902228,-0.06272824580646574,-0.2968433068933567,1118520.0,-23.89556884106424,-0.2803561542203692,0.08483639281716049,1122055.0,5.115084859892072,-0.13348313249983512,0.253958033595006,1184753.0,1123.148321777023,1119.613321777023,1185.846321777023
72,37,21,F,1,1,64.0,26,2,low,2 + 1 + 9 - 4 + 1,9,8,11,9,1133.644221900031,1135.6714181001298,1137.1862473001238,1142.2044043000787,1143.4335719000082,1143.4335771999322,1144.9499733999835,1145.9668763000518,e,9.0,1.2291675999294966,1,+1,292,11.599676464485837,-5.559911837233933,-4.801108503451887,1132562.0,-6.4416796226854665,-5.180568666320328,-3.444928989756889,1136095.0,-25.343807516085413,0.6908925968559148,0.7940607214332034,1143857.0,1137.188321777023,1133.655321777023,1144.950321777023
73,37,21,F,1,1,65.0,27,3,high,8 + 3 + 1 - 7 + 9,14,12,14,15,1147.4835469999816,1149.5083542999346,1151.023524499964,1156.0438811001368,1157.1535990000702,1157.1536044001114,1158.6701575999614,1159.686650800053,w,14.0,1.1097178999334574,1,+10,302,-13.315646305168677,-0.8552986771482542,-2.28073787781112,1146399.0,-14.972851692563628,-0.007036995797132128,-0.021066372659456434,1149934.0,-15.398250280581067,1.5743248603350577,1.5751540065728498,1512119.0,1151.027321777023,1147.4923217770229,1513.212321777023
74,37,21,F,1,1,66.0,28,3,low,2 + 9 - 3 + 4 + 1,13,13,14,11,1161.2033244001211,1163.2283052999992,1164.7437064999249,1169.7616485001054,1170.7615412001032,1170.7615473999176,1172.2780456999317,1173.295032599941,q,13.0,0.999892699997872,1,+1,303,8.904089297214446,0.5420512524604302,-0.05926328645069523,1160118.0,1.141910501546258,-0.6759611889850836,-0.14842943964336985,1163652.0,4.332334220300472,-10.655258494527517,-11.392444853577665,1556679.0,1164.745321777023,1161.211321777023,1557.772321777023
75,37,21,F,1,1,67.0,29,1,low,7 + 1 + 4 + 1 - 1,12,12,11,13,1174.8120627999306,1176.8388330000453,1178.3538838999812,1183.3719866001047,1184.3295388999395,1184.3295444000978,1185.8461750000715,1186.862702799961,q,12.0,0.9575522998347878,1,+1,304,-16.03696100931986,5.925159547559764,6.343591815322839,1173729.0,3.156926912037484,-2.7943338874918053,-1.9552258637869322,1177262.0,6.357948033550752,-0.8593975792058348,0.37438840512370763,1241065.0,1178.355321777023,1174.822321777023,1242.158321777023
76,37,21,F,1,1,68.0,30,2,high,5 + 8 + 1 - 1 + 9,22,22,21,23,1188.37952279998,1190.4053483000023,1191.9205976999365,1196.938695800025,1198.5696581001391,1198.5696636000648,1200.0864079999735,1201.1037521001415,q,22.0,1.6309623001143336,1,+10,314,-1.8518194625052358,-1.3953995235943268,0.019395833593782275,1187295.0,5.732155317718319,0.7864549951838455,-0.20826479105990714,1190829.0,-18.913183769975078,0.049822781382744985,0.034551636131627594,1198993.0,1191.922321777023,1188.388321777023,1200.086321777023
77,37,21,F,1,1,69.0,31,2,high,3 + 8 - 5 + 1 + 1,8,9,6,8,1202.6203036999796,1204.6436411999166,1206.1589726000093,1211.1771907000802,1212.929678699933,1212.9296842000913,1214.4461852000095,1215.4634465000129,e,8.0,1.7524879998527467,1,+10,324,-5.674372352631265,0.4695648899576863,0.20508520249937656,1201534.0,6.650909746803423,-0.15532370434793474,-0.09945977352286128,1205067.0,-7.863866609645806,0.5929951713993482,-0.020402331132299834,1213353.0,1206.160321777023,1202.627321777023,1214.446321777023
78,37,21,F,1,1,70.0,32,4,high,8 + 4 + 7 - 5 - 6,8,8,6,9,1216.98032959993,1219.007548399968,1220.522862700047,1225.5420707000883,1226.9136359000113,1226.9136411000509,1228.4301406999584,1229.4470067999791,q,8.0,1.3715651999227705,1,+10,334,42.115896076524436,0.9488124442231491,-1.312480081878319,1215897.0,4.282104788515863,0.35340664953660905,0.01617087667597339,1219431.0,-2.3075102819508615,-0.2640663376406618,-0.32277340962127576,1439984.0,1220.524321777023,1216.990321777023,1441.077321777023
79,37,21,F,1,1,71.0,33,1,low,6 + 1 + 8 + 1 - 1,15,15,14,13,1230.9637110000476,1232.9892993001267,1234.504830599995,1239.5229406999424,1240.641730299918,1240.6417360000778,1242.1584755999502,1243.17529439996,q,15.0,1.118789599975571,1,+1,335,11.95270571476349,-0.2000932938756712,-0.44614429866888905,1229879.0,0.7343694157333722,1.6144455976829075,1.2623125384942577,1233413.0,11.01123522124248,5.113641613651046,4.691205754985766,1255057.0,1234.506321777023,1230.972321777023,1256.150321777023
80,37,21,F,1,1,72.0,34,1,high,3 + 1 + 8 + 1 + 1,14,13,14,12,1244.6924604999367,1246.7199232000858,1248.235102100065,1253.2533196001314,1254.633654600009,1254.633659800049,1256.1501664000098,1257.16737619997,w,14.0,1.3803349998779595,1,+10,345,18.296776261283533,-12.672772397211558,-7.476362670459004,1243610.0,-52.63022082663741,-12.27307896543866,-7.967012560606873,1247143.0,21.206265537931667,0.9254032594881121,2.0226776820152006,1326785.0,1248.236321777023,1244.703321777023,1327.878321777023
81,37,21,F,1,1,73.0,35,2,high,9 + 6 + 1 + 7 + 1,24,23,25,24,1258.6843083000276,1260.7100426999386,1262.2254312001169,1267.2442686001305,1268.7297231000848,1268.729728500126,1270.2463994999416,1271.263522400055,e,24.0,1.4854544999543575,1,+10,355,15.387754273421173,2.1550590670678984,2.9044418559258443,1257600.0,-12.768927204947396,-0.40393054773271775,-0.571413771752495,1261133.0,-42.96786393721983,0.02202182316921597,0.021764057469099374,1269153.0,1262.226321777023,1258.693321777023,1270.246321777023
82,37,21,F,1,1,74.0,36,3,high,4 + 8 - 9 + 1 + 7,11,9,13,11,1272.7803021001164,1274.8059109000023,1276.3212073000614,1281.340368699981,1282.3376591000706,1282.337664199993,1283.854042500025,1284.8714087000117,e,11.0,0.997290400089696,1,+10,365,-61.03708407486119,0.22868847684520865,0.390994087556777,1271695.0,-17.509007318419272,-0.19640560949173835,0.08912889279042702,1275229.0,14.160342784313071,0.08376830987143391,0.07290002671544826,1585104.0,1276.322321777023,1272.788321777023,1586.197321777023
83,37,21,F,1,1,75.0,37,3,low,6 + 8 + 7 + 1 - 9,13,14,15,13,1286.38839680003,1288.412473600125,1289.9276203000918,1294.9462016001344,1295.961751600029,1295.9617580000777,1297.4782158001326,1298.494995499961,e,13.0,1.0155499998945745,1,+1,366,-30.934716299535907,-0.7515428622115436,-1.6459961614884264,1285302.0,-14.172523060424083,-9.782901054764212,-5.57139233573251,1288836.0,-8.8445543187816,-0.299106757064564,0.031905096461843474,1656102.0,1289.929321777023,1286.395321777023,1657.195321777023
84,37,21,F,1,2,76.0,0,1,high,8 + 1 + 1 + 1 - 3,8,8,6,9,1316.781889300095,1318.8072345999535,1320.322385800071,1325.3417353001423,1326.3616359001026,1326.3616412000265,1327.878269799985,1328.8954424001276,q,8.0,1.0199005999602375,1,+10,376,-29.735493684332916,7.676953248864698,6.762848451678142,1315696.0,12.362303763717584,2.024847697616696,0.037563448084227735,1319231.0,19.095579232683956,2.208836050694113,2.7115996380708296,1384704.0,1320.324321777023,1316.789321777023,1385.797321777023
85,37,21,F,1,2,77.0,1,2,high,8 + 1 + 4 - 7 + 1,7,7,6,5,1330.4123917999675,1332.4398644000755,1333.9550828000065,1338.9737673001364,1340.0497775000986,1340.049783000024,1341.566063700011,1342.5830602999777,q,7.0,1.0760101999621838,1,+10,386,10.422635563755742,-2.9958006219784643,-2.7812721843018005,1329329.0,-4.471531246260752,-0.23525682814246096,-0.3896198326922007,1332863.0,19.2822749491177,10.273162095868742,7.481551876817383,1340472.0,1333.956321777023,1330.422321777023,1341.565321777023
86,37,21,F,1,2,78.0,2,3,high,5 - 1 - 4 + 6 + 7,13,14,15,13,1344.1001252001151,1346.1273678001016,1347.6425213001205,1352.6609143000096,1354.9537214001175,1354.9537265999245,1356.47025569994,1357.4875735000242,w,15.0,2.2928071001078933,0,+0,386,4.643073067933088,-0.23515560385286882,-0.1935958824746451,1343016.0,25.05659109824471,-0.08792203532240972,-0.0325465977181012,1346550.0,3.6490511386492885,1.2730037439044937,0.6228677456652449,1809446.0,1347.643321777023,1344.109321777023,1810.539321777023
87,37,21,F,1,2,79.0,3,4,low,7 + 8 - 4 + 6 - 5,12,13,12,11,1359.0042721999343,1361.0305089999456,1362.5459068999626,1367.5664232999552,1370.5378592000343,1370.5378654000815,1372.0541465000715,1373.0713518999985,w,12.0,2.9714359000790864,1,+1,387,6.035342736809669,-0.05609922069211004,-0.04381006363298523,1357920.0,-1.3398117105236942,-8.351023946749534,-5.6337116347324425,1361455.0,-35.76788782692611,-0.01532971736887534,0.21285746279192708,1481535.0,1362.548321777023,1359.013321777023,1482.628321777023
88,37,21,F,1,2,80.0,4,1,high,3 + 1 + 9 + 1 - 1,13,12,14,13,1374.5880048000254,1376.6154380000662,1378.1313332000282,1383.1493232001085,1384.2817552001216,1384.28176110005,1385.7982534000184,1386.8154416999314,e,13.0,1.1324320000130683,1,+10,397,11.449554184405155,-5.159452138957555,-4.265855532785313,1373504.0,15.778672001446958,-0.10101410324818705,0.04675846048160004,1377038.0,2.9386270173733813,2.608958992930641,1.7253960809468287,1426119.0,1378.131321777023,1374.597321777023,1427.212321777023
89,37,21,F,1,2,81.0,5,2,high,9 + 6 + 1 + 7 + 1,24,25,24,23,1388.3320609000511,1390.357097500004,1391.8723174999468,1396.8901802001055,1398.2577871000394,1398.257792999968,1399.7739182000514,1400.7915422001388,w,24.0,1.3676068999338895,1,+10,407,2.0264286629007975,-0.14172047414171285,-2.1056961027349477,1387246.0,11.633594975474548,-0.04453180869375917,-0.5154106329876251,1390779.0,7.873478831325015,2.001857471413684,3.436510115014428,1398680.0,1391.872321777023,1388.339321777023,1399.773321777023
90,37,21,F,1,2,82.0,6,2,high,7 + 5 + 1 + 9 + 1,23,21,22,23,1402.3079727999866,1404.3323450000023,1405.8474111000542,1410.8653657000978,1412.002507600002,1412.002513299929,1413.5197083000094,1414.5369232001249,e,23.0,1.1371418999042362,1,+10,417,-23.382064405669503,0.35876054945041513,1.007197713163169,1401221.0,6.866415625651186,-1.966732814482604,-4.841204814996335,1404754.0,-9.16412158350674,-2.873092582860153,-3.783726499562821,1412425.0,1405.847321777023,1402.314321777023,1413.518321777023
91,37,21,F,1,2,83.0,7,1,low,3 + 1 + 1 + 9 - 1,13,13,12,14,1416.0534483001102,1418.0792976000812,1419.5945942001415,1424.6127812999766,1425.6977921000216,1425.697797599947,1427.214267600095,1428.2309982001316,q,13.0,1.0850108000449836,1,+1,418,-6.685323345399635,-0.34627486058572465,-1.0559236373047654,1414968.0,-20.447378260957294,-4.082719787477746,-2.701179467784242,1418501.0,6.319269777103219,0.4042398675856216,0.5880701067030052,1453608.0,1419.594321777023,1416.061321777023,1454.701321777023
92,37,21,F,1,2,84.0,8,4,high,5 + 7 - 4 + 6 + 9,23,25,24,23,1429.7477212999947,1431.7735161001328,1433.2894043999258,1438.307932599913,1439.5618454001378,1439.5618511000648,1441.0784388999457,1442.0954772001132,e,23.0,1.253912800224498,1,+10,428,-6.451098648252543,0.17896833741055218,0.5492862834470205,1428662.0,1.2214814165802534,-4.701481445314808,-3.37052302812113,1432196.0,-5.3265974348034035,4.323135766206708,2.982566003540217,1495679.0,1433.289321777023,1429.755321777023,1496.772321777023
93,37,21,F,1,2,85.0,9,1,high,2 + 9 + 1 + 1 + 1,14,12,14,13,1443.6124198001344,1445.6358455999289,1447.1511111999862,1452.1691185999662,1453.1857960000634,1453.1858018001076,1454.702436099993,1455.7201213000808,w,14.0,1.016677400097251,1,+10,438,17.399713640892024,-0.11474621037185084,0.027747891505979894,1442524.0,0.5223396863543348,-8.964271712272954,-7.281599251975648,1446057.0,0.30501903388782026,0.04608093865677532,0.5228284574552835,1698782.0,1447.150321777023,1443.6173217770229,1699.875321777023
94,37,21,F,1,2,86.0,10,2,high,2 + 9 + 1 + 1 - 5,8,7,8,6,1457.236863499973,1459.264066600008,1460.7791744000278,1465.797250899952,1467.441792299971,1467.4417979000136,1468.9583970000967,1469.9756837000605,w,8.0,1.6445414000190794,1,+10,448,3.4422248049080846,1.152713364904117,1.8079127001492417,1456152.0,-2.70859497434118,-0.1988160159921768,-0.10442098601679106,1459685.0,13.689894192298164,1.0026675142066779,0.36483746971026854,1467864.0,1460.778321777023,1457.245321777023,1468.957321777023
95,37,21,F,1,2,87.0,11,4,low,4 + 7 - 8 + 9 - 4,8,9,7,8,1471.4924363999162,1473.5170827000402,1475.032406100072,1480.0511223999783,1481.1138212999797,1481.1138273000252,1482.6303266000468,1483.6470695000608,e,8.0,1.0626989000011235,1,+1,449,-5.503841978523687,-0.23958842797971425,-0.8692145826498701,1470405.0,1.794544002189081,-2.0853518491088616,-2.102314652327648,1473939.0,1.6202254338353068,-0.18066446881824483,0.04467963411469711,1543143.0,1475.032321777023,1471.498321777023,1544.236321777023
96,37,21,F,1,2,88.0,12,4,low,7 + 6 + 8 - 4 + 5,22,22,23,21,1485.163311900105,1487.187890500063,1488.703056700062,1493.7214422000106,1495.2578861000948,1495.2578914000187,1496.7744587000925,1497.7912042001262,q,22.0,1.536443900084123,1,+1,450,-2.9744648709741384,-0.09150755921098286,0.072108826413388,1484076.0,29.150468504189476,0.16998265985295857,-0.048618796290493815,1487610.0,-6.7585501749796535,0.037732338322276515,-0.05721630125539079,1598831.0,1488.703321777023,1485.169321777023,1599.924321777023
97,37,21,F,1,2,89.0,13,3,low,5 + 6 - 4 - 1 + 8,14,16,15,14,1499.3078399000224,1501.3353168000467,1502.850496199913,1507.8689218000509,1511.6978607999629,1511.6978668000083,1513.2142801000737,1514.231678799959,e,14.0,3.82893899991177,1,+1,451,10.862796892026832,-3.849533867575164,-2.9333748453000887,1498223.0,-2.154156446830627,0.2083988577084379,0.013540395467383615,1501757.0,49.37094371067869,4.120598130098094,5.636396889632623,2145453.0,1502.850321777023,1499.316321777023,2146.546321777023
98,37,21,F,1,2,90.0,14,2,low,2 + 9 - 4 + 1 + 1,9,9,8,11,1515.748408700107,1517.774092799984,1519.2890497001354,1524.3067532000132,1525.3218604000283,1525.321865600068,1526.8384624000173,1527.8554336000234,q,9.0,1.0151072000153365,1,+1,452,-37.05468707005701,0.13885843582129453,0.09930339761094364,1514662.0,10.954806157392031,-0.45071236028544304,-0.8173022015578892,1518195.0,-10.91341789981427,0.17665620263524584,0.3703073872646101,1525743.0,1519.288321777023,1515.755321777023,1526.836321777023
99,37,21,F,1,2,91.0,15,4,high,9 + 8 - 5 - 7 + 6,11,13,10,11,1529.3723267000169,1531.397183699999,1532.9133637999184,1537.9336234000511,1542.721941299969,1542.7219478001352,1544.2385615000967,1545.255704800133,e,11.0,4.788317899918184,1,+10,462,14.141431892226723,0.10041364522236496,0.976840461519914,1528285.0,1.7184176231654487,-0.2852028617308777,-0.1269354664679052,1531821.0,-28.969282991084768,-0.23209034823021302,-0.07273748876641917,1626343.0,1532.914321777023,1529.378321777023,1627.436321777023
100,37,21,F,1,2,92.0,16,3,low,5 + 1 + 7 - 8 + 6,11,11,9,13,1546.7727022999898,1548.7956026000902,1550.310962599935,1555.3293717000631,1556.2580504000653,1556.2580558999907,1557.7745538000015,1558.7914140999785,q,11.0,0.9286787000019104,1,+1,463,-0.9599129863439657,0.6282306967669751,0.43630000478060826,1545684.0,-15.977410130057676,-0.16805157675554527,-0.11372596852026318,1549217.0,6.346965457969109,-0.20322935577969847,-0.006747625541958957,2160428.0,1550.310321777023,1546.777321777023,2161.521321777023
101,37,21,F,1,2,93.0,17,2,high,7 + 6 + 1 - 1 - 8,5,4,5,3,1560.3083359999582,1562.3320919000544,1563.8471643000375,1568.8666600999422,1570.1699916000944,1570.1699973000214,1571.6864178001415,1572.703651000047,w,5.0,1.303331500152126,1,+10,473,18.538115265666896,-0.38724247384032573,-0.4630341037117405,1559220.0,-15.748494844508096,0.2543878669176176,0.10559702573321506,1562754.0,-8.575996280865937,-0.1941365625416207,0.17062354126383195,1570591.0,1563.847321777023,1560.313321777023,1571.684321777023
102,37,21,F,1,2,94.0,18,3,high,7 - 6 + 8 + 1 + 7,17,16,15,17,1574.2202252999414,1576.2479862000328,1577.7629698999226,1582.781687000068,1584.681866500061,1584.681872599991,1586.199178900104,1587.2163499000017,e,17.0,1.9001794999931008,1,+10,483,-2.536781514270106,-10.487323800111936,-6.252790740215044,1573136.0,-7.059114904859221,-14.87179559606664,-10.569015365487962,1576669.0,-37.43344911977773,-4.22507069812942,-4.410931420197819,2243556.0,1577.762321777023,1574.229321777023,2244.649321777023
103,37,21,F,1,2,95.0,19,4,low,6 + 9 - 7 + 8 - 5,11,13,12,11,1588.7327368000988,1590.7593191999476,1592.2751106999349,1597.293981200084,1598.4099556000438,1598.4099610000849,1599.9271341999993,1600.9445275000762,e,11.0,1.1159743999596683,1,+1,484,9.179838367788841,-0.11597299079153878,0.057537197309264654,1587646.0,10.226156130620078,-3.475348404323748,-3.1648033957860062,1591181.0,15.337477955915965,-0.09929284572691932,0.11044430094692959,1641671.0,1592.274321777023,1588.739321777023,1642.764321777023
104,37,21,F,1,2,96.0,20,2,high,9 + 4 + 5 + 1 - 1,18,19,17,18,1602.4612418001052,1604.4843047999311,1605.99945880007,1611.017684899969,1612.1778937999625,1612.1778995001223,1613.6945337001234,1614.7117278000806,e,18.0,1.1602088999934494,1,+10,494,8.796015972415791,3.485840302249018,2.9962789737682223,1601372.0,-0.6242512292922147,-1.1858113102249592,-0.7053435943011408,1604905.0,-16.71773458447746,-0.4382903636011797,-0.008149622647025678,1612599.0,1605.998321777023,1602.465321777023,1613.692321777023
105,37,21,F,1,2,97.0,21,4,low,2 + 5 - 3 + 9 + 8,21,21,19,22,1616.2287322001066,1618.252152899979,1619.7674438001122,1624.7853880000766,1625.9220197999384,1625.9220251999795,1627.4386831000447,1628.455578800058,q,21.0,1.1366317998617887,1,+1,495,-12.715487070407542,-0.1840844463902136,0.0656768278260087,1615140.0,-22.850276886593008,0.2632522571627285,-0.06829887132878376,1618673.0,-40.600811505496985,-0.09778934714661869,-0.3047760896567837,1669942.0,1619.766321777023,1616.233321777023,1671.035321777023
106,37,21,F,1,2,98.0,22,4,high,6 + 9 + 7 - 3 - 5,14,13,14,15,1629.9723036000505,1632.000035499921,1633.515254799975,1638.534340500133,1641.250224800082,1641.250230100006,1642.76672230009,1643.7846862999722,w,14.0,2.7158842999488115,1,+10,505,1.2751219614291216,-0.29695813003393523,0.032519121106802995,1628887.0,-1.0125611069217264,-0.20014354046905325,-0.034403420654733896,1632421.0,3.835764361989347,9.200815495560601,7.105781678723028,1823214.0,1633.514321777023,1629.980321777023,1824.307321777023
107,37,21,F,1,2,99.0,23,3,low,8 + 5 + 1 - 7 + 9,16,16,14,17,1645.301741400035,1647.326500999974,1648.841661799932,1653.8596954001114,1655.6819746999536,1655.6819800001103,1657.198475399986,1658.2153088001069,q,16.0,1.8222792998421935,1,+1,506,10.54102361546957,-7.029925681614774,-7.04749303743868,1644214.0,-22.239442885660385,0.09824776076646291,-0.722196974999811,1647747.0,13.289234992485074,-0.5151630162465226,-0.0003792112567113648,2258636.0,1648.840321777023,1645.307321777023,2259.729321777023
108,37,21,F,1,2,100.0,24,4,high,4 + 7 + 8 - 3 + 9,25,25,24,26,1659.732331899926,1661.757581999991,1663.2737529999577,1668.2919908000622,1669.5219813000876,1669.521986800013,1671.0377176001202,1672.0545819001272,q,25.0,1.2299905000254512,1,+10,516,7.424978565313119,4.567561669651489,3.207931502337063,1658645.0,-73.00358957241654,-0.34397329091389484,0.042735451510238276,1662180.0,1.1697888876545832,0.10184699284496768,0.9964296550211842,1944669.0,1663.273321777023,1659.738321777023,1945.762321777023
109,37,21,F,1,2,101.0,25,2,low,6 + 1 + 1 + 7 - 9,6,8,6,4,1673.572554799961,1675.599087000126,1677.1142703001387,1682.132196499966,1684.8340054000728,1684.8340108999982,1686.3504999999425,1687.367245099973,w,6.0,2.7018089001066983,1,+1,517,5.030522588924601,0.19860724577640232,-0.0829189632159042,1672486.0,-2.5876667444039807,-0.021787612733538353,-0.09950039659747079,1676020.0,-23.034987257796196,0.07139944597666004,0.3913630253450051,1685254.0,1677.113321777023,1673.579321777023,1686.347321777023
110,37,21,F,1,2,102.0,26,1,high,8 - 1 + 1 + 6 + 1,15,14,15,16,1688.8847481999546,1690.910762900021,1692.4259298001416,1697.4449775000105,1698.3620402999222,1698.3620454999618,1699.878259500023,1700.8954640999436,w,15.0,0.917062799911946,1,+10,527,13.927841939478437,-0.2753396682794911,-0.7225570841404725,1687798.0,-5.980960118391943,0.12309402014597559,0.03383379786031915,1691332.0,2.0829735896518287,8.864810797877041,6.570434187523102,1754510.0,1692.425321777023,1688.891321777023,1755.603321777023
111,37,21,F,1,2,103.0,27,2,high,3 + 8 + 1 - 5 + 1,8,8,6,9,1702.4120914000086,1704.4392017000357,1705.9542129000183,1710.9725186000578,1712.050063499948,1712.0500688999891,1713.566285399953,1714.583163900068,q,8.0,1.0775448998901993,1,+10,537,10.876651289421202,-1.531137241802286,-2.3385434107893284,1701326.0,-33.200023841379476,0.11517219930146894,0.1817155263655712,1704859.0,17.496630834470526,5.469440841457052,5.869886369439479,1712470.0,1705.952321777023,1702.419321777023,1713.563321777023
112,37,21,F,1,2,104.0,28,2,high,8 + 1 + 9 + 1 - 5,14,14,13,15,1716.0999302999116,1718.1230272999965,1719.638690999942,1724.6564406000543,1725.7300796001218,1725.7300853000488,1727.2466120999306,1728.264187599998,q,14.0,1.0736390000674874,1,+10,547,-1.737265419733084,1.806633765937998,1.8956349374747168,1715010.0,-2.5083939764650607,3.464511769651419,5.498709771636063,1718543.0,9.078921968143487,0.7582791584720043,2.720565007376424,1726151.0,1719.6363217770229,1716.103321777023,1727.244321777023
113,37,21,F,1,2,105.0,29,2,low,5 - 1 + 1 + 8 + 9,22,21,23,22,1729.781007300131,1731.8094242999796,1733.32474800013,1738.3428519999145,1740.4981154000852,1740.4981208001263,1742.0147579999175,1743.0314819000196,e,22.0,2.155263400170952,1,+1,548,7.437652254084028,0.38891704829355733,2.0823664648706615,1728696.0,26.669103413935368,-6.387326943072326,-10.552509895347724,1732229.0,1.3489587684749136,0.1986221085064206,0.6410612448973882,1740918.0,1733.322321777023,1729.789321777023,1742.0113217770229
114,37,21,F,1,2,106.0,30,1,low,6 + 9 + 1 + 1 - 1,16,15,16,14,1744.5482558000367,1746.5737723000348,1748.0886923000216,1753.107517400058,1754.0900425000582,1754.0900481999852,1755.6064860001206,1756.6234488000628,w,16.0,0.9825251000002028,1,+1,549,-27.593132845823803,-1.0077473470443774,-2.5258969961631124,1743460.0,-3.098411643533894,-0.4913345895973027,-0.8213940091155818,1746994.0,1.063191729469903,1.9649064812111563,1.6805420220416827,1782102.0,1748.087321777023,1744.553321777023,1783.195321777023
115,37,21,F,1,2,107.0,31,2,low,5 + 7 - 8 + 1 + 1,6,8,7,6,1758.139916599961,1760.167145299958,1761.6827418999746,1766.7037343000993,1768.1220643999986,1768.1220696999226,1769.6390371001326,1770.6563238999806,e,6.0,1.4183300998993218,1,+1,550,5.584262325942515,-1.4250034708880026,-0.9395749557177018,1757054.0,-10.991675963522304,-7.957739273117597,-4.634193317745838,1760590.0,20.89317628453852,-0.1439876787690313,0.07892272230094033,1768542.0,1761.683321777023,1758.147321777023,1769.635321777023
116,37,21,F,1,2,108.0,32,1,low,7 - 1 + 9 + 1 - 1,15,15,13,14,1772.172879599966,1774.1982970000245,1775.7136160000227,1780.733692199923,1781.682117599994,1781.6821228000335,1783.198474300094,1784.215151200071,q,15.0,0.948425400070846,1,+1,551,-5.425222938436893,3.2471852125579024,2.7360632432119294,1771084.0,-25.718482546648172,-0.5000935320687536,0.03939503790965171,1774620.0,-0.2482864338241928,0.008861381705413951,-0.2180317280408135,1836934.0,1775.7133217770229,1772.177321777023,1838.027321777023
117,37,21,F,1,2,109.0,33,2,high,8 + 1 + 9 + 1 - 4,15,16,14,15,1785.7316761000548,1787.7578005001417,1789.2728093999904,1794.292147899978,1795.3780924999155,1795.3780978999566,1796.8946656000337,1797.9117775999475,e,15.0,1.0859445999376476,1,+10,561,-43.05967117328291,4.120950855556748,4.31058387560209,1784644.0,3.643144622997532,-0.06132332914075134,-0.15349805655139326,1788178.0,-23.375615500865585,0.586329223379503,0.24270110514454668,1795798.0,1789.271321777023,1785.737321777023,1796.891321777023
118,37,21,F,1,2,110.0,34,3,high,4 + 8 - 3 + 5 - 1,13,13,14,12,1799.42871080013,1801.4542006999252,1802.9692728000227,1807.9886449000333,1809.026064600097,1809.0260698001368,1810.542673600139,1811.5596773000436,q,13.0,1.037419700063765,1,+10,571,-3.096987297417734,-0.11862474551368818,-0.04116304742534105,1798340.0,18.74780653271675,0.4935637678174536,-0.09776928943517493,1801875.0,1.09032281704816,3.649266075973568,2.2980779169051475,2412411.0,1802.968321777023,1799.433321777023,2413.504321777023
119,37,21,F,1,2,111.0,35,4,high,2 + 9 - 6 + 8 - 4,9,11,9,7,1813.0765116999391,1815.0983525000047,1816.6135933999904,1821.6317060000729,1822.794233799912,1822.794238999952,1824.310755999992,1825.328294700012,w,9.0,1.162527799839154,1,+10,581,-17.50501618224413,2.2918420276536224,2.39279392824683,1811985.0,-43.77416606488846,4.85326456260268,-6.808290844225075,1815518.0,-13.515850956116951,-0.4422718834382495,-1.40634527333253,2104564.0,1816.611321777023,1813.078321777023,2105.657321777023
120,37,21,F,1,2,112.0,36,1,high,2 + 1 + 9 + 1 - 1,12,13,12,11,1826.8450227000285,1828.868254299974,1830.3834408000112,1835.4014552999288,1836.5141750001349,1836.5141805000603,1838.0308509001045,1839.0480629999656,w,12.0,1.1127197002060711,1,+10,591,-9.344828001888818,-0.04447726503177751,-0.09438749167769656,1825754.0,15.2664186239789,-0.3593361077092845,-0.03918615916765278,1829288.0,15.658042196353705,0.7284014910287371,2.144810677902818,1985526.0,1830.381321777023,1826.847321777023,1986.619321777023
121,37,21,F,1,2,113.0,37,4,high,9 + 7 - 5 + 8 + 6,25,27,24,25,1840.565080499975,1842.5916635999456,1844.1067071999423,1849.1246605999768,1851.650178800104,1851.6501841999125,1853.1668527999427,1854.1840588001069,q,27.0,2.525518200127408,0,+0,591,-44.599756138675644,5.631322804124501,5.302199019359721,1839478.0,10.102934001577193,-11.056060637328187,-9.674617420670213,1843011.0,14.532972774239234,-0.26808871253574207,0.1032352866696773,2118116.0,1844.104321777023,1840.571321777023,2119.209321777023
122,37,21,F,1,3,114.0,0,2,low,9 + 4 - 6 + 1 - 1,7,8,9,7,1893.0631011999208,1895.0901498000603,1896.6052389999384,1901.624857699964,1902.6982114000712,1902.6982168999969,1904.214808900142,1905.2322639999911,e,7.0,1.0733537001069635,1,+1,592,1.714983165460144,4.050570346147618,5.720192000652991,1891976.0,8.805002213571097,-0.5026009685890975,-0.1277863987740655,1895510.0,12.122063593696613,3.4548835076436726,4.100792649788433,1903117.0,1896.603321777023,1893.069321777023,1904.210321777023
123,37,21,F,1,3,115.0,1,2,low,3 + 1 + 8 - 5 - 1,6,6,5,7,1906.749027800048,1908.774260800099,1910.289596700109,1915.3077765000053,1916.4102394999936,1916.410244999919,1917.926841800101,1918.9436464000028,q,6.0,1.1024629999883473,1,+1,593,21.944589866756694,-3.949304323057099,-4.515286034679902,1905660.0,49.83179093799656,-0.30610309797800017,0.08053453304246516,1909193.0,-4.369589681499852,2.5138399929852273,0.7930619444182323,1916829.0,1910.286321777023,1906.753321777023,1917.922321777023
124,37,21,F,1,3,116.0,2,2,high,4 + 1 + 9 + 1 - 6,9,7,8,9,1920.460398999974,1922.4863110999577,1924.0016809999945,1929.01992420014,1930.3622358001303,1930.36224139994,1931.878804899985,1932.8957994999364,e,9.0,1.342311599990353,1,+10,603,-17.281452185910425,2.2260391136160553,1.995157484060671,1919372.0,4.893687414688827,-0.07611621039132688,-0.0941623775484377,1922905.0,-21.797096565088538,-0.11497714551028881,-0.2084450220901195,1930781.0,1923.998321777023,1920.465321777023,1931.874321777023
125,37,21,F,1,3,117.0,3,4,low,8 + 7 - 4 + 5 + 9,25,26,25,24,1934.4125687000344,1936.4362345000263,1937.9519595000893,1942.9700299000835,1944.2502711999696,1944.2502769001292,1945.766956600128,1946.7845086001323,w,25.0,1.2802412998862565,1,+1,604,-0.10372241216170508,-0.15859751768482377,0.007344011308739962,1933322.0,-1.015185128117432,-0.20286691246545674,-0.0008681806782202539,1936856.0,56.99621522532402,2.1523018779992924,2.3340085664946466,2214820.0,1937.949321777023,1934.4153217770229,2215.913321777023
126,37,21,F,1,3,118.0,4,2,high,2 + 1 + 9 - 4 + 1,9,9,11,8,1948.3013903999235,1950.3269948000088,1951.842233200092,1956.8604000001212,1958.0023042999676,1958.002309500007,1959.5187427001076,1960.535841000033,q,9.0,1.141904299845919,1,+10,614,26.702428008297073,-0.17910939345843646,-0.8982375643504743,1947212.0,-10.849848703881488,6.609740638338728,2.0761926773318544,1950746.0,-13.735371858256602,-1.326300352169329,-1.8294702248346635,1958421.0,1951.839321777023,1948.305321777023,1959.514321777023
127,37,21,F,1,3,119.0,5,2,high,6 + 1 + 7 + 5 - 1,18,17,18,16,1962.052561999997,1964.0790109999944,1965.5943674000448,1970.6130266000985,1971.5942216999829,1971.5942266001368,1973.110676500015,1974.1279945001008,w,18.0,0.9811950998846442,1,+10,624,0.7492030351850891,0.6763758251310557,-0.16172948109550256,1960964.0,-51.06463622445481,-1.081939551153996,0.002041077905063693,1964498.0,-23.005460802544782,0.33130765339688306,0.016705676406941983,1972013.0,1965.591321777023,1962.057321777023,1973.106321777023
128,37,21,F,1,3,120.0,6,1,high,3 + 1 + 9 + 1 + 1,15,15,14,17,1975.644765800098,1977.6716444001067,1979.1875613001173,1984.205757400021,1985.1063475001135,1985.1063526999203,1986.6232920999173,1987.6405665001369,q,15.0,0.9005901000928134,1,+10,634,12.155633679878697,0.10685522832322514,0.053289964590223615,1974557.0,16.236412770473354,0.24996917543968378,-0.051874029625050166,1978091.0,-7.335841287005453,0.1112177019679974,0.2706935863853517,2014125.0,1979.184321777023,1975.650321777023,2015.218321777023
129,37,21,F,1,3,121.0,7,4,low,7 + 6 - 9 + 8 - 3,9,9,8,7,1989.1573268999343,1991.1842114001047,1992.6995040001348,1997.720055300044,1999.9542656000704,1999.9542706999928,2001.4707866001409,2002.487560800044,w,8.0,2.234210300026461,0,+0,634,21.176558652717127,0.0564961253967895,-0.27400558517387874,1988069.0,12.307004678048196,-0.24033555077219138,-0.026246719686316533,1991605.0,13.354441453698453,-0.21876744121725533,0.0731425488530495,2398923.0,1992.698321777023,1989.162321777023,2400.0163217770228
130,37,21,F,1,3,122.0,8,1,high,9 + 8 + 1 + 1 - 1,18,17,18,20,2004.004988099914,2006.0325593999587,2007.5477909001056,2012.5657246999908,2013.70633909991,2013.7063444000669,2015.222975400044,2016.2401475999504,w,18.0,1.1406143999192864,1,+10,644,-37.11314398364392,0.38047800585048197,0.4126918022319752,2002918.0,7.162588408315914,-0.5316487569988828,0.026005983144131717,2006451.0,-2.9138488610671227,-0.0895937427525002,2.3611660659840465,2042517.0,2007.544321777023,2004.0113217770229,2043.610321777023
131,37,21,F,1,3,123.0,9,2,low,3 - 1 + 9 - 5 + 1,7,5,6,7,2017.756884499919,2019.7835917000195,2021.2986236000436,2026.3178085000252,2028.5063344000373,2028.5063398000784,2030.0230068000965,2031.0402629999444,q,5.0,2.188525900011882,0,+0,644,-7.8529556315789755,-6.9576406983445445,-6.589326634033458,2016669.0,-21.127210177810344,0.2098268659189788,-0.14629845828455612,2020203.0,19.979263723413453,1.5492487586504122,0.966998406487777,2299507.0,2021.296321777023,2017.762321777023,2300.600321777023
132,37,21,F,1,3,124.0,10,1,low,7 - 1 + 8 + 1 - 1,14,13,12,14,2032.5572768999264,2034.584697500104,2036.0994833000004,2041.1177999000065,2042.098313400056,2042.0983190000989,2043.614874199964,2044.6316993001385,e,14.0,0.9805135000497104,1,+1,645,-0.6569937706257569,-0.2660999307603582,0.018431158045801643,2031470.0,-25.242949132820005,-0.3683847270761138,-0.1555280998168398,2035003.0,-4.571715167050073,-3.147804283751123,-0.28504701282573963,2090364.0,2036.096321777023,2032.563321777023,2091.457321777023
133,37,21,F,1,3,125.0,11,3,low,6 + 1 + 8 + 7 - 9,13,13,14,15,2046.1482148999348,2048.1735984999686,2049.6887868000194,2054.708579499973,2059.7248613000847,2059.724863999989,2061.2414887999184,2062.275989999994,,,,0,Too Slow!,645,12.951581703196812,6.980396149249703,-6.552212234379297,2045058.0,-14.8125212082124,0.5024944092757337,-0.009460425133193118,2048594.0,24.128648249310306,-0.33411186249982805,0.08000369784598571,2060161.0,2049.687321777023,2046.151321777023,2061.254321777023
134,37,21,F,1,3,126.0,12,1,high,4 + 7 + 1 - 1 - 1,10,11,9,10,2063.7922489000484,2065.815714899916,2067.3310334999114,2072.3496535001323,2075.802257600008,2075.8022628999315,2077.319312799955,2078.337549699936,w,9.0,3.452604099875316,0,+0,645,7.751754202771643,0.5399254806707008,0.0971488659608275,2062701.0,21.671836870648978,0.34075149844507013,0.006070423285366333,2066234.0,,,,,2067.327321777023,2063.794321777023,
135,37,21,F,1,3,127.0,13,1,low,3 + 1 + 8 - 1 + 1,12,13,12,10,2079.8547942999285,2081.882634199923,2083.3977334999945,2088.4159778999165,2089.9462772000115,2089.946282299934,2091.4629673999734,2092.4794870000333,w,12.0,1.5302993000950664,1,+1,646,6.4981220880778405,0.22805828239882953,0.10210146059975966,2078767.0,0.20530381704896428,-0.019694157336296314,-0.025177978513529542,2082300.0,,,,,2083.393321777023,2079.860321777023,
136,37,21,F,1,3,128.0,14,4,low,3 + 8 - 7 + 9 - 5,8,7,8,9,2093.9961647000164,2096.0219827999827,2097.537164499983,2102.5557307999115,2104.146402100101,2104.146407800028,2105.6626574001275,2106.679339699913,w,8.0,1.5906713001895696,1,+1,647,22.047146217727274,-0.4800788950422463,0.09048869208509869,2092906.0,-33.09593776967091,0.016167788904889235,0.05239065189426517,2096440.0,,,,,2097.533321777023,2093.999321777023,
137,37,21,F,1,3,129.0,15,4,high,9 + 3 - 5 + 8 + 6,21,21,23,19,2108.195915499935,2110.2216455999296,2111.7368250999134,2116.755378399976,2117.698398800101,2117.698404500028,2119.214950900059,2120.23202409991,q,21.0,0.9430204001255332,1,+10,657,28.549037794702805,0.4996245069136753,-0.24886859638646874,2107106.0,20.83772753522784,-1.0705406772601505,-0.2617076893308825,2110639.0,,,,,2111.732321777023,2108.199321777023,
138,37,21,F,1,3,130.0,16,1,low,9 + 7 + 1 + 1 + 1,19,18,20,19,2121.748719800031,2123.774212999968,2125.2900723000057,2130.309309199918,2131.5064978001174,2131.5065031999256,2133.023026800016,2134.0398798999377,e,19.0,1.197188600199297,1,+1,658,-6.945468635876776,-0.11528544106952765,-0.17610739341684756,2120658.0,18.640029128037867,0.39547505411502115,-0.10052094340960482,2124194.0,,,,,2125.287321777023,2121.751321777023,
139,37,21,F,1,3,131.0,17,3,high,2 + 1 + 9 - 7 + 6,11,11,13,12,2135.557135100011,2137.5852453000844,2139.1005448000506,2144.118909300072,2145.0344509000424,2145.0344567000866,2146.5512556999456,2147.568402200006,q,11.0,0.9155415999703108,1,+10,668,8.238681561120796,0.4611696241556684,0.0946974306192836,2134469.0,8.2568906771868,0.38350159047302324,0.015293796570521767,2138003.0,,,,,2139.096321777023,2135.562321777023,
140,37,21,F,1,3,132.0,18,3,low,6 + 7 + 8 + 1 - 9,13,15,14,13,2149.08469430008,2151.1071065000724,2152.622423700057,2157.641242800048,2160.0103587999474,2160.01036439999,2161.5268129000906,2162.5437012000475,e,13.0,2.3691159998998046,1,+1,669,0.014502106362322742,-3.7460432197020515,-5.779666477528996,2147991.0,-14.24156081851584,0.6709107337653357,5.062101170148297,2151525.0,,,,,2152.618321777023,2149.084321777023,
141,37,21,F,1,3,133.0,19,3,low,5 + 7 + 1 - 4 + 6,15,17,13,15,2164.060421900125,2166.0826731999405,2167.5979484999552,2172.617105900077,2173.6664873999543,2173.6664931999985,2175.183078400092,2176.200322000077,q,17.0,1.0493814998771995,0,+0,669,16.469946493445683,0.17166281210937928,-0.04456047811962227,2162967.0,25.388166698604373,0.5318849289732022,0.019668269974620678,2166500.0,,,,,2167.593321777023,2164.060321777023,
142,37,21,F,1,3,134.0,20,1,low,5 + 1 + 1 + 6 + 1,14,13,14,16,2177.717018699972,2179.744072400033,2181.259885400068,2186.2774732001126,2187.1545283999294,2187.1545337999705,2188.6710252000485,2189.6875704000704,w,14.0,0.877055199816823,1,+1,670,14.913708210166488,0.34588365413238,0.04826593452441297,2176628.0,7.31098623000688,-0.2306239137127255,-0.3446760338725643,2180162.0,,,,,2181.255321777023,2177.721321777023,
143,37,21,F,1,3,135.0,21,1,high,6 + 9 + 1 + 1 - 1,16,16,15,14,2191.2040158999152,2193.2325138000306,2194.7477277000435,2199.766072999919,2200.7143665999174,2200.714371799957,2202.2311174999923,2203.2481784000997,q,16.0,0.9482935999985784,1,+10,680,-64.7741053693363,-0.2088988516896153,0.04215904010205329,2190116.0,60.64628111397716,0.05772474966922303,0.14336522444594735,2193650.0,,,,,2194.743321777023,2191.209321777023,
144,37,21,F,1,3,136.0,22,4,high,2 + 9 - 3 + 5 + 8,21,22,21,23,2204.7650266001,2206.7886634001043,2208.303979499964,2213.3224482000805,2214.4024680999573,2214.402473299997,2215.918812799966,2216.936475900002,w,21.0,1.0800198998767885,1,+10,690,0.21668261905988473,0.6638732228953019,0.1097997198602585,2203672.0,1.9696323282856785,1.576420213949521,-3.8908416291510766,2207206.0,,,,,2208.299321777023,2204.765321777023,
145,37,21,F,1,3,137.0,23,1,low,5 + 9 - 1 + 1 + 1,15,15,17,13,2218.4532437999733,2220.4801129999105,2221.9952793000266,2227.0133645001333,2228.098493000027,2228.098498400068,2229.6151102001318,2230.631839700043,q,15.0,1.0851284998934716,1,+1,691,5.348224158430391,0.46481148800098726,-0.0715177980125481,2217364.0,7.8034710095216475,-0.45288562195488113,0.1295996828274586,2220897.0,,,,,2221.990321777023,2218.457321777023,
146,37,21,F,1,3,138.0,24,3,high,7 + 1 + 9 + 5 - 6,16,16,14,15,2232.1486867999192,2234.173556300113,2235.6887322000694,2240.7087640000973,2243.138505500043,2243.13851119997,2244.6551395000424,2245.672305900138,q,16.0,2.4297414999455214,1,+10,701,-18.420649017900256,0.006905661253801654,0.0067651150024008455,2231057.0,-44.050912444294326,-0.13444635280785722,0.0042596066175850655,2234592.0,,,,,2235.685321777023,2232.150321777023,
147,37,21,F,1,3,139.0,25,3,high,2 + 1 + 9 - 4 + 6,14,16,15,14,2247.189046400133,2249.2128304000944,2250.728595300112,2255.7469830000773,2258.2185545000248,2258.218560300069,2259.73530280008,2260.752495799912,e,14.0,2.4715714999474585,1,+10,711,8.877173662287673,0.07438583573842195,0.6168756049636146,2246097.0,-16.59456380823817,-3.9210173168599303,-4.236866586540441,2249630.0,,,,,2250.723321777023,2247.190321777023,
148,37,21,F,1,3,140.0,26,1,low,8 + 1 + 4 + 1 + 1,15,15,14,16,2262.270085300086,2264.295136800036,2265.8103144001216,2270.829667699989,2271.7705540999305,2271.770559499972,2273.287087799981,2274.304127200041,q,15.0,0.9408863999415188,1,+1,712,21.666988103260017,-0.6598330430543919,-0.10610638783728188,2261179.0,15.544985026094324,-0.24946912611888994,0.016797082363191995,2264713.0,,,,,2265.806321777023,2262.272321777023,
149,37,21,F,1,3,141.0,27,1,high,2 + 1 + 9 + 1 + 1,14,14,12,13,2275.8209496999625,2277.84765599994,2279.362657400081,2284.380627800012,2285.474546700017,2285.474552199943,2286.991015200037,2288.008324400056,q,14.0,1.0939189000055194,1,+10,722,21.428097437506683,-0.0253318520955208,0.22973238333337198,2274731.0,7.123581017384383,-0.15994070563371032,-0.05545875780194298,2278264.0,,,,,2279.357321777023,2275.824321777023,
150,37,21,F,1,3,142.0,28,2,low,4 + 9 - 7 + 1 - 1,6,8,5,6,2289.5251659001224,2291.5512125999667,2293.066512699937,2298.0850452999584,2299.090507700108,2299.090513200033,2300.6070866999216,2301.6239378999453,e,6.0,1.005462400149554,1,+1,723,10.920912692860359,1.2664831387232338,0.03590012148930111,2288434.0,1.4226947053219705,-10.665878594693288,-8.59348604067585,2291968.0,,,,,2293.061321777023,2289.527321777023,
151,37,21,F,1,3,143.0,29,2,low,6 + 8 + 1 + 1 - 7,9,8,11,9,2303.140669200104,2305.1648538999725,2306.68011029996,2311.699336200021,2312.7065773999784,2312.70658369991,2314.2234307001345,2315.239978699945,e,9.0,1.0072411999572068,1,+1,724,10.077053832824394,0.6114367058553141,3.06121422217676,2302048.0,10.47261619990579,3.0573572267987528,4.2605176844821955,2305582.0,,,,,2306.675321777023,2303.1413217770228,
152,37,21,F,1,3,144.0,30,2,low,7 + 6 + 1 + 8 + 1,23,21,22,23,2316.756611699937,2318.7810647001024,2320.296264400007,2325.31449280004,2326.5944725999143,2326.594477900071,2328.111065699952,2329.127917099977,e,23.0,1.279979799874127,1,+1,725,-34.410162439240686,-0.6023824544468459,0.09102634962213352,2315664.0,1.4536919042380418,0.42809243922935014,0.012605913956928116,2319198.0,,,,,2320.291321777023,2316.757321777023,
153,37,21,F,1,3,145.0,31,1,low,9 + 8 + 1 + 1 - 1,18,17,19,18,2330.644649200141,2332.671178800054,2334.1863677001093,2339.2047109999694,2340.386500300141,2340.386505600065,2341.902907700045,2342.919923899928,e,18.0,1.1817893001716584,1,+1,726,-35.65097525243048,-0.41992595816310274,-0.05389589385628746,2329555.0,-11.509105078993407,-0.11638219031919483,-0.18038531384618572,2333088.0,,,,,2334.181321777023,2330.648321777023,
154,37,21,F,1,3,146.0,32,1,low,6 + 1 + 8 + 1 + 1,17,16,15,17,2344.4364414999727,2346.4598648999818,2347.974794900045,2352.9929639999755,2353.93860949995,2353.9386150999926,2355.4550864999183,2356.472125600092,e,17.0,0.9456454999744892,1,+1,727,-1.1350379977507519,-0.10206071671725958,0.10577977382212023,2343343.0,-111.13812623149101,0.2255503650763293,-0.14745395367175407,2346876.0,,,,,2347.969321777023,2344.436321777023,
155,37,21,F,1,3,147.0,33,1,low,5 + 6 + 1 + 1 + 1,14,13,16,14,2357.9889597999863,2360.012915499974,2361.5279858000576,2366.545851000119,2367.6105015000794,2367.610507100122,2369.1272122999653,2370.143897800008,e,14.0,1.0646504999604076,1,+1,728,-1.438031120551102,0.4445555751078363,0.1653507323491663,2356896.0,-12.550281373109355,0.0024384912168118333,0.10891341820829004,2360429.0,,,,,2361.522321777023,2357.989321777023,
156,37,21,F,1,3,148.0,34,3,high,9 - 5 - 1 - 6 + 8,5,5,7,4,2371.660608800128,2373.6890148001257,2375.2046072999947,2380.223004699917,2384.9466568999924,2384.94666259992,2386.463295599912,2387.4804593001027,w,7.0,4.723652200074866,0,+0,728,-15.655153734464196,0.3781192905467554,0.09922091237439812,2370572.0,11.64286441129109,-0.20927972383535387,-0.12745387948218134,2374106.0,,,,,2375.199321777023,2371.665321777023,
157,37,21,F,1,3,149.0,35,4,high,3 + 9 - 4 + 7 + 6,21,19,21,20,2388.9981971001253,2391.021102000028,2392.537187499925,2397.554959699977,2398.5065894001164,2398.5065965999383,2400.023025600007,2401.0405898001045,w,21.0,0.9516297001391648,1,+10,738,7.406168035392089,-0.6773213959780922,0.02616064668538609,2387904.0,0.821892581514641,-0.4748465737941787,-0.24013879010328187,2391438.0,,,,,2392.531321777023,2388.997321777023,
158,37,21,F,1,3,150.0,36,3,high,7 - 1 + 8 - 6 + 4,12,12,13,11,2402.5587651999667,2404.5819419000763,2406.0969527999405,2411.116214700043,2411.994673700072,2411.9946793001145,2413.511240400141,2414.528530300129,q,12.0,0.8784590000286698,1,+10,748,20.721615461219386,-0.49872737362256014,-0.17817765524422757,2401465.0,-36.584910266127764,-0.7351475039608157,-0.14659191696269547,2404998.0,,,,,2406.091321777023,2402.558321777023,
159,37,21,F,1,3,151.0,37,3,high,2 - 4 + 9 + 7 + 1,15,16,15,13,2416.0451915999874,2418.06828040001,2419.5836223999504,2424.6020921000745,2425.506589200115,2425.506594500039,2427.023301300127,2428.0405355999246,w,15.0,0.9044971000403166,1,+10,758,-17.412473622375927,0.12016421473716843,-0.7840159699586904,2414951.0,-37.81955818380521,0.10237529874966267,-0.18557510671189537,2418485.0,,,,,2419.578321777023,2416.044321777023,
160,37,21,F,1,4,152.0,0,4,low,3 + 8 - 4 + 9 + 6,22,23,21,22,2448.335814899998,2450.3638702000026,2451.8787788001355,2456.8979827000294,2458.1786911000963,2458.178696600022,2459.6953753000125,2460.7125278001186,e,22.0,1.280708400066942,1,+1,759,12.425681715259252,4.312873301000058,1.9151489280832514,2447246.0,-22.142666896237003,5.970817034694736,6.526416210140331,2450781.0,,,,,2451.874321777023,2448.339321777023,
161,37,21,F,1,4,153.0,1,3,low,8 - 1 + 6 - 7 + 5,11,12,11,13,2462.229236399988,2464.256306000054,2465.77118219994,2470.7900489000604,2471.706597200129,2471.706602300052,2473.223620899953,2474.240497800056,w,11.0,0.9165483000688256,1,+1,760,14.358481995075795,0.12548250067504618,-0.11899130074040576,2461139.0,14.544288468788928,-6.983210056469303,-4.186750744332992,2464672.0,,,,,2465.765321777023,2462.232321777023,
162,37,21,F,1,4,154.0,2,1,high,4 + 8 + 1 - 1 - 1,11,13,9,11,2475.75734329992,2477.781977900071,2479.296925799921,2484.3149675999302,2485.1065915999934,2485.106597600039,2486.62322170008,2487.640609600116,q,13.0,0.791624000063166,0,+0,760,19.337348843998427,-19.487648669545262,-11.928006933466337,2474664.0,-17.238756481646114,0.42526496748447906,-0.615847553742082,2478197.0,,,,,2479.290321777023,2475.757321777023,
163,37,21,F,1,4,155.0,3,3,low,2 + 9 + 1 - 5 + 7,14,14,12,15,2489.156921799993,2491.181362099945,2492.6965654001106,2497.71638499992,2498.699952499941,2498.699958699988,2500.216657500016,2501.2337798001245,q,14.0,0.9835675000213088,1,+1,761,-10.772345530480612,16.36597995885445,11.600420837400081,2488064.0,-24.976330249848036,0.2875299725078593,-0.12356160869160626,2491599.0,,,,,2492.692321777023,2489.157321777023,
164,37,21,F,1,4,156.0,4,2,low,7 + 5 + 1 - 1 - 8,4,4,3,2,2502.751218799968,2504.7751184999943,2506.2903605001047,2511.308830599999,2512.1547320000827,2512.1547379000112,2513.671693400014,2514.6891753000677,q,4.0,0.845901400083676,1,+1,762,-12.408667928346999,-0.35880319375362335,-0.504498908681591,2501657.0,1.1773151616319837,-3.326368108894961,-3.681211390980173,2505191.0,,,,,2506.284321777023,2502.750321777023,
165,37,21,F,1,4,157.0,5,4,high,5 + 6 - 4 + 7 + 9,23,23,25,24,2516.2056297000963,2518.232502799947,2519.747661800124,2524.766551299952,2525.8029122001026,2525.802917700028,2527.319234299939,2528.3366960000712,q,23.0,1.036360900150612,1,+10,772,8.671088703174535,5.249316711719807,5.862138603981447,2515115.0,5.1711902868198365,-7.244092232747435,-2.070269912119861,2518648.0,,,,,2519.741321777023,2516.208321777023,
166,37,21,F,1,4,158.0,6,2,high,8 + 1 + 1 + 9 - 4,15,14,16,15,2529.853674700018,2531.880499199964,2533.395700500114,2538.4138251999398,2539.1067653000355,2539.106770500075,2540.62388999993,2541.6410259001423,e,15.0,0.6929401000961661,1,+10,782,2.6292716299694376,-9.527711609172735,-5.378246287078846,2528762.0,12.871699190245435,1.5426157358797248,-0.27253098334654524,2532296.0,,,,,2533.389321777023,2529.855321777023,
167,37,21,F,1,4,159.0,7,4,high,3 + 9 - 5 + 8 - 7,8,8,7,9,2543.158112300094,2545.183101800037,2546.6980769000947,2551.718020200031,2552.6347326000687,2552.63473800011,2554.1514041000046,2555.168622199912,q,8.0,0.9167124000377952,1,+10,792,42.34268165526139,0.17573442925419558,-0.2602229018617901,2542065.0,12.85490246102476,0.06235462448024709,0.0609157839296417,2545600.0,,,,,2546.693321777023,2543.158321777023,
168,37,21,F,1,4,160.0,8,3,low,4 + 7 + 1 + 9 - 5,16,17,18,16,2556.68537140009,2558.709799000062,2560.224999200087,2565.243240100099,2566.066692699911,2566.0666978999507,2567.58311040001,2568.600041100057,e,16.0,0.823452599812299,1,+1,793,-11.380492283563905,-0.672323669793462,6.121473651256251,2555592.0,9.930701399508605,-1.4010906246409052,-3.0660738455862955,2559125.0,,,,,2560.218321777023,2556.685321777023,
169,37,21,F,1,4,161.0,9,2,high,4 + 7 + 1 + 1 - 8,5,4,5,7,2570.116493300069,2572.1420340000186,2573.657209400088,2578.6756988000125,2581.106675900053,2581.1066813000944,2582.623166800011,2583.640052200062,e,7.0,2.430977100040764,0,+0,793,-20.218296404347104,0.4802868885024343,0.669496666314914,2569024.0,20.30432487961238,-1.6534725303892257,-7.494188602276212,2572558.0,,,,,2573.651321777023,2570.117321777023,
170,37,21,F,1,4,162.0,10,3,high,7 - 1 + 8 - 6 + 4,12,13,11,12,2585.1568315001205,2587.1853265999816,2588.700529300142,2593.7191248999443,2595.746736400062,2595.746741800104,2597.2632412000094,2598.2806222999934,e,12.0,2.027611500117928,1,+10,803,-15.355804192745193,-0.48459459379300585,0.21526894234573923,2584066.0,-22.14207995562498,0.3536937382212182,-0.7906606339051816,2587601.0,,,,,2588.694321777023,2585.159321777023,
171,37,21,F,1,4,163.0,11,4,high,5 + 7 - 4 - 6 + 9,11,11,12,13,2599.797084199963,2601.8217563000508,2603.3370843001176,2608.356581799919,2609.2188033000566,2609.2188087000977,2610.735060099978,2611.751898500137,q,11.0,0.8622215001378208,1,+10,813,3.219385792778586,-13.725057029626548,-14.488489938396828,2598703.0,-24.592021005726778,-10.625609930280218,-9.219593528208733,2602238.0,,,,,2603.331321777023,2599.796321777023,
172,37,21,F,1,4,164.0,12,3,low,8 + 4 + 1 - 7 + 9,15,16,13,15,2613.2686930999625,2615.293108599959,2616.808292499976,2621.82753879996,2622.826766600134,2622.826771900058,2624.3433010000736,2625.360293000005,e,15.0,0.999227800173685,1,+1,814,12.778296279023117,0.1616098762280358,-0.0344897590182387,2612175.0,-12.766535684869684,0.19625110432441462,0.16060419300021733,2615708.0,,,,,2616.801321777023,2613.268321777023,
173,37,21,F,1,4,165.0,13,2,low,6 + 1 + 8 + 5 - 1,19,18,19,17,2626.877185800113,2628.904328200035,2630.419571900042,2635.4376336999703,2636.458807700081,2636.4588136000093,2637.975273600081,2638.9921047999524,w,19.0,1.0211740001104772,1,+1,815,-4.585198065953111,0.08300135348178372,-0.14945228428988155,2625786.0,37.42024929624464,-0.07145139969479697,0.13512908910804677,2629319.0,,,,,2630.412321777023,2626.879321777023,
174,37,21,F,1,4,166.0,14,2,low,5 - 8 + 7 + 1 + 1,6,8,7,6,2640.509233100107,2642.5332398000173,2644.0484446999617,2649.066673600115,2649.802876099944,2649.8028816999868,2651.31909679994,2652.3353446000256,e,6.0,0.7362024998292327,1,+1,816,9.711967959944353,0.16974166051631334,-0.15862671523482574,2639415.0,18.488994401297926,0.39280839217982466,1.1671742115889974,2642948.0,,,,,2644.041321777023,2640.508321777023,
175,37,21,F,1,4,167.0,15,1,high,7 + 1 + 4 + 1 - 1,12,12,13,14,2653.851988099981,2655.875836699968,2657.390958399977,2662.4092639000155,2663.450857399963,2663.45086270012,2664.967379299924,2665.984865000006,q,12.0,1.0415934999473393,1,+10,826,-1.4877511865561388,-0.5470127101746138,-0.23163331010988153,2652757.0,9.0018117241044,-0.5290527281533981,-0.6866584562545759,2656290.0,,,,,2657.383321777023,2653.850321777023,
176,37,21,F,1,4,168.0,16,3,low,4 + 1 + 8 + 9 - 5,17,18,17,19,2667.501357400092,2669.528454300016,2671.0436710999347,2676.0617249999195,2677.882745400071,2677.882750699995,2679.399523800006,2680.415946000023,w,17.0,1.8210204001516104,1,+1,827,41.73607858824061,-7.877263179758977,-5.625422693382303,2666410.0,17.293520068963502,1.1045558911597655,0.6139416200019576,2669943.0,,,,,2671.036321777023,2667.503321777023,
177,37,21,F,1,4,169.0,17,2,low,6 + 1 + 1 + 7 - 9,6,4,8,6,2681.9327092999592,2683.958802900044,2685.4740683001,2690.49233509996,2691.37087340001,2691.370879099937,2692.8873781999573,2693.9043255001307,e,6.0,0.8785383000504225,1,+1,828,13.503022511605614,2.5298319722560745,1.6235216380545614,2680840.0,-41.27929218913741,0.9748889854422806,3.4885256442078365,2684373.0,,,,,2685.466321777023,2681.933321777023,
178,37,21,F,1,4,170.0,18,4,high,2 + 9 - 4 + 8 + 7,22,23,21,22,2695.421089099953,2697.4490952000488,2698.963933000108,2703.9828528000508,2704.7229474000637,2704.722953000106,2706.2391301000025,2707.2561985000502,e,22.0,0.7400946000125259,1,+10,838,-12.577649582886352,1.8067348539615997,1.7996682690661108,2694330.0,-2.4765387741661193,0.10465635956949493,-0.10701461771045873,2697863.0,,,,,2698.956321777023,2695.423321777023,
179,37,21,F,1,4,171.0,19,3,high,7 - 5 + 9 + 1 - 4,8,8,7,9,2708.7731918999925,2710.796309700003,2712.311439699959,2717.3297087000683,2718.154985500034,2718.154991300078,2719.6715673001017,2720.688866399927,q,8.0,0.8252767999656498,1,+10,848,-4.637887376125308,-0.017566082167321362,-0.612755298542011,2707677.0,-1.109915891164226,-0.8737068778715011,-0.7920943152010227,2711211.0,,,,,2712.304321777023,2708.770321777023,
180,37,21,F,1,4,172.0,20,4,low,7 + 6 - 9 + 8 - 3,9,8,7,9,2722.205548600061,2724.229202999966,2725.744319400052,2730.762762000086,2732.8108761000917,2732.810882400023,2734.327508300077,2735.3439990999177,e,9.0,2.0481141000054777,1,+1,849,-44.74179852046309,-8.215231132532384,-7.625002814689855,2721110.0,17.307438993324926,-2.970057865954651,-2.4941534241977825,2724644.0,,,,,2725.7373217770228,2722.203321777023,
181,37,21,F,1,4,173.0,21,1,high,6 + 1 + 1 + 9 - 1,16,15,16,14,2736.8613205000293,2738.8871619000565,2740.402088599978,2745.4200468999334,2746.210924200015,2746.2109296000563,2747.727913599927,2748.74608079996,w,16.0,0.7908773000817746,1,+10,859,36.76532469128481,-1.6634762215026004,-1.8399379915377994,2735768.0,-0.5150328913956423,-0.5807499089452537,-0.6725965771561353,2739301.0,,,,,2740.394321777023,2736.861321777023,
182,37,21,F,1,4,174.0,22,2,low,7 + 1 + 9 - 1 - 8,8,6,7,8,2750.2624943000264,2752.2873192999978,2753.8025347001385,2758.822514700005,2759.4748815000057,2759.4748867000453,2760.9912636999507,2762.0079344001133,e,8.0,0.6523668000008911,1,+1,860,-30.08871173474303,-21.977669867697102,-17.560333767368338,2749168.0,16.06224164857708,0.694616660941751,3.199325132411165,2752703.0,,,,,2753.796321777023,2750.261321777023,
183,37,21,F,1,4,175.0,23,3,low,4 + 1 + 8 + 9 - 5,17,19,17,18,2763.5251557000447,2765.552658099914,2767.0675210999325,2772.085635300027,2776.378917899914,2776.37892389996,2777.895533400122,2778.912319099996,w,17.0,4.293282599886879,1,+1,861,5.91140443404398,0.37756923861029357,-2.467178605576981,2762433.0,-2.3943001320520554,-0.02226192802973781,-8.150851424725943,2765966.0,,,,,2767.059321777023,2763.526321777023,
184,37,21,F,1,4,176.0,24,1,high,7 + 1 + 4 + 1 - 1,12,12,13,11,2780.429098899942,2782.45335950004,2783.9679676999804,2788.9866848001257,2789.770955800079,2789.770961600123,2791.2876383000985,2792.304896000074,q,12.0,0.7842709999531507,1,+10,871,0.8018526630730989,-0.4123184574695986,0.08150941537114065,2779334.0,-4.164835167012416,-1.3730087325175027,-2.2055982368294824,2782867.0,,,,,2783.960321777023,2780.427321777023,
185,37,21,F,1,4,177.0,25,4,low,7 + 6 - 4 + 9 - 5,13,12,13,14,2793.821593099972,2795.84774080012,2797.3629441999365,2802.381257599918,2803.682971399976,2803.6829769001342,2805.200281199999,2806.217343600001,w,13.0,1.3017138000577688,1,+1,872,-9.03083358615255,1.0915054855389794,6.3391136624864455,2792728.0,-6.069936525626085,0.4557502184820432,2.584996830098931,2796262.0,,,,,2797.355321777023,2793.821321777023,
186,37,21,F,1,4,178.0,26,1,high,3 + 1 + 1 + 8 - 1,12,12,14,13,2807.733831899939,2809.7609940001275,2811.2766529999208,2816.294852500083,2817.3149496999104,2817.314955000067,2818.831515799975,2819.8486031000502,q,12.0,1.0200971998274326,1,+10,882,-36.09774548406978,-0.1044965607138666,-0.4058391630661293,2806641.0,27.618435418634405,0.028184293919637504,-1.0554209539621593,2810175.0,,,,,2811.268321777023,2807.734321777023,
187,37,21,F,1,4,179.0,27,3,high,3 - 7 + 5 + 1 + 9,11,12,13,11,2821.365384200122,2823.3897057999857,2824.9048922001384,2829.923057100037,2830.538914500037,2830.538919799961,2832.0553725000937,2833.072529500117,e,11.0,0.6158574000000954,1,+10,892,6.824650824065478,0.7296399825224764,0.2659382744972074,2820270.0,16.08530482812656,-3.8522063477879325,-10.511719091122858,2823804.0,,,,,2824.897321777023,2821.363321777023,
188,37,21,F,1,4,180.0,28,1,low,2 + 1 + 1 + 9 - 1,12,11,13,12,2834.5891974999104,2836.6149369999766,2838.130172099918,2843.148330100113,2844.0270032000262,2844.027008699952,2845.543552899966,2846.560129000107,e,12.0,0.878673099912703,1,+1,893,-3.9720712813798382,4.531633887551321,8.598054220175257,2833495.0,-21.025414151474116,-0.10592572569978698,0.03151467162934907,2837029.0,,,,,2838.122321777023,2834.588321777023,
189,37,21,F,1,4,181.0,29,1,high,8 + 1 + 5 + 1 + 1,16,16,15,17,2848.076654900098,2850.1047821999528,2851.6199044999667,2856.6386440000497,2857.458922700025,2857.458928300068,2858.9756779000163,2859.9928739999887,q,16.0,0.8202786999754608,1,+10,903,-31.918358731160268,5.73438118804226,6.511010352320106,2846985.0,9.236670018510639,2.60804795966234,1.4571842698299546,2850518.0,,,,,2851.611321777023,2848.078321777023,
190,37,21,F,1,4,182.0,30,2,low,4 + 8 + 1 + 1 - 5,9,9,11,8,2861.509630799992,2863.535052200081,2865.050346700009,2870.068678300129,2872.058975999942,2872.058981300099,2873.5765180001035,2874.593279700028,q,9.0,1.9902976998128,1,+1,904,10.090872118241704,-0.5678927706625947,-0.13667032975959614,2860415.0,22.72018050912913,1.8080521446642632,4.073606285804448,2863949.0,,,,,2865.042321777023,2861.508321777023,
191,37,21,F,1,4,183.0,31,1,high,8 + 1 + 1 - 1 - 4,5,6,3,5,2876.1099592000246,2878.13431870006,2879.6493236001115,2884.6684477000963,2885.659042400075,2885.6590480001178,2887.175592200132,2888.192699100124,e,5.0,0.9905946999788284,1,+10,914,-13.017928770818125,0.039129111290049146,-0.12237614131235386,2875015.0,-16.536279334695937,0.9461487785737126,-0.1446706460581897,2878548.0,,,,,2879.6413217770228,2876.108321777023,
192,37,21,F,1,4,184.0,32,4,high,6 + 9 + 7 - 3 - 5,14,12,13,14,2889.7093986999243,2891.733643300133,2893.248569099931,2898.2672441999894,2901.026992799947,2901.026998500107,2902.543631100096,2903.5610722999554,e,14.0,2.7597485999576747,1,+10,924,10.661900734322504,-20.6366122616037,-12.209927159819097,2888613.0,0.8509811333672412,-12.117414961848517,-7.073838770067099,2892147.0,,,,,2893.240321777023,2889.706321777023,
193,37,21,F,1,4,185.0,33,2,high,6 + 1 + 1 + 8 - 9,7,7,5,9,2905.077829899965,2907.1060317000374,2908.620992399985,2913.639878900023,2914.6030294001102,2914.603034700034,2916.119583999971,2917.13681549998,q,7.0,0.9631505000870676,1,+10,934,9.059398191698564,-0.37852950483978365,-0.1274545191842993,2903986.0,-1.2491759495435133,-0.21782594542323475,-0.2443578650481606,2907519.0,,,,,2908.6123217770228,2905.079321777023,
194,37,21,F,1,4,186.0,34,1,high,6 + 9 + 1 + 1 - 1,16,14,16,15,2918.653611900052,2920.679472899996,2922.1944226999767,2927.2133967999835,2928.547004000051,2928.547009800095,2930.0637453000527,2931.081014299998,w,16.0,1.3336072000674903,1,+10,944,13.951009954550337,-0.12976501188146417,0.7914652309666272,2917559.0,-18.249999738404362,0.2969029617315133,-0.38043512024001336,2921093.0,,,,,2922.186321777023,2918.652321777023,
195,37,21,F,1,4,187.0,35,1,low,5 + 1 + 1 + 9 + 1,17,19,16,17,2932.597776300041,2934.625741400057,2936.141301200026,2941.158830899978,2942.3709857999347,2942.370991300093,2943.88754549995,2944.9044383000582,e,17.0,1.2121548999566585,1,+1,945,-28.985974835288076,1.8827768180575268,5.3389404967825875,2931505.0,6.716250482589407,-0.161140753702254,-0.11139468499185634,2935039.0,,,,,2936.132321777023,2932.598321777023,
196,37,21,F,1,4,188.0,36,4,low,8 + 5 - 4 + 7 + 9,25,26,24,25,2946.4209298000205,2948.4466272001155,2949.961892100051,2954.980431000004,2955.9151966001373,2955.9152031999547,2957.43166760006,2958.4485629999544,e,25.0,0.9347656001336871,1,+1,946,7.492882761212646,0.09271372120701438,-0.009959918123631173,2945326.0,14.611150933943335,-0.02176847596704956,-0.09416072893127048,2948860.0,,,,,2949.953321777023,2946.419321777023,
197,37,21,F,1,4,189.0,37,4,low,5 + 8 - 4 - 6 + 9,12,13,12,14,2959.9682861000765,2961.993168100016,2963.5082966000773,2968.526970700128,2969.54712270014,2969.5471282000653,2971.063597599976,2972.0803209999576,w,12.0,1.0201520000118762,1,+1,947,18.858812996724566,-0.09053640719705491,-0.20946596598779266,2958872.0,15.582094898519326,0.016672776561400315,-0.14008033303892375,2962406.0,,,,,2963.499321777023,2959.965321777023,
198,37,21,F,1,5,190.0,0,4,high,4 + 7 + 9 - 5 + 7,22,24,22,23,3008.1191914000083,3010.1452973000705,3011.6604275999125,3016.680295899976,3017.803092699964,3017.8030981000047,3019.319667899981,3020.337105700048,w,22.0,1.1227967999875546,1,+10,957,28.55687212742892,0.02400630700510442,1.398926917350141,3007025.0,-15.338275163230158,1.2082553779237584,1.4291857645339046,3010559.0,,,,,3011.652321777023,3008.118321777023,
199,37,21,F,1,5,191.0,1,1,high,8 + 1 + 1 + 1 - 4,7,8,7,5,3021.853829700034,3023.878145100083,3025.393727699993,3030.4118757001124,3031.3070376000837,3031.307042900007,3032.823284300044,3033.8403525999747,w,7.0,0.8951618999708444,1,+10,967,15.73762878916115,-1.2837179876074902,-3.6059610316187545,3020757.0,-62.34727940236786,-2.771958273917712,-5.385077189796041,3024291.0,,,,,3025.384321777023,3021.850321777023,
