,id,age,sex,cued,block,trial,trialinblock,efflev,rewlev,calc,corAns,option1,option2,option3,tstart,ITI1Time,probTime,respTime,selectTime,ITI2Time,fbTime,ITI3Time,key_press,chosenAns,RT,acc,feedback,total_points,cuescr,cuecor,cuezyg,cuetime,probscr,probcor,probzyg,probtime,fbscr,fbcor,fbzyg,fbtime,probtime_c,cuetime_c,fbtime_c
0,38,37,f,0,Practice,,0,1,0,4 + 1 + 9 + 1 + 1,16,15,14,16,86.60240980004892,,86.60241260007024,91.88362860004418,94.50250210007653,94.50250840000808,96.01979609997944,97.04074760014193,e,16.0,2.6188735000323504,1,Correct,0,,,,,20.682308470799644,-19.84178684075193,-39.536457527336054,84206.0,1.7317012837928445,27.319165419887366,45.44560430341044,93364.0,86.86966055004699,,96.02766055004699
1,38,37,f,0,Practice,,1,1,0,3 + 1 + 1 + 8 - 1,12,10,12,11,98.55735479993746,,98.5573585999664,103.6323742000386,106.98243029997684,106.98243620013818,108.49940870003776,109.51788359996864,w,12.0,3.3500560999382287,1,Correct,0,,,,,-5.720507785089763,-10.314635747173728,-4.469594672545536,95955.0,12.641721123191616,-10.209461636067353,-30.610217361580073,105841.0,98.61866055004698,,108.50466055004698
2,38,37,f,0,Practice,,2,2,0,8 + 1 + 6 + 1 - 4,12,11,10,12,111.0356111000292,,111.035615199944,116.05500930012204,117.75852339994162,117.75852990010752,119.27575769997202,120.29306720010936,e,12.0,1.7035140998195857,1,Correct,0,,,,,12.515466197009873,-0.9873337666164099,-0.3526506131859488,108378.0,-15.073701819490166,12.231993387981808,22.15813352523782,116616.0,111.04166055004698,,119.27966055004698
3,38,37,f,0,Practice,,3,2,0,9 + 4 - 6 + 1 - 1,7,6,7,5,121.81008150009438,,121.81008520000614,126.82921410002746,128.41456219996326,128.4145681001246,129.9318924001418,130.96122900000773,e,5.0,1.5853480999357998,0,Incorrect,0,,,,,-4.7879721738348175,-10.238995939721098,-13.909051742437248,119152.0,23.291110161290277,-0.6336162822895277,-2.3877817339053813,127284.0,121.81566055004699,,129.94766055004698
4,38,37,f,0,Practice,,4,3,0,9 + 3 - 5 + 6 + 7,20,21,20,22,132.47797530004755,,132.47797870007344,137.49758199998178,139.53460320015438,139.5346093000844,141.05216399999335,142.07030380005017,w,20.0,2.037021200172603,1,Correct,0,,,,,14.180393495408387,-0.5309269023906413,0.23058878452009868,129821.0,-3.501974517627084,2.221981395551185,4.0326489872970805,138393.0,132.48466055004698,,141.05666055004698
5,38,37,f,0,Practice,,5,3,0,2 + 1 + 9 - 7 + 6,11,10,11,9,143.5877886000089,,143.58779200003482,148.6082933000289,150.63848110008985,150.63848730013706,152.15545190009288,153.17419399996288,w,11.0,2.0301878000609577,1,Correct,0,,,,,-17.636285694858472,13.290844150595953,28.40311551731383,140931.0,24.652530373290638,11.220929572569553,30.897182073990827,149497.0,143.594660550047,,152.160660550047
6,38,37,f,0,Practice,,6,4,0,4 + 8 + 5 - 3 + 7,21,23,22,21,154.69145720009692,,154.69146080012433,159.71203990001231,164.4225322001148,164.42253839992918,165.93952270015143,166.95818840013817,w,22.0,4.710492300102487,0,Incorrect,0,,,,,-0.6864312233694427,1.381932634009409,-0.5688486606083174,152035.0,-14.950566930267373,0.29235563674211207,-0.04234081573043191,163281.0,154.69866055004698,,165.944660550047
7,38,37,f,0,Practice,,7,4,0,5 + 8 - 4 + 6 + 9,24,22,23,24,168.4753761999309,,168.47538010007702,173.4951528001111,175.71054850006476,175.71055479999632,177.22752750013024,178.24580000014976,e,24.0,2.2153956999536604,1,Correct,0,,,,,-6.315828551457926,-19.686138518426503,-29.133062060480817,165818.0,9.319045879837866,-0.3941020284184886,0.26393034616355804,174569.0,168.481660550047,,177.23266055004697
8,38,37,f,1,0,0.0,0,2,high,9 + 4 - 6 + 1 - 1,7,9,8,7,322.4282643001061,324.4774571999442,325.9927348000929,331.0117113001179,333.1963430000469,333.1963480999693,334.71453350014053,335.7329562001396,e,7.0,2.184631699929014,1,+10,10,12.384907051893265,5.842803180704125,-14.694201941584772,319799.0,-6.830212376910035,0.4569084696929937,-3.2425546538096057,323334.0,13.063395653278906,0.4020420239667444,-2.8654132016749365,332054.0,325.997660550047,322.46266055004696,334.71766055004696
9,38,37,f,1,0,1.0,1,4,high,4 + 7 + 8 - 3 + 9,25,24,25,26,337.2496891000774,339.2925396999344,340.8078075000085,345.82627830002457,348.8442188999616,348.8442236999981,350.3609802001156,351.3782125001308,e,26.0,3.017940599936992,0,+0,10,-18.865203402654167,0.4712646208453597,-0.06409412030789063,334615.0,-4.834491882128155,0.7570868755222078,-2.320223429233394,338148.0,-12.719981553124313,0.2290464319267338,0.11200557188269267,394788.0,340.811660550047,337.278660550047,397.451660550047
10,38,37,f,1,0,2.0,2,1,low,9 + 8 + 1 + 1 - 1,18,18,19,17,352.89511219994165,354.9213606000412,356.43641920015216,361.4557552000042,362.96420970000327,362.9642151000444,364.48073459998704,365.49743820005096,q,18.0,1.5084544999990612,1,+1,11,26.922009834874785,-3.8238593161390386,-10.031351276820086,350243.0,-16.747569179086764,0.24731638160181113,4.363370603713383,353778.0,14.136563193623338,-6.698174108999806,-7.1016340653543715,361820.0,356.441660550047,352.906660550047,364.483660550047
11,38,37,f,1,0,3.0,3,4,high,8 + 4 + 7 - 5 - 6,8,9,8,6,367.015113200061,369.0424872001168,370.55776680004783,375.57618080009706,380.5932877000887,380.5932901999913,382.1107781000901,383.132508700015,,,,0,Too Slow!,11,11.837308533076538,1.2059187630756445,-0.6956658154735207,364364.0,-4.6173035685757835,0.41902602802916133,-0.270745421478249,367898.0,10.801110767165792,-1.0308962094399146,-0.8070233311795847,379454.0,370.561660550047,367.02766055004696,382.117660550047
12,38,37,f,1,0,4.0,4,4,high,5 + 8 - 6 + 7 + 4,18,18,19,17,384.6492975000292,386.6711037000641,388.1861944999546,393.2048708000221,395.932275300147,395.9322804999538,397.4485782999545,398.4665109000634,q,18.0,2.727404500124976,1,+10,21,-26.79274866034333,0.39254324549844233,-0.4272764298673093,381993.0,1.114593737889276,1.8431338402728503,1.5161875142481662,385527.0,,,,,388.19066055004697,384.656660550047,
13,38,37,f,1,0,5.0,5,4,high,6 + 7 + 9 - 3 + 5,24,22,23,24,399.98380980012007,402.0049882000312,403.5203426000662,408.540047199931,410.0123292999342,410.012334600091,411.52931750006974,412.54706380004063,w,23.0,1.4722821000032127,0,+0,21,1.9265478629210984,0.6192189032121025,0.041311053642431705,397327.0,-2.020967681762585,0.5100907968159318,0.2774814083478354,400862.0,,,,,403.525660550047,399.990660550047,
14,38,37,f,1,0,6.0,6,4,high,5 + 8 - 4 - 6 + 9,12,13,12,14,414.0636907001026,416.0896860000212,417.6056298001204,422.62461149995215,426.5564274999779,426.5564323000144,428.07265019998886,429.0900407000445,w,12.0,3.93181600002572,1,+10,31,0.12892517214264032,0.6921755668140959,0.04432811616372101,411411.0,-6.785430557651825,0.5045200984035496,0.10293823305135508,414946.0,,,,,417.609660550047,414.074660550047,
15,38,37,f,1,0,7.0,7,2,low,3 + 8 - 5 + 1 + 1,8,8,6,9,430.6071150000207,432.64819780015387,434.1634909999557,439.182781400159,440.0922616000753,440.09226740011945,441.60895860008895,442.6257466999814,q,8.0,0.9094801999162884,1,+1,32,27.34377442967001,1.6096516218231711,-0.019344030754104402,427970.0,13.227603980921781,0.77287975121539,-0.000807228760876022,431504.0,,,,,434.167660550047,430.633660550047,
16,38,37,f,1,0,8.0,8,4,low,6 + 5 - 7 + 8 - 9,3,3,5,4,444.1425765000749,446.1695604000706,447.684519500006,452.70298069994897,453.4123850001488,453.4123901000712,454.92858549999073,455.9450338000897,q,3.0,0.7094043001998216,1,+1,33,-18.450774564846867,2.5122094572177933,-0.007961795122656046,441491.0,9.805384666579615,0.5987969011546457,0.08693267428772922,445025.0,,,,,447.68866055004696,444.15466055004697,
17,38,37,f,1,0,9.0,9,4,high,7 + 8 - 4 + 6 + 5,22,21,22,23,457.4617292000912,459.4870617999695,461.00253330008127,466.0213170000352,467.5644149000291,467.5644199000672,469.0807583001442,470.0980549999513,q,21.0,1.5430978999938816,0,+0,33,-36.73165856380248,0.7377746078087357,3.83808669851152,454808.0,9.245172439544282,0.45402910105786765,-0.1822364980796154,458343.0,,,,,461.006660550047,457.471660550047,
18,38,37,f,1,0,10.0,10,3,high,8 + 4 + 1 - 7 + 9,15,15,16,13,471.6158919001464,473.65665809996426,475.1719200001098,480.1911635999568,484.2044091001153,484.2044146000408,485.7210017000325,486.7382650999352,w,16.0,4.013245500158519,0,+0,33,1.5517896158659408,0.2812678289947641,-0.1500097918339236,468978.0,19.421470020922428,0.07065071280907897,0.0332770845461039,472512.0,,,,,475.175660550047,471.641660550047,
19,38,37,f,1,0,11.0,11,3,low,5 + 1 + 7 - 8 + 6,11,9,11,13,488.2550941000227,490.297439099988,491.8127254000865,496.83404530002736,500.1164524999913,500.116457400145,501.6330920001492,502.6502435000148,q,9.0,3.2824071999639277,0,+0,33,-4.046172225494992,0.7880774618820956,0.31780609523191217,485619.0,-0.5031639138202184,1.7322288242709294,-0.1576340758180388,489155.0,,,,,491.81866055004696,488.282660550047,
20,38,37,f,1,0,12.0,12,1,high,5 + 1 + 1 + 9 + 1,17,19,17,16,504.1673137000762,506.1983604000416,507.7132862000726,512.7320689000189,514.3724964000285,514.3725016999524,515.889800200006,516.9078993001021,w,17.0,1.6404275000095367,1,+10,43,-7.543891974731562,0.3602981316002061,0.34789941988663653,501520.0,-5.806675391961537,0.3123307010538352,0.14186342618612402,505053.0,,,,,507.716660550047,504.18366055004697,
21,38,37,f,1,0,13.0,13,1,high,7 - 1 + 1 + 9 - 1,15,15,14,13,518.4248432000168,520.4508126999717,521.966140100034,526.9845092000905,528.404460699996,528.4044656001497,529.9214548999444,530.938776700059,q,15.0,1.4199514999054372,1,+10,53,13.263358935733125,0.3001965369959092,0.16577469148047141,515772.0,4.790142269115553,-0.33144348320673966,0.20074037042466886,519306.0,,,,,521.969660550047,518.435660550047,
22,38,37,f,1,0,14.0,14,1,high,7 + 1 + 5 + 1 - 1,13,13,14,12,532.4555508000776,534.4819877000991,535.9973057000898,541.0157014001161,541.6363921000157,541.6363973999396,543.1528334000614,544.1701738999691,q,13.0,0.6206906998995692,1,+10,63,-8.582483961881369,-0.02123846417566222,0.02517205848985915,529803.0,-37.06655647782867,0.3745942421687136,0.04438252363132378,533337.0,,,,,536.000660550047,532.466660550047,
23,38,37,f,1,0,15.0,15,4,low,5 + 7 - 4 - 6 + 9,11,12,13,11,545.6870904001407,547.7145283999853,549.2298016001005,554.2485257999506,556.6524114001077,556.6524165000301,558.1685808999464,559.1859432000201,w,13.0,2.403885600157082,0,+0,63,-9.983460788202287,0.965177846997757,0.9344528538043311,543035.0,-12.488593874705657,0.965328972359031,-0.1467495962403711,546570.0,,,,,549.233660550047,545.698660550047,
24,38,37,f,1,0,16.0,16,3,high,4 + 8 - 3 + 5 - 1,13,13,12,14,560.7026698000263,562.7292880001478,564.2446357000154,569.2737913001329,571.3004449000582,571.3004503999837,572.817625900032,573.8349464000203,w,12.0,2.026653599925339,0,+0,63,1.7013936061172235,0.3803734198788469,-0.016328539522690644,558050.0,-26.59345221354303,0.30242053389881374,0.16802082184850242,561595.0,,,,,564.258660550047,560.7136605500469,
25,38,37,f,1,0,17.0,17,4,high,3 + 8 - 5 + 9 - 7,8,8,6,7,575.3519061999395,577.3762715000194,578.8915157001466,583.9100303000305,586.2524352001492,586.252440399956,587.7690074001439,588.7862199000083,q,8.0,2.3424049001187086,1,+10,73,2.8235391246601775,-0.04885254935499095,0.11125987034889828,572697.0,-19.6420368644701,-0.08779718112509816,-0.11863057863978366,576231.0,,,,,578.894660550047,575.360660550047,
26,38,37,f,1,0,18.0,18,4,low,3 + 8 - 7 + 9 - 5,8,7,8,9,590.3027133999858,592.3305019999389,593.8457609999459,598.8806281001307,601.6605344000272,601.6605396000668,603.1767516001128,604.1938563000876,e,9.0,2.7799062998965383,0,+0,73,27.282888058392803,-0.35307673885630475,-0.041212181025725325,587651.0,-35.193813368022155,0.6495932320427391,-0.3608775962413162,591201.0,,,,,593.864660550047,590.3146605500469,
27,38,37,f,1,0,19.0,19,4,high,5 + 7 - 4 + 6 + 9,23,23,25,24,605.7107132000383,607.7378263000865,609.2530149000231,614.2716298000887,615.3485081000254,615.348513300065,616.8651853001211,617.8825451999437,q,23.0,1.0768782999366522,1,+10,83,-10.596828625171359,1.1459462640200453,-0.7350253795050179,603059.0,33.23366474566534,2.1644404055866913,-12.006076939269303,606592.0,,,,,609.255660550047,605.722660550047,
28,38,37,f,1,0,20.0,20,1,low,8 + 1 + 1 + 1 - 3,8,9,8,6,619.4001418000553,621.4254791000858,622.9406093000434,627.9583596000448,628.932541300077,628.9325465001166,630.450007500127,631.4667716000695,w,8.0,0.9741817000322044,1,+1,84,-4.680086590737214,-4.90834921899928,2.171219399671518,616746.0,2.216130618539051,0.001888027615660981,0.08382621033356319,620279.0,,,,,622.942660550047,619.409660550047,
29,38,37,f,1,0,21.0,21,1,low,6 + 9 + 1 + 1 - 1,16,14,15,16,632.9835198000073,635.0074911999982,636.5227606000844,641.5408588999417,642.3166793000419,642.316684700083,643.8331351000816,644.8500831001438,e,16.0,0.7758204001002014,1,+1,85,5.433563757169432,0.25231697907595363,-0.14397850366123155,630328.0,19.443152835699408,0.38807922414869855,0.7389505330922836,633862.0,,,,,636.525660550047,632.991660550047,
30,38,37,f,1,0,22.0,22,4,high,9 + 3 - 5 + 8 + 6,21,23,19,21,646.3670288999565,648.3924463000149,649.9074304001406,654.9257221999578,655.9806113000959,655.9806162000168,657.4969163001515,658.5142079000361,e,21.0,1.054889100138098,1,+10,95,6.467281038533579,0.6133602163956264,0.060102684989924215,643713.0,-45.964471658214094,0.25631046105206945,0.12798663744287664,647246.0,,,,,649.909660550047,646.376660550047,
31,38,37,f,1,0,23.0,23,1,high,4 + 7 + 1 - 1 - 1,10,11,10,9,660.0310555000324,662.0555372999515,663.5707163999323,668.5896360999905,669.140499799978,669.1405045001302,670.6568209000397,671.6739396001212,w,10.0,0.5508636999875307,1,+10,105,-5.00623652868761,-0.560306514184655,0.18751506862583334,657376.0,3.9827611322937884,0.24213018425914123,-0.3268940882513005,660910.0,,,,,663.573660550047,660.039660550047,
32,38,37,f,1,0,24.0,24,3,low,2 + 1 + 9 - 7 + 6,11,11,12,13,673.1907967999578,675.2148667001165,676.7300408000592,681.7484089999925,683.6605167000089,683.6605235000607,685.1774270001333,686.1943783001043,q,11.0,1.9121077000163496,1,+1,106,21.68723807984255,1.3809324936760548,0.09850658291409387,670535.0,-30.54049035572963,1.0327074540374923,0.442794760569702,674069.0,,,,,676.732660550047,673.198660550047,
33,38,37,f,1,0,25.0,25,1,high,6 + 9 + 1 + 1 - 1,16,16,14,15,687.711337500019,689.7378424000926,691.2527952000964,696.2709286001045,696.9086045001168,696.9086094000377,698.4243530000094,699.4414733999874,q,16.0,0.6376759000122547,1,+10,116,-2.5326438971648804,-0.8289737284036853,-0.03891982785607362,685058.0,7.8018952350681054,-0.14723379934745395,0.12773072748374315,688591.0,,,,,691.254660550047,687.721660550047,
34,38,37,f,1,0,26.0,26,2,low,4 + 7 + 1 + 1 - 8,5,5,7,4,700.9582299999893,702.9863980000373,704.5017872999888,709.5203291999642,711.9166009000037,711.9166060001589,713.4337619999424,714.4513807001058,w,7.0,2.396271700039506,0,+0,116,-3.4177561757811645,0.8388302740665585,0.03559354428782102,698307.0,3.4647738922916975,0.5010069261544281,-0.0641210286465117,701841.0,,,,,704.504660550047,700.970660550047,
35,38,37,f,1,0,27.0,27,1,low,8 + 1 + 1 - 1 - 4,5,5,3,6,715.9681939999573,717.9949708001222,719.5101459999569,724.5294507001527,725.4605195000768,725.4605252000038,726.9766228001099,727.9935217001475,q,5.0,0.9310687999241054,1,+1,117,-13.203961800350358,0.6976334699477249,0.07599384704436729,713315.0,20.657018270022014,0.6141911689540942,-0.02406940941352609,716850.0,,,,,719.513660550047,715.978660550047,
36,38,37,f,1,0,28.0,28,2,high,8 + 1 + 1 + 9 - 4,15,16,15,14,729.5103637001012,731.5373901999556,733.0526324000675,738.0708904999774,738.6926562001463,738.6926609000657,740.2093889999669,741.2267521000467,w,15.0,0.6217657001689076,1,+10,127,-29.02087334203634,0.4208374521428633,-0.009606636953826353,726857.0,2.832811980266717,0.35927949658640834,-0.40712705254876513,730391.0,,,,,733.054660550047,729.520660550047,
37,38,37,f,1,0,29.0,29,1,low,2 + 9 + 1 + 1 + 1,14,13,14,12,742.744299300015,744.7698544999585,746.2850111001171,751.3042029000353,752.0686109000817,752.0686164000072,753.585425300058,754.6022193001118,w,14.0,0.7644080000463873,1,+1,128,-24.876320513218182,0.372962286523546,-0.2102885484853836,740090.0,20.788719331522017,1.0479902088025752,0.7962576530122885,743624.0,,,,,746.287660550047,742.753660550047,
38,38,37,f,1,0,30.0,30,3,high,2 + 9 + 1 - 5 + 7,14,15,12,14,756.1196487001143,758.1469732001424,759.6618896001019,764.6800967999734,766.0285579001065,766.0285628000274,767.5447339001112,768.5617172999773,q,15.0,1.348461100133136,0,+0,128,14.28765349314911,0.6352121321577053,-0.09351700970706789,753467.0,6.936728718268608,0.9370058142897939,0.09257714173337273,757000.0,,,,,759.663660550047,756.130660550047,
39,38,37,f,1,0,31.0,31,3,low,2 + 1 + 9 - 5 + 6,13,14,11,13,770.0785505000968,772.101763700135,773.6169905001298,778.6354664000683,779.5645938001107,779.5645986001473,781.0804389000405,782.0969265999738,e,13.0,0.9291274000424892,1,+1,129,6.639676760317606,0.5528476453474251,0.1190615081404307,767422.0,20.74469824801284,0.7696480452685401,-0.06151069464263448,770955.0,,,,,773.618660550047,770.085660550047,
40,38,37,f,1,0,32.0,32,2,low,4 + 9 - 7 + 1 - 1,6,6,5,8,783.6137834000401,785.6374194000382,787.1526544000953,792.1712122000754,795.0526094001252,795.0526141999289,796.568902600091,797.5860355999321,q,6.0,2.8813972000498325,1,+1,130,22.887332645906838,0.8149098702963076,-0.13454024657944608,780957.0,18.734856280484408,0.6126713809999389,-0.03475864697675046,784491.0,,,,,787.154660550047,783.620660550047,
41,38,37,f,1,0,33.0,33,4,high,3 + 9 - 5 + 8 - 7,8,7,8,9,799.1027730000205,801.1297210999765,802.6445780999493,807.6633584001102,808.6366550000384,808.636660200078,810.1529610001016,811.1702916999348,w,8.0,0.9732965999282897,1,+10,140,-6.713550544781381,0.0578052733356893,0.11553703804485349,796450.0,10.017503452494479,0.7824938598554976,0.13060058084239867,799983.0,,,,,802.6466605500469,799.113660550047,
42,38,37,f,1,0,34.0,34,3,low,3 - 7 + 5 + 1 + 9,11,13,12,11,812.6869041000027,814.7099006001372,816.2250304000918,821.2433830001391,823.2685794001445,823.2685841000639,824.7845648999792,825.8016415999737,w,12.0,2.0251964000053704,0,+0,140,-17.310788086560077,0.8409574824306603,0.11037681026980284,810030.0,3.319971498349003,0.741537124010871,0.05014273900163335,813563.0,,,,,816.226660550047,812.693660550047,
43,38,37,f,1,0,35.0,35,4,high,8 + 5 - 4 + 7 + 9,25,25,24,26,827.3183406000026,829.3411040001083,830.8564848001115,835.8751577001531,837.7487171001267,837.7487276999746,839.265446000034,840.282998500159,e,26.0,1.873559399973601,0,+0,140,11.174037344765253,0.04765797865416399,0.8139957394162867,824661.0,-19.984889256105237,0.7280150348812238,-0.4569200697258897,828195.0,,,,,830.858660550047,827.3246605500469,
44,38,37,f,1,0,36.0,36,1,low,7 + 1 + 4 + 1 - 1,12,13,14,12,841.7998560999986,843.8269416000694,845.342079800088,850.3615747001022,851.0926370001398,851.0926423999481,852.6096757000778,853.6264730000403,e,12.0,0.7310623000375926,1,+1,141,-6.202162312566073,1.0445485719149308,-0.00525607736962419,839147.0,-24.714244486307145,0.1837881973784281,-0.09535956215982955,842680.0,,,,,845.3436605500469,841.810660550047,
45,38,37,f,1,0,37.0,37,3,high,7 + 5 + 9 + 1 - 6,16,14,16,15,855.1433234999422,857.170307100052,858.6855791001581,863.7038823000621,866.3647382000927,866.3647432001308,867.8846792001277,868.9021566000301,w,16.0,2.660855900030583,1,+10,151,2.7496314242995803,-0.4496226351183279,3.6300355124315824,852490.0,-7.259507676440334,1.2546581645042179,-0.12179840758751048,856024.0,,,,,858.687660550047,855.153660550047,
46,38,37,f,1,1,38.0,0,4,high,2 + 9 - 4 + 8 + 7,22,22,21,23,889.6010650000535,891.6259826000314,893.1411991000641,898.1612986000255,901.868770699948,901.8687756001018,903.3857412999496,904.4040151000954,q,22.0,3.707472099922597,1,+10,161,30.63650623056385,11.064244474602173,15.700298017065785,886945.0,17.57972247134386,0.8338333387644852,0.378228775178838,890481.0,,,,,893.144660550047,889.608660550047,
47,38,37,f,1,1,39.0,1,2,low,7 + 1 + 9 - 1 - 8,8,6,8,7,905.920750600053,907.9477928001434,909.46306920005,914.483087999979,915.1566546999384,915.1566594000906,916.6728213999886,917.6903167001436,w,8.0,0.6735666999593377,1,+1,162,5.079768644597536,1.1429026280429824,-0.1629459386367571,903267.0,10.049551050426281,0.7049031610579743,0.18169854978557654,906802.0,,,,,909.465660550047,905.930660550047,
48,38,37,f,1,1,40.0,2,3,high,6 - 1 + 7 - 8 + 9,13,12,13,11,919.2065320000984,921.2310512999538,922.7462840999942,927.7647897000425,930.7007675000932,930.7007730000188,932.2173438000028,933.2345780001488,e,11.0,2.9359778000507504,0,+0,162,-1.1234258501289816,1.3077143660571635,0.21402351731142555,916550.0,16.95420011104534,0.8130167149049039,-0.16644697563946464,920084.0,,,,,922.7476605500469,919.2136605500469,
49,38,37,f,1,1,41.0,3,4,high,8 + 4 + 7 - 5 - 6,8,8,9,6,934.7520826000256,936.7767589001452,938.2919211001137,943.3104296000674,945.940770199988,945.9407754000276,947.457193300128,948.4743542999496,e,6.0,2.6303405999206007,0,+0,162,-9.910071359118051,0.6308237780986055,0.06944807421444832,932096.0,-33.12100246265201,0.9204552082707051,0.1940841498613528,935630.0,,,,,938.293660550047,934.759660550047,
50,38,37,f,1,1,42.0,4,2,low,7 + 6 + 1 - 1 - 8,5,4,5,3,949.9919473000336,952.0177728000564,953.5330604999326,958.5533412001096,961.2688154999632,961.268821100006,962.7851665001364,963.8018346999306,w,5.0,2.715474299853668,1,+1,163,30.817044815874393,0.7230646723097598,-0.27137395705961165,947337.0,0.9900603873934486,0.8718773126297079,0.0490835607261344,950872.0,,,,,953.5356605500469,950.000660550047,
51,38,37,f,1,1,43.0,5,1,low,8 - 1 + 1 + 6 + 1,15,15,16,14,965.3184398000594,967.3460182000416,968.8613108999562,973.8791201999412,975.8767337000464,975.8767391999718,977.3934888001532,978.4102886000182,q,15.0,1.997613500105217,1,+1,164,21.82445386083081,0.18192257420611124,0.19954595801540687,962665.0,-25.832854710673104,0.29958959101009697,0.057742607971398074,966198.0,,,,,968.861660550047,965.328660550047,
52,38,37,f,1,1,44.0,6,2,high,4 + 9 - 7 + 1 - 1,6,6,8,5,979.9270256001035,981.9526826001238,983.4679479000624,988.495116099948,990.26074529998,990.2607502001338,991.7772214999422,992.7944996999576,q,6.0,1.7656292000319809,1,+10,174,7.405817141453994,0.38956340082960716,0.0784626406090625,977272.0,20.140027109052056,0.6100797713549659,0.1750781264593333,980814.0,,,,,983.477660550047,979.935660550047,
53,38,37,f,1,1,45.0,7,2,high,5 + 7 - 8 + 1 + 1,6,6,7,8,994.311322200112,996.3352860999294,997.8500930999872,1002.8685367000288,1005.5088607999496,1005.5088663999924,1007.0255036000162,1008.0428802999668,q,6.0,2.64032409992069,1,+10,184,23.539951381676488,0.020809155857103967,-0.40044973340978274,991654.0,42.27027686992379,0.9293961084462397,0.010236039956041942,995187.0,,,,,997.850660550047,994.317660550047,
54,38,37,f,1,1,46.0,8,4,low,4 + 9 - 7 + 8 + 5,19,20,19,21,1009.5599209000356,1011.5847269999796,1013.0999654000624,1018.1184513999616,1020.6048103999346,1020.6048171999864,1022.1217535999604,1023.1384340000805,w,19.0,2.486358999973163,1,+1,185,-21.775397716592998,0.6351689345816358,-0.026511174844184637,1006904.0,17.677203790750223,1.0411416916783747,0.05788513181143906,1010437.0,,,,,1013.100660550047,1009.567660550047,
55,38,37,f,1,1,47.0,9,4,low,3 + 9 - 4 + 7 + 6,21,19,20,21,1024.6553879999556,1026.6810578999575,1028.1960768999998,1033.214578300016,1036.8208948001266,1036.8209001000505,1038.3382946001366,1039.3554475000128,w,20.0,3.606316500110552,0,+0,185,11.609397704418376,0.5468940615830595,-0.11445159767012947,1022000.0,20.041838290816514,0.8907251710681607,0.3487342159293241,1025533.0,,,,,1028.1966605500468,1024.6636605500469,
56,38,37,f,1,1,48.0,10,2,high,6 + 1 + 8 + 7 - 1,21,23,21,19,1040.8724209000356,1042.8991137000266,1044.4143010999542,1049.434622199973,1051.8528807000257,1051.8528863999527,1053.369187900098,1054.3867057999596,w,21.0,2.418258500052616,1,+10,195,-4.082233531134584,0.6493513267533975,0.13222424976187197,1038218.0,-11.24568685377353,1.1649493755187295,2.445507193762575,1041753.0,,,,,1044.4166605500468,1040.881660550047,
57,38,37,f,1,1,49.0,11,1,high,7 - 1 + 8 + 1 - 1,14,13,14,12,1055.9039328999352,1057.930828700075,1059.446097300155,1064.4742797999645,1067.676882199943,1067.6768871999811,1069.1934360000305,1070.2103816000745,w,14.0,3.2026023999787867,1,+10,205,-5.599418998819803,0.3249229074392357,0.1600486444018383,1053249.0,-0.18291834031435883,0.1114406668169945,0.00546634174983085,1056793.0,,,,,1059.4566605500468,1055.912660550047,
58,38,37,f,1,1,50.0,12,4,high,7 + 6 + 8 - 4 + 5,22,22,23,21,1071.727155599976,1073.7516314000825,1075.2678108001128,1080.2862060000189,1082.6528336999472,1082.6528384999838,1084.169138400117,1085.186207700055,w,23.0,2.366627699928358,0,+0,205,1.7510114619282415,0.13915342731034297,0.009699509576893028,1069070.0,4.077234073485305,0.3769363937048955,-0.00964554925503136,1072605.0,,,,,1075.268660550047,1071.7336605500468,
59,38,37,f,1,1,51.0,13,2,high,7 + 8 + 1 + 9 + 1,26,24,25,26,1086.702567900065,1088.729050300084,1090.2441056000534,1095.2624834999442,1096.7569985999726,1096.7570035001263,1098.27355849999,1099.2912868000567,e,26.0,1.494515100028366,1,+10,215,9.196711791807203,0.5271090636820257,0.19767748159700727,1084048.0,10.113755281115935,0.6328630933872135,0.0918751719045694,1087581.0,,,,,1090.2446605500468,1086.7116605500469,
60,38,37,f,1,1,52.0,14,1,high,3 + 1 + 8 + 1 + 1,14,12,13,14,1100.8081529000774,1102.835295600118,1104.350446500117,1109.3686724000145,1110.2529254001563,1110.2529303999618,1111.769100600155,1112.7859980999492,e,14.0,0.8842530001420528,1,+10,225,26.91990872576511,11.726833182041979,29.61719695427637,1098154.0,-19.93060951291056,1.5703808956182366,4.628465855860168,1101687.0,,,,,1104.3506605500468,1100.8176605500469,
61,38,37,f,1,1,53.0,15,2,high,3 + 9 - 1 - 5 + 1,7,6,5,7,1114.302892599953,1116.3279667999595,1117.842967200093,1122.8622665000148,1123.476888100151,1123.4768932999575,1124.993375299964,1126.0105989000294,e,7.0,0.6146216001361609,1,+10,235,-6.06821113531125,0.982722080381154,-0.026892573165147926,1111646.0,-13.449776554773582,0.9533053783015508,0.046864876826250956,1115181.0,,,,,1117.844660550047,1114.3096605500468,
62,38,37,f,1,1,54.0,16,4,low,7 + 6 - 4 + 9 - 5,13,13,12,14,1127.527352000121,1129.551394799957,1131.0668351999484,1136.0850259000435,1136.9968586999455,1136.9968640999869,1138.5135171001311,1139.530625600135,q,13.0,0.9118327999021858,1,+1,236,18.774407307570677,0.23475172995945393,-0.04112974953552495,1124870.0,-5.630085460413259,0.49444251188491517,-0.0752124555385667,1128404.0,,,,,1131.0676605500469,1127.5336605500468,
63,38,37,f,1,1,55.0,17,2,low,2 + 9 - 4 + 1 + 1,9,9,11,8,1141.0473869000562,1143.0747970000375,1144.5899388999678,1149.6084742001258,1150.2129759001546,1150.2129808999598,1151.7289959001355,1152.7454162000213,q,9.0,0.6045017000287771,1,+1,237,33.40712073736796,0.6193317531100364,-0.09391167898818442,1138394.0,-9.143210196562242,0.9031911302516438,0.08417627777587255,1141927.0,,,,,1144.5906605500468,1141.0576605500469,
64,38,37,f,1,1,56.0,18,3,high,9 + 3 - 4 + 6 + 7,21,21,23,22,1154.2621921000537,1156.2892758001108,1157.8043798001015,1162.8225033001509,1165.5409765001386,1165.5409818000626,1167.057602500077,1168.075035500107,q,21.0,2.718473199987784,1,+10,247,11.064070743799434,0.7599302680460873,0.13862204747763784,1151607.0,-5.1085647185140495,0.4918110571227361,-0.005529508636651359,1155141.0,,,,,1157.804660550047,1154.2706605500468,
65,38,37,f,1,1,57.0,19,2,low,8 + 1 + 4 - 7 + 1,7,5,6,7,1169.5916263000108,1171.6176311001182,1173.132865600055,1178.1512754000723,1178.9810322001576,1178.9810373999644,1180.4975904000455,1181.5145209000912,q,5.0,0.8297568000853062,0,+0,247,8.279451707640398,0.6438103916448394,0.07724255530601631,1166936.0,-5.075266828641858,0.4943865593945036,0.28219962673714427,1170469.0,,,,,1173.132660550047,1169.5996605500468,
66,38,37,f,1,1,58.0,20,3,high,5 - 1 - 4 + 6 + 7,13,13,15,14,1183.0313196999489,1185.0566934000235,1186.571767900139,1191.5903038000688,1192.533240900142,1192.5332460000643,1194.0497721000577,1195.0669180999976,q,13.0,0.9429371000733228,1,+10,257,1.9650499108329846,0.7120760303125206,-0.7769988301132706,1180375.0,24.709756832041244,0.4935524328275154,-0.618556747272389,1183908.0,,,,,1186.5716605500468,1183.0386605500469,
67,38,37,f,1,1,59.0,21,2,high,2 + 9 + 1 + 1 - 5,8,6,8,7,1196.5838735001162,1198.6094858001452,1200.1244310999757,1205.1428533000872,1206.4450131000483,1206.445017900085,1207.9618653000798,1208.9792190999724,e,7.0,1.3021597999613732,0,+0,257,2.6732338356813647,0.8021588967457691,0.009136330684851757,1193927.0,17.49096663789239,0.3435988907372858,0.07551107075738539,1197461.0,,,,,1200.1246605500469,1196.5906605500468,
68,38,37,f,1,1,60.0,22,4,low,8 + 4 + 7 - 5 - 6,8,9,8,7,1210.496132100001,1212.5192495000083,1214.0344929001294,1219.0532464000862,1220.797010099981,1220.7970152001362,1222.3135826999787,1223.3309160999488,q,9.0,1.743763699894771,0,+0,257,-0.12364529512377231,-1.6269535810320468,0.05870707823488108,1207837.0,-1.296679369492038,0.6415928610919597,0.04435426834207323,1211371.0,,,,,1214.034660550047,1210.5006605500469,
69,38,37,f,1,1,61.0,23,3,low,5 + 6 + 7 - 1 - 9,8,9,7,8,1224.8476889999583,1226.8726671000477,1228.3880473999309,1233.4066820000298,1234.6930410000496,1234.693046400091,1236.2093132000882,1237.225868599955,e,8.0,1.2863590000197291,1,+1,258,-5.864224661163561,-0.9825673521902019,0.0960970629163509,1222190.0,12.42210759136838,1.3431498708892349,0.008041910959656784,1225724.0,,,,,1228.3876605500468,1224.853660550047,
70,38,37,f,1,1,62.0,24,1,low,4 + 1 + 1 + 7 - 1,12,14,12,13,1238.7425629000645,1240.7675664999988,1242.2829948000144,1247.3015376999974,1250.581043299986,1250.5810484001413,1252.0976005999837,1253.114607000025,e,13.0,3.2795055999886245,0,+0,258,15.936100441231018,-1.1342932165315185,0.0010303260949979798,1236085.0,-9.929708298350395,-0.03361332490705671,-0.042281233031115084,1239619.0,,,,,1242.2826605500468,1238.748660550047,
71,38,37,f,1,1,63.0,25,3,high,6 + 7 + 8 + 1 - 9,13,15,13,14,1254.6311210000422,1256.6550809999462,1258.170230000047,1263.190125199966,1266.5569905999582,1266.5569957001137,1268.0733138001524,1269.0904387000485,w,13.0,3.366865399992093,1,+10,268,-6.490122003955316,-0.6222314715634107,-0.03812919796316305,1251973.0,-16.123653794920465,9.658063656772136,19.08281486823437,1255508.0,,,,,1258.171660550047,1254.6366605500468,
72,38,37,f,1,1,64.0,26,1,low,3 + 1 + 1 + 9 - 1,13,13,12,14,1270.6072484001052,1272.6313734999858,1274.1465863001067,1279.1643801999744,1280.6689882001374,1280.6689931999426,1282.185422200011,1283.2022136999294,q,13.0,1.504608000162989,1,+1,269,8.275909570675829,-0.38755954048915164,0.09587852831015087,1267949.0,-24.114463238016725,0.0448275987107718,-0.01637689162520739,1271482.0,,,,,1274.1456605500468,1270.612660550047,
73,38,37,f,1,1,65.0,27,2,low,9 + 6 + 1 + 7 + 1,24,25,24,23,1284.7186368999537,1286.7444428999445,1288.259666300146,1293.2778946000617,1294.4369799999986,1294.4369846000336,1295.9534660000354,1296.970045800088,w,24.0,1.1590853999368846,1,+1,270,23.345633642153153,2.9091245056082258,0.014234020775531153,1282062.0,-13.147436916669376,0.6616832839560454,0.03689521981222699,1285595.0,,,,,1288.258660550047,1284.7256605500468,
74,38,37,f,1,1,66.0,28,3,high,7 - 1 + 8 - 6 + 4,12,13,11,12,1298.486954400083,1300.5142698001582,1302.030358399963,1307.0491804999765,1308.0370837000664,1308.037089599995,1309.5537179000676,1310.5706428000703,e,12.0,0.9879032000899316,1,+10,280,-2.4357762395680886,1.0981995657435486,0.127970117616109,1295832.0,9.943224305845114,-0.48689397010429225,4.6948680900937845e-05,1299367.0,,,,,1302.0306605500468,1298.495660550047,
75,38,37,f,1,1,67.0,29,2,low,6 + 1 + 1 + 7 - 9,6,4,6,8,1312.0873684999533,1314.1142953999806,1315.6294794999994,1320.6492755999789,1323.4851274001412,1323.4851323999465,1325.0011347001418,1326.0194202000275,e,8.0,2.835851800162345,0,+0,280,11.128999002922304,0.5079855464657408,-0.08900490746926071,1309432.0,-14.229314472528097,1.4308321795866332,0.10242486287915664,1312967.0,,,,,1315.630660550047,1312.095660550047,
76,38,37,f,1,1,68.0,30,2,high,9 + 4 + 5 + 1 - 1,18,19,17,18,1327.5369268001523,1329.56382749998,1331.0787794999778,1336.0969416999724,1337.9330919000786,1337.933097000001,1339.4498006999493,1340.467505000066,e,18.0,1.836150200106204,1,+10,290,3.9792415257267217,-0.3011001269954825,-0.03770839224295064,1324881.0,1.4898622598983042,-2.242096392363731,-1.099929662057229,1328414.0,,,,,1331.0776605500469,1327.544660550047,
77,38,37,f,1,1,69.0,31,4,low,3 + 9 - 5 + 6 + 8,21,23,22,21,1341.984235699987,1344.007415900007,1345.5238193999976,1350.5436615000945,1353.653122799937,1353.653128399979,1355.1697718000505,1356.1870925000403,q,23.0,3.1094612998422235,0,+0,290,-12.013717938141067,1.2714057633531581,2.333623625134216,1339325.0,15.732059373604987,1.0069075151168039,-3.7325216764538416,1342860.0,,,,,1345.5236605500468,1341.988660550047,
78,38,37,f,1,1,70.0,32,2,low,4 + 8 + 1 + 1 - 6,8,9,8,7,1357.7038110001013,1359.7318685001228,1361.247211500071,1366.2652938000392,1367.0691513000056,1367.0691565999296,1368.5863614000846,1369.603379999986,w,8.0,0.8038574999663979,1,+1,291,-0.27394639207602367,0.11196917805011619,4.45966019778372,1355049.0,9.776822897571426,1.3022103671494651,-0.0038238803452252945,1358583.0,,,,,1361.246660550047,1357.7126605500468,
79,38,37,f,1,1,71.0,33,1,high,7 + 1 + 4 + 1 - 1,12,13,12,11,1371.1208055999596,1373.1477560999338,1374.6636066001374,1379.6828960999846,1380.7811422001105,1380.781147700036,1382.2987071999814,1383.3169100000523,w,12.0,1.0982461001258343,1,+10,301,-29.7809363582475,-0.3511854718549685,0.015304564228251216,1368465.0,-0.34234324725342,0.04297488816456241,0.0894736558137732,1372000.0,,,,,1374.6636605500469,1371.1286605500468,
80,38,37,f,1,1,72.0,34,3,low,3 + 1 + 8 - 5 + 9,16,15,16,17,1384.8339011999778,1386.8581419000402,1388.3733082001563,1393.3908446000423,1396.0291701001115,1396.029175600037,1397.5458148999603,1398.562792000128,w,16.0,2.638325500069186,1,+1,302,0.8091373551388443,4.330746222012931,1.1227541147304265,1382175.0,-1.0234240513967237,-4.74236237710779,-8.0814273936454,1385709.0,,,,,1388.372660550047,1384.8386605500468,
81,38,37,f,1,1,73.0,35,1,low,4 + 9 + 1 - 1 - 1,12,12,11,13,1400.0793602000922,1402.1051229999866,1403.620085600065,1408.638173100073,1409.5011194001418,1409.5011245000642,1411.017346699955,1412.034441899974,q,12.0,0.8629463000688702,1,+1,303,7.534262504542166,0.04683929826894229,-0.058464318729622766,1397422.0,1.6226447590006838,0.6873209386529808,0.09554320245980841,1400955.0,,,,,1403.6186605500468,1400.085660550047,
82,38,37,f,1,1,74.0,36,4,low,2 + 9 - 3 + 5 + 8,21,22,23,21,1413.5512129000854,1415.5771242999472,1417.0923330001533,1422.110732099973,1425.2453014999628,1425.2453065000009,1426.7613872000948,1427.7784605999475,e,21.0,3.1345693999901414,1,+1,304,10.1903335525935,0.8184369267487561,0.09807829403460877,1410894.0,4.287008350178212,-0.14934916840796042,-0.003393147836259214,1414428.0,,,,,1417.091660550047,1413.5576605500469,
83,38,37,f,1,1,75.0,37,1,low,4 + 8 + 1 - 1 - 1,11,9,11,13,1429.2952630000657,1431.3208506000228,1432.8361546001397,1437.854243300157,1438.4932494000532,1438.4932550999802,1440.0099693001248,1441.0266017999966,w,11.0,0.6390060998965055,1,+1,305,9.037239444122076,-6.127070383609397,-20.38367667325985,1426638.0,-9.305660766255878,0.731806355290531,0.14655198412031667,1430171.0,,,,,1432.834660550047,1429.3016605500468,
84,38,37,f,1,2,76.0,0,3,low,6 + 1 + 8 + 7 - 9,13,13,14,15,1492.2813965000678,1494.307569500059,1495.8228399001528,1500.8428231000437,1502.413188100094,1502.4131932000164,1503.9294487000443,1504.9468000000345,e,15.0,1.570365000050515,0,+0,305,5.021655350831967,3.404866902679792,1.286230194994186,1489624.0,5.200176331286702,1.4467801686300397,0.11313683381622885,1493160.0,,,,,1495.823660550047,1492.287660550047,
85,38,37,f,1,2,77.0,1,3,low,8 + 3 + 1 - 7 + 9,14,12,14,15,1506.4639376001433,1508.4884506000672,1510.0043730000034,1515.0228008001577,1517.3573243999854,1517.3573295001406,1518.8738059001043,1519.8909396000672,e,15.0,2.334523599827662,0,+0,305,-13.418766643565,1.38937522095007,-0.077344759436619,1503805.0,12.617741079281567,1.2701590303748795,0.3534207415595252,1507340.0,,,,,1510.0036605500468,1506.468660550047,
86,38,37,f,1,2,78.0,2,1,low,6 + 1 + 1 + 7 - 1,14,12,13,14,1521.4082249000203,1523.4341094000265,1524.949383100029,1529.9693819000386,1530.7732260001358,1530.773230999941,1532.2899691001512,1533.307317500003,e,14.0,0.8038441000971943,1,+1,306,7.421927760140495,0.4789384848606226,-0.48110943319833965,1518750.0,-26.19822145991313,1.0174366458868653,2.9468439031943685,1522286.0,,,,,1524.949660550047,1521.4136605500469,
87,38,37,f,1,2,79.0,3,3,high,4 + 1 + 8 + 9 - 5,17,19,17,18,1534.8246935000643,1536.851563900011,1538.3668077001348,1543.3849458000625,1543.9733086000197,1543.9733148999512,1545.4893577001058,1546.5064882999286,w,17.0,0.5883627999573946,1,+10,316,-25.696809761348437,0.9338171628357395,-0.12093583852420497,1532168.0,-2.784402357919137,2.447312425195184,0.6658944640916733,1535701.0,,,,,1538.364660550047,1534.8316605500468,
88,38,37,f,1,2,80.0,4,1,low,2 + 1 + 9 + 1 + 1,14,13,12,14,1548.0233734999783,1550.048707799986,1551.56360340002,1556.5828764000908,1557.3252398001496,1557.325244900072,1558.841598900035,1559.8584519000724,e,14.0,0.7423634000588208,1,+1,317,-39.22500409585261,1.1131475540267415,1.9279877594113852,1545365.0,5.211544038984513,-1.8252856236927508,0.14123760900352655,1548899.0,,,,,1551.5626605500468,1548.0286605500469,
89,38,37,f,1,2,81.0,5,2,low,3 + 1 + 8 - 5 - 1,6,6,7,5,1561.3751503000967,1563.401509999996,1564.9168042000383,1569.9350567001384,1570.645312299952,1570.6453174001072,1572.1614719000645,1573.1780046001077,q,6.0,0.7102555998135358,1,+1,318,8.634958293462237,0.9730690500260137,-0.3116319613669174,1558718.0,19.489973589734984,1.382003610551739,0.03105697484030978,1562251.0,,,,,1564.9146605500468,1561.381660550047,
90,38,37,f,1,2,82.0,6,2,low,5 + 8 + 1 - 1 + 9,22,23,22,21,1574.6948707001284,1576.7186344999354,1578.2338519999755,1583.2521993000992,1585.2453578000425,1585.2453628000803,1586.761892199982,1587.7790328001138,q,23.0,1.9931584999430925,0,+0,318,-56.968520979353286,1.49278048256107,1.0761093536730697,1572035.0,-39.88847021406051,0.6935299796093806,-1.0919303969164882,1575569.0,,,,,1578.2326605500468,1574.698660550047,
91,38,37,f,1,2,83.0,7,3,low,5 + 6 - 4 - 1 + 7,13,15,14,13,1589.2958562001586,1591.3209061999803,1592.836153500015,1597.854735800065,1600.1172589999624,1600.1172645001209,1601.6339084000792,1602.6509128001053,e,13.0,2.2625231998972595,1,+1,319,19.532701253101724,17.686952277972093,32.3062175334736,1586637.0,-33.35505185987343,0.9455590419583624,-0.38713873947798083,1590171.0,,,,,1592.834660550047,1589.3006605500468,
92,38,37,f,1,2,84.0,8,3,high,7 - 1 + 8 - 6 + 4,12,11,13,12,1604.1674913000315,1606.194332400104,1607.7099848999642,1612.7294211001135,1613.3652888999786,1613.3652939000167,1614.8817676999606,1615.898848599987,e,12.0,0.6358677998650819,1,+10,329,-9.856212260326112,1.0097899252075582,-0.2861566148028727,1601510.0,7.438661371608195,0.786501313234226,0.0125283699943326,1605045.0,,,,,1607.708660550047,1604.1736605500469,
93,38,37,f,1,2,85.0,9,1,low,9 + 7 + 1 + 1 + 1,19,18,19,20,1617.4166061999276,1619.4443439000752,1620.9593190001324,1625.9781935999636,1626.5413071000949,1626.5413120000158,1628.0575170000084,1629.0743796001188,w,19.0,0.5631135001312941,1,+1,330,20.834075481094953,0.21128143976560132,-0.2949689184523847,1614760.0,4.117258986955353,0.7854716136793494,0.17696715886291514,1618294.0,,,,,1620.957660550047,1617.4236605500469,
94,38,37,f,1,2,86.0,10,1,low,9 + 1 + 1 + 7 - 1,17,17,16,19,1630.5912449001337,1632.6157782000955,1634.1310596000403,1639.1495722001418,1639.7493024000432,1639.7493074000813,1641.2657906000968,1642.2825488999952,q,17.0,0.5997301999013871,1,+1,331,-5.125662523872602,0.7482016987914109,0.0640137612147047,1627931.0,-17.690537895442404,0.21494144878600885,-0.03561921156556869,1631465.0,,,,,1634.1286605500468,1630.594660550047,
95,38,37,f,1,2,87.0,11,4,low,7 + 6 - 9 + 8 - 3,9,9,7,8,1643.7992873000912,1645.8255698001012,1647.3407328000758,1652.3593596001156,1653.7493011001498,1653.7493058999537,1655.2658236001153,1656.2829326000065,q,9.0,1.3899415000341833,1,+1,332,16.73915736304822,1.363686850179286,0.16508289714555735,1641142.0,-2.7100698912649577,0.5266050141984921,0.10923586469055158,1644675.0,,,,,1647.3386605500468,1643.805660550047,
96,38,37,f,1,2,88.0,12,4,high,8 + 3 - 4 + 5 + 9,21,21,23,22,1657.7995236001443,1659.8256393000484,1661.3409039999824,1666.3592197999824,1666.917437700089,1666.9174427001271,1668.4339302999433,1669.4512092000805,q,21.0,0.5582179001066834,1,+10,342,10.12383926974792,0.6028217082456315,-0.11407688045444964,1655141.0,12.878380851730908,0.19321555039138083,-0.641116421460302,1658675.0,,,,,1661.3386605500468,1657.804660550047,
97,38,37,f,1,2,89.0,13,2,low,6 + 1 + 1 + 7 - 9,6,4,8,6,1670.9678921001032,1672.9941205000505,1674.5094685000367,1679.528104300145,1682.7333168000914,1682.7333221000154,1684.2502461001277,1685.2677045001185,w,8.0,3.205212499946356,0,+0,342,-6.471913488190429,0.9210155415737495,-0.0671479059640041,1668309.0,-2.1876258722832773,1.042960628592251,-0.0008117420791813323,1671844.0,,,,,1674.507660550047,1670.9726605500468,
98,38,37,f,1,2,90.0,14,1,high,2 + 1 + 1 + 9 - 1,12,13,11,12,1686.784276799997,1688.8121734000742,1690.3274026999716,1695.345568699995,1696.0853858999908,1696.0853912001476,1697.6018795000855,1698.6196836000308,e,12.0,0.7398171999957412,1,+10,352,8.129851109981507,-0.45276464163457764,0.07530307839622297,1684128.0,11.928039753223942,0.3282722773647717,0.006134544715261869,1687661.0,,,,,1690.324660550047,1686.7916605500468,
99,38,37,f,1,2,91.0,15,2,high,6 + 8 + 1 + 1 - 7,9,9,8,11,1700.136313300114,1702.16415029997,1703.679313099943,1708.698134999955,1710.5254939000588,1710.5254993001,1712.0417496999726,1713.0587494999636,q,9.0,1.827358900103718,1,+10,362,20.415907842630443,0.8660148564972534,-8.370349553721631,1697480.0,-5.407507954109475,0.9681646196045897,0.14887841711479277,1701014.0,,,,,1703.6776605500468,1700.143660550047,
100,38,37,f,1,2,92.0,16,4,low,3 + 8 - 4 + 9 + 7,23,22,23,24,1714.5755179000553,1716.5984310000204,1718.114154000068,1723.132533499971,1725.41342779994,1725.4134333000984,1726.930042500142,1727.9470780000556,w,23.0,2.280894299969077,1,+1,363,23.488060637064624,0.580001429268477,-3.0240533793525572,1711914.0,9.458317039128698,-1.0254737674680365,-0.8687874839063601,1715448.0,,,,,1718.111660550047,1714.5776605500469,
101,38,37,f,1,2,93.0,17,3,low,7 - 6 + 8 + 1 + 7,17,17,15,16,1729.4638197000604,1731.490001300117,1733.00490369997,1738.024774899939,1740.7814658000134,1740.781471099937,1742.298780299956,1743.315974000143,w,15.0,2.756690900074318,0,+0,363,2.1702587809346925,0.8478183664814956,-0.06533159026226976,1726805.0,4.244843974888218,0.9065326395599689,-0.381169400695462,1730340.0,,,,,1733.0036605500468,1729.468660550047,
102,38,37,f,1,2,94.0,18,2,high,8 + 1 + 9 + 1 - 4,15,14,16,15,1744.8329702001065,1746.8599116001278,1748.375145799946,1753.3934530999975,1754.0614457000047,1754.0614511000458,1755.5881694001146,1756.6053353000898,e,15.0,0.6679926000069827,1,+10,373,8.56300781252005,0.528869515114236,0.14879769344841876,1742175.0,77.7166491725672,0.7692995598896033,0.011106042319948717,1745709.0,,,,,1748.372660550047,1744.8386605500468,
103,38,37,f,1,2,95.0,19,4,high,3 + 8 - 4 + 9 + 6,22,22,23,21,1758.1218000999652,1760.1474218000658,1761.6626385001,1766.6807578001171,1769.9734126999974,1769.973417500034,1771.49008639995,1772.5078285001218,w,23.0,3.29265489988029,0,+0,373,-10.040025298534843,0.7326826206625396,-0.3993387228701617,1755463.0,18.18161192917218,1.2150666586628391,-0.08667696401614,1758996.0,,,,,1761.659660550047,1758.1266605500468,
104,38,37,f,1,2,96.0,20,3,low,3 + 8 - 7 - 1 + 9,12,13,14,12,1774.0334086001385,1776.0569104999304,1777.5721324000042,1782.590658100089,1783.9414868999738,1783.941492000129,1785.458060800098,1786.475854499964,w,14.0,1.3508287998847663,0,+0,373,-16.75610774957751,0.7114713456604607,0.10417316212433803,1771372.0,31.66149866249888,1.240697483625254,-0.014937232760858343,1774906.0,,,,,1777.5696605500468,1774.035660550047,
105,38,37,f,1,2,97.0,21,3,high,6 + 8 + 7 + 1 - 9,13,14,13,15,1787.9924594999757,1790.015444900142,1791.5308429000434,1796.549226999981,1797.7494282999542,1797.7494334999938,1799.2662728999276,1800.2837140001357,e,15.0,1.2002012999728322,0,+0,373,5.152510745335728,1.1567300698621752,0.2541130254882784,1785331.0,10.482993823037074,1.0166435006335135,-0.1647943512662442,1788865.0,,,,,1791.5286605500469,1787.9946605500468,
106,38,37,f,1,2,98.0,22,4,low,4 + 8 + 9 - 3 + 7,25,26,24,25,1801.8005331000315,1803.8250011000785,1805.3401763001457,1810.3585076001475,1811.309509899933,1811.3095150999725,1812.8260564000807,1813.843119499972,e,25.0,0.951002299785614,1,+1,374,14.352608889342209,1.1640717070305207,0.180976666578462,1799140.0,10.762785783865343,0.9514915587797832,-0.2395219561269739,1802674.0,,,,,1805.3376605500468,1801.803660550047,
107,38,37,f,1,2,99.0,23,3,low,3 + 8 + 1 + 5 - 9,8,9,8,7,1815.359709799988,1817.386616199976,1818.9018258000724,1823.9203141999897,1825.9895170000384,1825.9895226000808,1827.5061910999937,1828.523045200156,w,8.0,2.069202800048515,1,+1,375,4.610920578852928,0.7294505684281107,-0.23497652936002567,1812702.0,6.9572038579326465,0.36926607925434407,-0.07954858863267722,1816235.0,,,,,1818.8986605500468,1815.3656605500469,
108,38,37,f,1,2,100.0,24,1,high,5 + 6 + 1 + 1 + 1,14,16,14,15,1830.039790800074,1832.064604500076,1833.57997229998,1838.5978886000808,1839.1415860001,1839.1415912001396,1840.6578981999771,1841.6749080999289,w,14.0,0.5436974000185728,1,+10,385,-1.1749931620224299,-0.6444248055404023,-0.29100381281699006,1827380.0,-2.563509469433227,0.39176296269602284,-0.1036631308292737,1830913.0,,,,,1833.5766605500469,1830.043660550047,
109,38,37,f,1,2,101.0,25,3,low,7 - 5 + 9 + 1 - 4,8,8,9,7,1843.191709200153,1845.216566900024,1846.7316157000605,1851.7505805999967,1855.045560900122,1855.0455660999287,1856.562180600129,1857.579686000012,w,9.0,3.294980300124734,0,+0,385,9.694904202970704,0.9031108393848291,0.3193657377353707,1840531.0,15.917492524234751,0.9343912683401916,-0.06790135983684187,1844065.0,,,,,1846.728660550047,1843.1946605500468,
110,38,37,f,1,2,102.0,26,1,high,8 + 1 + 4 + 1 + 1,15,15,16,14,1859.096138200024,1861.1211113000757,1862.635807400104,1867.6549986000173,1868.341425599996,1868.341430300148,1869.8580410000868,1870.8753156000748,q,15.0,0.6864269999787211,1,+10,395,-30.089896508608632,1.150445141684251,-0.3008987847614797,1856436.0,23.868626625160196,-0.363076346768743,0.1094615433275008,1859970.0,,,,,1862.633660550047,1859.0996605500468,
111,38,37,f,1,2,103.0,27,4,low,5 + 9 - 4 + 7 + 6,23,24,23,25,1872.392146599945,1874.4198934999292,1875.935143999988,1880.9534124999773,1881.597587099997,1881.5975925000384,1883.1144610999615,1884.1315639000384,w,23.0,0.644174600020051,1,+1,396,17.237028950884362,1.0306983257898894,2.0978530238348805,1869734.0,-0.92798959245299,0.7984237149955353,-0.17668780377084836,1873269.0,,,,,1875.9326605500469,1872.3976605500468,
112,38,37,f,1,2,104.0,28,2,high,5 + 9 - 8 + 1 + 1,8,9,7,8,1885.6485063000584,1887.671585700009,1889.1867921000808,1894.20499280002,1895.277497600065,1895.277502699988,1896.793786100112,1897.8109739001372,w,7.0,1.0725048000458628,0,+0,396,25.975392130128736,0.1814446492255124,0.06757333246792285,1882986.0,7.476550872096611,0.7685415233958586,-0.27341566593819744,1886520.0,,,,,1889.1836605500469,1885.649660550047,
113,38,37,f,1,2,105.0,29,1,low,2 + 1 + 9 + 1 - 1,12,13,12,11,1899.3273801000323,1901.3507728001568,1902.865757199936,1907.883917500032,1908.509500599932,1908.509505199967,1910.0257403000724,1911.042615999933,w,12.0,0.6255830998998135,1,+1,397,27.544964382355786,0.6906799863816917,-1.1105315204234225,1896666.0,5.700825570055638,0.2138499660441111,-0.1188012946866408,1900199.0,,,,,1902.862660550047,1899.3296605500468,
114,38,37,f,1,2,106.0,30,2,low,9 + 6 + 1 + 7 + 1,24,23,24,25,1912.559339400148,1914.5867789001204,1916.1020863000304,1921.1203328000847,1921.6134602001405,1921.6134647999424,1923.129412899958,1924.1463411001023,w,24.0,0.4931274000555277,1,+1,398,-29.479227935963273,-0.11938776410945184,0.13470783218929538,1909902.0,-16.787471898478685,1.1521357633992877,0.1071614145235491,1913435.0,,,,,1916.0986605500468,1912.565660550047,
115,38,37,f,1,2,107.0,31,3,high,8 - 7 + 9 + 1 + 4,15,14,16,15,1925.6634216001255,1927.690166699933,1929.205016500084,1934.2253883001397,1935.0616055999417,1935.0616107999813,1936.5781960999595,1937.5956749001048,e,15.0,0.8362172998022288,1,+10,408,18.193849418480696,0.6817217068216501,-0.0967587774230858,1923005.0,8.452429673425492,0.6820812314068698,0.10409408032679357,1926540.0,,,,,1929.2036605500468,1925.668660550047,
116,38,37,f,1,2,108.0,32,2,low,9 + 1 + 6 + 7 + 1,24,23,25,24,1939.1125227999876,1941.139196400065,1942.654589000158,1947.672576199984,1948.261606400134,1948.261611999944,1949.7781269000843,1950.794910900062,e,24.0,0.589030200149864,1,+1,409,-6.021165734510692,0.17074259578416928,-0.16708012675782546,1936454.0,-27.828149343572388,0.6967433085244528,-0.04190587674676749,1939987.0,,,,,1942.650660550047,1939.1176605500468,
117,38,37,f,1,2,109.0,33,4,high,6 + 9 + 7 - 3 - 5,14,12,13,14,1952.3116955999285,1954.336900900118,1955.8518431000407,1960.8717078000773,1961.5176326001529,1961.5176377000755,1963.0341128001453,1964.051271900069,e,14.0,0.6459248000755906,1,+10,419,-29.019583148798276,0.3541762318042201,-0.23350251446110715,1949652.0,-3.3654072439872778,1.3675662372725323,0.08681515673381268,1953187.0,,,,,1955.8506605500468,1952.315660550047,
118,38,37,f,1,2,110.0,34,1,high,5 + 6 + 1 + 1 + 1,14,16,13,14,1965.5687200999816,1967.5934530000668,1969.1082895,1974.1261839000508,1974.8776346000377,1974.877639600076,1976.3942450000905,1977.4121827001215,e,14.0,0.75145069998689,1,+10,429,37.564808840421406,0.6089623331127205,-0.03473784669066138,1962908.0,3.1112653580534966,0.22463565696737753,0.15755510023497132,1966441.0,,,,,1969.104660550047,1965.5716605500468,
119,38,37,f,1,2,111.0,35,1,high,2 + 1 + 9 + 1 - 1,12,12,13,11,1978.929087500088,1980.9557795999567,1982.4709224000107,1987.4892051999925,1988.1816484001463,1988.1816537999548,1989.6982295000928,1990.715755500132,q,12.0,0.69244320015423,1,+10,439,7.219657653478327,-0.3874461952637156,-0.15487378153302034,1976270.0,6.459078813287022,0.2765118365516459,0.16272837746053614,1979804.0,,,,,1982.467660550047,1978.9336605500469,
120,38,37,f,1,2,112.0,36,2,low,7 + 5 + 1 + 9 + 1,23,21,22,23,1992.232574600028,1994.2593574000057,1995.7745523001067,2000.7926195999607,2001.7896058000624,2001.7896108999848,2003.306274099974,2004.323098000139,e,23.0,0.9969862001016736,1,+1,440,-11.19013407421486,0.558861463716732,0.02860268819797862,1989574.0,28.92950815680982,0.5485685864053114,0.14721874142876668,1993107.0,,,,,1995.7706605500468,1992.237660550047,
121,38,37,f,1,2,113.0,37,2,low,5 + 1 + 7 - 6 + 1,8,8,6,7,2005.8398452999536,2007.8639678000472,2009.3800655000375,2014.398480700096,2017.2216117000207,2017.2216169000603,2018.7382706999776,2019.755107600009,q,8.0,2.823130999924615,1,+1,441,20.51515119950694,-0.06623243727080208,0.17073874314983106,2003178.0,-27.313930548260835,1.2506544700786515,-0.07154241270396433,2006713.0,,,,,2009.3766605500468,2005.841660550047,
122,38,37,f,1,3,114.0,0,1,high,3 + 1 + 1 + 8 - 1,12,13,14,12,2053.057826900156,2055.086797500029,2056.60192809999,2061.6199843001086,2062.4697620000225,2062.469767200062,2063.9864517999813,2065.003781300038,e,12.0,0.8497776999138296,1,+10,451,-46.92518147276107,0.10303285143785113,-0.04523775649225703,2050400.0,-26.077467482417553,0.02675802235576219,-0.1274710114820894,2053934.0,,,,,2056.5976605500473,2053.063660550047,
123,38,37,f,1,3,115.0,1,4,high,9 + 7 - 5 + 8 + 6,25,24,25,27,2066.520365300122,2068.5463096001185,2070.0613188999705,2075.0799539000727,2076.8697254001163,2076.8697305000387,2078.386304799933,2079.403842000058,w,25.0,1.789771500043571,1,+10,461,-14.959725783853731,0.2982389591418775,0.05348048734137634,2063860.0,20.69281426650023,0.5361660271600388,0.08790785688622882,2067394.0,,,,,2070.057660550047,2066.523660550047,
124,38,37,f,1,3,116.0,2,4,low,4 + 7 - 8 + 9 - 4,8,8,7,9,2080.9203842999414,2082.94600230013,2084.461268800078,2089.4813993000425,2092.5976795000024,2092.597684300039,2094.1141305000056,2095.130755699938,q,8.0,3.116280199959874,1,+1,462,-22.233047866020758,1.2786590189610623,0.47821120094474967,2078260.0,-22.175463290277442,0.9052704810990688,-0.007232394669656195,2081795.0,,,,,2084.458660550047,2080.9236605500473,
125,38,37,f,1,3,117.0,3,2,high,3 - 1 + 9 - 5 + 1,7,5,6,7,2096.647208099952,2098.6699065000284,2100.1850624000654,2105.203071400057,2106.405756999972,2106.405762300128,2107.922192299972,2108.93988810014,e,7.0,1.2026855999138206,1,+10,472,1.6412656703834543,0.6320984939098806,-0.25749274298603164,2093984.0,-15.915107741969262,0.4697642837618581,-0.20329135233161777,2097517.0,,,,,2100.180660550047,2096.647660550047,
126,38,37,f,1,3,118.0,4,2,low,3 + 8 + 1 - 5 + 1,8,6,9,8,2110.457521799952,2112.483301700093,2113.9984478999395,2119.016622000141,2122.645698599983,2122.6457038000226,2124.1621656999923,2125.179428400006,q,6.0,3.6290765998419374,0,+0,472,13.250239333564178,0.7127514634225158,-0.2553841522575957,2107797.0,-2.5308508994297796,1.403438098274143,-0.28777830315690434,2111330.0,,,,,2113.993660550047,2110.460660550047,
127,38,37,f,1,3,119.0,5,1,high,3 + 1 + 8 - 1 + 1,12,10,13,12,2126.6963770999573,2128.72222360014,2130.2374038000125,2135.255765500013,2136.245684900088,2136.2456904000137,2137.762258300092,2138.779466400156,e,12.0,0.9899194000754504,1,+10,482,-15.342478474817227,8.88882342868875,22.330133436374744,2124036.0,6.644695704033353,-2.1447381649335346,-26.331944388686527,2127570.0,,,,,2130.2336605500473,2126.699660550047,
128,38,37,f,1,3,120.0,6,4,low,5 + 7 - 4 - 6 + 9,11,11,12,13,2140.296349399956,2142.321519700112,2143.8364391999785,2148.8549794000573,2150.2300243999343,2150.230029300088,2151.7465695999563,2152.7637917001266,e,13.0,1.375044999876991,0,+0,482,-1.075759465036617,1.1679496171558208,-0.01347674522930875,2137635.0,15.015542014587737,1.1125408242897086,-0.10638689487943531,2141169.0,,,,,2143.832660550047,2140.2986605500473,
129,38,37,f,1,3,121.0,7,3,high,4 + 1 + 8 + 9 - 5,17,19,17,18,2154.280771400081,2156.306783700129,2157.8216627000365,2162.839866500115,2164.7817677999847,2164.7817728000227,2166.298124300083,2167.315250300104,w,17.0,1.9419012998696417,1,+10,492,2.8259802211975646,1.2160073026918279,-0.4953605006638089,2151620.0,4.472154983225018,0.6480740746695894,0.012624314870757658,2155153.0,,,,,2157.816660550047,2154.283660550047,
130,38,37,f,1,3,122.0,8,3,low,6 - 1 + 7 - 8 + 9,13,11,13,12,2168.832223700126,2170.8561178999958,2172.371344299987,2177.389899400063,2180.941817000042,2180.9418222999666,2182.45893510012,2183.4758669000585,w,13.0,3.551917599979788,1,+1,493,2.2287576009322727,1.122952404122965,0.18239012349581962,2166170.0,-8.462395210750381,0.7016907900809994,0.15164097763923556,2169704.0,,,,,2172.3676605500473,2168.833660550047,
131,38,37,f,1,3,123.0,9,3,low,2 - 4 + 9 + 7 + 1,15,15,16,13,2184.992634100141,2187.016921800096,2188.5325333999936,2193.5524736000225,2195.637765099993,2195.6377700001467,2197.1543364999816,2198.172104400117,w,16.0,2.085291499970481,0,+0,493,-2.8188043111712275,0.9655341980517393,0.06927606664725827,2182331.0,-41.27940765284829,0.7489328627196992,0.16143159117673855,2185866.0,,,,,2188.529660550047,2184.9946605500472,
132,38,37,f,1,3,124.0,10,2,high,2 + 1 + 9 - 4 + 1,9,8,9,11,2199.689108300023,2201.7145529000554,2203.2298749000765,2208.248353400035,2208.84581129998,2208.8458169000223,2210.362110099988,2211.379234400112,w,9.0,0.5974578999448568,1,+10,503,2.3145576926662788,0.43541342732144805,-0.0009160813627224762,2197028.0,4.878727056398446,0.9977457948180506,0.1635013736717852,2200562.0,,,,,2203.225660550047,2199.691660550047,
133,38,37,f,1,3,125.0,11,1,high,3 + 1 + 9 + 1 + 1,15,14,17,15,2212.896411099937,2214.9232837001327,2216.4384796000086,2221.4573804000397,2222.2378237000667,2222.237828799989,2223.754368700087,2224.7715022000484,e,15.0,0.7804433000274003,1,+10,513,-14.959261641245703,0.3205698980923244,0.782520791743325,2210237.0,4.573245585785577,8.811781948596208,20.170152057912563,2213771.0,,,,,2216.4346605500473,2212.900660550047,
134,38,37,f,1,3,126.0,12,3,low,8 + 6 - 7 + 1 - 4,4,5,4,3,2226.2883810000494,2228.3131107999943,2229.82923100004,2234.847892299993,2235.357856000075,2235.357861000113,2236.8740968001075,2237.8905746999662,w,4.0,0.5099637000821531,1,+1,514,3.6819262680278015,-0.8517476861441127,-1.1384025501628745,2223626.0,59.04668797266478,1.3044186581472133,-0.11288930630393246,2227161.0,,,,,2229.824660550047,2226.2896605500473,
135,38,37,f,1,3,127.0,13,1,low,7 - 1 + 9 + 1 - 1,15,13,15,14,2239.40748100006,2241.4330563000403,2242.9477479001507,2247.96616229997,2249.781821999932,2249.781827399973,2251.298432199983,2252.315860199975,w,15.0,1.815659699961543,1,+1,515,3.6212666305960894,-0.7692355469393406,0.036329399189821476,2236746.0,-27.579162209597683,0.28389507682618964,-0.015504766104729617,2240280.0,,,,,2242.9436605500473,2239.409660550047,
136,38,37,f,1,3,128.0,14,1,low,6 + 9 + 1 + 1 - 1,16,16,15,14,2253.8328307999764,2255.857891499996,2257.374807300046,2262.3928725000005,2263.1738016000018,2263.17380710016,2264.690526999999,2265.7074091001414,q,16.0,0.7809291000012308,1,+1,516,19.807551972320272,0.6759086329025976,-0.016409066351242618,2251171.0,16.933036325319982,0.40581433057661576,0.10354926861115166,2254706.0,,,,,2257.3696605500472,2253.834660550047,
137,38,37,f,1,3,129.0,15,3,low,9 - 5 - 1 - 6 + 8,5,4,5,7,2267.2242489999626,2269.251856799936,2270.7667763000354,2275.7837898000143,2278.0059132000897,2278.0059181000106,2279.5224697000813,2280.539654500084,e,7.0,2.222123400075361,0,+0,516,10.752545548861239,1.2984679472200789,0.04879917345530416,2264565.0,2.847387440562647,1.0020548117436618,0.23492896952386944,2268098.0,,,,,2270.761660550047,2267.228660550047,
138,38,37,f,1,3,130.0,16,3,low,3 + 8 - 7 + 1 + 9,14,14,12,13,2282.056585600134,2284.081125300145,2285.5963215001398,2290.61504970002,2292.7419060000684,2292.7419126001187,2294.2583848999348,2295.2898131001275,w,12.0,2.12685630004853,0,+0,516,17.216703962119823,0.955664734871084,-0.11003323630235196,2279394.0,-29.54072746176218,0.6989013651912526,-0.03623479371298677,2282928.0,,,,,2285.591660550047,2282.057660550047,
139,38,37,f,1,3,131.0,17,2,high,8 + 1 + 7 + 1 - 4,13,14,12,13,2296.8066147000063,2298.8338611000217,2300.349188900087,2305.3693248000927,2306.3818890000694,2306.381894099992,2307.8982228001114,2308.915364400018,q,14.0,1.012564199976623,0,+0,516,13.151385018707586,0.3478467282768243,0.40237181711754255,2294147.0,3.456172785464128,0.962419212666306,-0.05439457369238898,2297682.0,,,,,2300.345660550047,2296.810660550047,
140,38,37,f,1,3,132.0,18,2,high,7 + 6 + 1 + 8 + 1,23,21,22,23,2310.432197100017,2312.455558900023,2313.970768300118,2318.988917500013,2319.5179389000405,2319.5179439000785,2321.034156500129,2322.0513335000724,e,23.0,0.5290214000269771,1,+10,526,-46.391943480229344,0.3296696595991535,0.025344472272063268,2307769.0,30.56004282321342,0.4946392664130279,-0.22478636679960706,2311302.0,,,,,2313.9656605500472,2310.432660550047,
141,38,37,f,1,3,133.0,19,2,high,5 - 1 + 1 + 8 + 9,22,21,23,22,2323.5678189001046,2325.5919111999683,2327.10707639996,2332.124388199998,2334.5499623001087,2334.549967300147,2336.066547000082,2337.083744100062,w,23.0,2.42557410011068,0,+0,526,-8.379598431861794,0.7207162452826985,-0.07944474169436022,2320905.0,-10.314677225607342,1.1227722746622408,-0.38039687565303204,2324438.0,,,,,2327.101660550047,2323.5686605500473,
142,38,37,f,1,3,134.0,20,2,high,3 + 9 + 1 - 5 + 1,9,7,9,8,2338.600309800124,2340.625145799946,2342.140174299944,2347.158205700107,2347.70993370004,2347.7099393000826,2349.2261246000417,2350.2433897000737,w,9.0,0.551727999933064,1,+10,536,-16.717106620536388,0.6306527131439288,0.02823370759985888,2335938.0,-10.796989359151558,0.8935034983443955,-0.0776751609973445,2339471.0,,,,,2342.134660550047,2338.601660550047,
143,38,37,f,1,3,135.0,21,4,low,9 + 8 - 5 - 7 + 6,11,11,13,10,2351.7602611000184,2353.787445700029,2355.3026614000555,2360.322800999973,2364.3578912999947,2364.3578963000327,2365.874773400137,2366.8920577000827,e,10.0,4.035090300021693,0,+0,536,5.522145235314422,0.8391327119220255,0.12251788205639325,2349100.0,8.25838894850494,1.0285281351867672,0.0755166325301162,2352636.0,,,,,2355.299660550047,2351.763660550047,
144,38,37,f,1,3,136.0,22,4,low,7 + 6 - 9 + 8 - 3,9,9,8,7,2368.408973100129,2370.430343700107,2371.945594500052,2376.9654820000287,2379.109950999962,2379.1099564000037,2380.626877299976,2381.6440022001043,w,8.0,2.1444689999334514,0,+0,536,-0.8889962531724442,0.9881151631909915,-0.18801850686197197,2365743.0,-7.204635567784523,1.0807491550942538,0.014744645219200603,2369278.0,,,,,2371.941660550047,2368.406660550047,
145,38,37,f,1,3,137.0,23,1,low,8 + 1 + 1 + 1 - 4,7,8,5,7,2383.160684600007,2385.184134100098,2386.6993162001017,2391.717707700096,2393.197966000065,2393.1979714999907,2394.714959200006,2395.7322681001388,e,7.0,1.4802582999691367,1,+1,537,-7.738589246039268,0.5089714539428525,-0.2261747006852044,2380497.0,6.966042117675249,0.43060623537025844,0.11156044622903694,2384030.0,,,,,2386.6936605500473,2383.160660550047,
146,38,37,f,1,3,138.0,24,3,high,4 + 5 - 3 + 7 - 1,12,13,11,12,2397.248724000063,2399.276618800126,2400.791564400075,2405.810152699938,2407.438017500099,2407.438022600021,2408.954240600113,2409.9716288000345,e,12.0,1.6278648001607507,1,+10,547,14.699879219727826,0.39545404716591737,-0.1653829507184379,2394589.0,21.919257785548673,0.8041360356904601,0.16877398847073755,2398123.0,,,,,2400.786660550047,2397.252660550047,
147,38,37,f,1,3,139.0,25,1,high,6 + 1 + 8 + 1 - 1,15,15,13,14,2411.488467999967,2413.5116967000067,2415.026715700049,2420.044859200017,2422.3339964000043,2422.334001600044,2423.8518853001297,2424.86918899999,q,15.0,2.289137199986726,1,+10,557,-11.507263532394699,-0.5162604748177286,0.25781996507403226,2408825.0,7.036282664514447,19.067958598917702,44.203675562532666,2412357.0,,,,,2415.020660550047,2411.488660550047,
148,38,37,f,1,3,140.0,26,3,low,7 + 1 + 9 + 5 - 6,16,16,15,14,2426.38661330007,2428.4106668999884,2429.9255377999507,2434.9436314001214,2435.52601339994,2435.5260181999765,2437.0423944001086,2438.058838899946,q,16.0,0.5823819998186082,1,+1,558,0.1967811787169147,-2.774809061836139,-10.72060689881315,2423724.0,-8.364527719635365,0.7191246512462008,-1.7914812143767924,2427256.0,,,,,2429.919660550047,2426.3876605500473,
149,38,37,f,1,3,141.0,27,3,low,7 - 1 + 9 - 5 + 4,14,14,13,15,2439.575599899981,2441.602336399956,2443.117523699999,2448.135945300106,2449.533974200021,2449.533979000058,2451.050638300134,2452.067708400078,w,13.0,1.3980288999155164,0,+0,558,-24.57996791785938,0.7291352227210006,0.2131677841774291,2436915.0,-32.66527035127821,1.2127396285972805,0.025619271106712915,2440448.0,,,,,2443.111660550047,2439.578660550047,
150,38,37,f,1,3,142.0,28,2,high,4 + 8 + 1 + 1 - 5,9,9,8,11,2453.584621099988,2455.6097309000324,2457.1249090000056,2462.1435344000347,2462.7100170999765,2462.710022300016,2464.2262359000742,2465.243253200082,q,9.0,0.5664826999418437,1,+10,568,6.4643311477333425,0.8831648219428816,0.11226391135631975,2450922.0,-22.45270393989606,0.9162111916619122,0.03536251693425774,2454455.0,,,,,2457.118660550047,2453.585660550047,
151,38,37,f,1,3,143.0,29,4,high,8 + 4 - 5 + 7 - 6,8,7,6,8,2466.7601312999614,2468.785739199957,2470.301019300008,2475.3213303000666,2477.6619448000565,2477.661950000096,2479.1794281001203,2480.196630800143,w,6.0,2.340614499989897,0,+0,568,4.871514575873341,0.9923651527390032,0.11945112624443821,2464098.0,7.652051917201634,0.8939177722792642,-0.22012795570520627,2467634.0,,,,,2470.297660550047,2466.761660550047,
152,38,37,f,1,3,144.0,30,1,high,8 + 1 + 5 + 1 + 1,16,16,15,17,2481.713208300061,2483.7376198000275,2485.2536235000007,2490.271771,2490.766040300019,2490.766045399941,2492.283301500138,2493.300949699944,q,16.0,0.4942693000193685,1,+10,578,27.937650283660254,-0.2546847710589315,-0.2127336767629715,2479050.0,-1.4150433034174563,0.14435309395349272,0.49843585524622114,2482584.0,,,,,2485.247660550047,2481.7136605500473,
153,38,37,f,1,3,145.0,31,3,high,3 + 1 + 6 - 8 + 9,11,11,13,12,2494.8178306000773,2496.8421022000257,2498.357317399932,2503.375390900066,2504.102012899937,2504.1020180999767,2505.618439699989,2506.635888100136,q,11.0,0.7266219998709857,1,+10,588,6.432723566106851,1.2792592896229569,-0.6913857204660325,2492154.0,-1.9507193530526372,0.5033114078221281,-0.4755096386892421,2495688.0,,,,,2498.351660550047,2494.817660550047,
154,38,37,f,1,3,146.0,32,3,high,9 - 1 + 5 - 6 + 8,15,17,15,14,2508.152370500145,2510.178717599949,2511.6938810001598,2516.7128479001112,2520.4624777999707,2520.462483300129,2521.978897599969,2522.9962989999917,w,15.0,3.749629899859429,1,+10,598,9.340876013132174,0.5593405079083458,-0.054893112401110056,2505491.0,-25.83395780683731,0.6062367533614528,0.19143522269102498,2509024.0,,,,,2511.687660550047,2508.154660550047,
155,38,37,f,1,3,147.0,33,1,low,3 + 1 + 9 + 1 - 1,13,13,14,12,2524.5131341000088,2526.538724699989,2528.0541517999955,2533.073022000026,2533.6460754999425,2533.6460941999685,2535.1620507999323,2536.17896810011,q,13.0,0.5730534999165684,1,+1,599,11.241950656779988,-0.08945986099914194,-0.5780050264974403,2521851.0,2.6623469235651847,-0.922150970777845,-0.5576394061109995,2525385.0,,,,,2528.0486605500473,2524.514660550047,
156,38,37,f,1,3,148.0,34,3,high,8 + 5 + 1 - 7 + 9,16,14,17,16,2537.6957463000435,2539.7212795000523,2541.2362530000973,2546.2567738001235,2549.51004990004,2549.5100555000827,2551.026699300157,2552.043722799979,q,14.0,3.2532760999165475,0,+0,599,12.840065723625337,0.3724426224427466,0.1020041653022754,2535033.0,14.156789392140922,1.1313615509877275,0.17182219900817186,2538568.0,,,,,2541.2316605500473,2537.696660550047,
157,38,37,f,1,3,149.0,35,4,high,8 + 7 - 4 + 5 + 9,25,26,24,25,2553.5604121000506,2555.5835140000563,2557.098754200153,2562.117250700016,2562.862022000132,2562.862027199939,2564.378737800056,2565.396186300088,w,24.0,0.7447713001165539,0,+0,599,-20.151278244485727,0.8595827494903308,-0.014312167665022635,2550895.0,1.7006188258300483,0.07570938014765005,0.38981771244296093,2554429.0,,,,,2557.092660550047,2553.558660550047,
158,38,37,f,1,3,150.0,36,4,low,6 + 9 + 7 - 3 - 5,14,15,13,14,2566.912754399935,2568.9374162000604,2570.452632799977,2575.471613200149,2576.2460869001225,2576.246091600042,2577.762954600156,2578.7804000999317,q,15.0,0.7744736999738961,0,+0,599,-26.443542259474814,0.6437356888233117,-0.2106824678382675,2564249.0,16.86805034204938,1.1762257135118714,-0.27523427671115686,2567784.0,,,,,2570.447660550047,2566.912660550047,
159,38,37,f,1,3,151.0,37,3,high,6 - 1 + 7 - 8 + 9,13,13,12,11,2580.298046699958,2582.3261526999995,2583.841944500105,2588.860092200106,2592.166204500012,2592.166209700052,2593.6827468001284,2594.6998695000075,q,13.0,3.30611229990609,1,+10,609,-3.001089580151664,0.7277697838593049,0.016284609519865878,2577638.0,-20.45763695962347,0.9800612812472833,0.0662565571843241,2581172.0,,,,,2583.835660550047,2580.301660550047,
160,38,37,f,1,4,152.0,0,4,high,2 + 5 - 3 + 9 + 8,21,21,22,19,2651.8745820000768,2653.9019452000502,2655.4172823999543,2660.4375855999533,2663.0862086999696,2663.086213700008,2664.602469400037,2665.6195070999674,q,21.0,2.648623100016266,1,+10,619,9.21110591447274,0.4706196228879507,-11.017323869618643,2649213.0,-18.231735916175666,0.8289018850441572,-3.6180236467855824,2652749.0,,,,,2655.412660550047,2651.8766605500473,
161,38,37,f,1,4,153.0,1,1,low,7 + 1 + 4 + 1 - 1,12,12,13,11,2667.136354099959,2669.160304900026,2670.675532300025,2675.6940272999927,2676.126135900151,2676.126140499953,2677.642875800142,2678.6600269000046,w,13.0,0.4321086001582443,0,+0,619,24.049468211406104,0.2183526320640552,-0.46492131653038626,2664472.0,-10.288411073220038,0.687241838164149,0.2617909703283079,2668005.0,,,,,2670.668660550047,2667.1356605500473,
162,38,37,f,1,4,154.0,2,3,high,4 + 8 - 9 + 1 + 7,11,11,13,9,2680.1768054000568,2682.203597600106,2683.718927399954,2688.737646399997,2691.022232000017,2691.022237000056,2692.5382737000477,2693.555449000094,q,11.0,2.284585600020364,1,+10,629,4.403267060407234,-0.8429698828686951,-0.31151405930062603,2677515.0,18.065467443864364,0.09938064477995345,-0.1532880787888029,2681049.0,,,,,2683.712660550047,2680.178660550047,
163,38,37,f,1,4,155.0,3,1,high,9 + 8 + 1 + 1 - 1,18,18,20,17,2695.072287000017,2697.096183100017,2698.61155780009,2703.629707300104,2704.294207799947,2704.294213399989,2705.81072570011,2706.8283657000866,q,18.0,0.6645004998426884,1,+10,639,4.369670582394169,-0.006304830252827021,-0.4781091428078117,2692408.0,9.87272222873348,0.10851301847254358,-0.16027458252450355,2695941.0,,,,,2698.604660550047,2695.071660550047,
164,38,37,f,1,4,156.0,4,4,low,5 + 6 - 4 + 7 + 9,23,23,24,25,2708.3450875999406,2710.371230199933,2711.886223400012,2716.9050040000584,2719.542191100074,2719.54219800001,2721.0584332,2722.0756435999647,e,25.0,2.6371871000155807,0,+0,639,13.349211628242065,1.4022845684021044,0.488563343789143,2705682.0,-23.241438891425673,1.3033971091438445,-2.234797359422744,2709216.0,,,,,2711.879660550047,2708.345660550047,
165,38,37,f,1,4,157.0,5,3,low,5 + 6 - 4 - 1 + 8,14,16,15,14,2723.5923862000927,2725.620260100113,2727.1355252000503,2732.1538086000364,2733.190272700041,2733.190278199967,2734.706617600052,2735.7234597001225,e,14.0,1.0364641000051051,1,+1,640,11.966401895675547,0.04024214807121673,0.3293312373954924,2720931.0,22.09794770114872,1.229403281228225,-0.07376817888373921,2724465.0,,,,,2727.1286605500472,2723.594660550047,
166,38,37,f,1,4,158.0,6,4,low,2 + 9 - 6 + 8 - 4,9,7,11,9,2737.2403677999973,2739.2677297999617,2740.7829186001327,2745.8014682000503,2746.2942043000367,2746.2942093000747,2747.810788400005,2748.827638800023,e,9.0,0.4927360999863595,1,+1,641,0.6039302077058064,1.1448535763959633,0.010260329608394958,2734579.0,4.541244809515824,0.932073407584205,-0.3280021663828907,2738113.0,,,,,2740.776660550047,2737.2426605500473,
167,38,37,f,1,4,159.0,7,4,low,9 + 4 - 6 + 8 + 7,22,24,22,21,2750.3445143001154,2752.3683780999854,2753.883708300069,2758.9022494000383,2759.9663120999467,2759.9663170001004,2761.4829671999905,2762.499590200139,w,22.0,1.0640626999083906,1,+1,642,-3.5450034906112897,1.2150287842790863,-0.084704543208026,2747679.0,1.3249227821856842,1.450413993847108,0.24567949529789423,2751213.0,,,,,2753.8766605500473,2750.342660550047,
168,38,37,f,1,4,160.0,8,1,low,3 + 1 + 8 + 1 + 1,14,14,13,16,2764.0165339999367,2766.0440535000525,2767.559288599994,2772.5773004000075,2773.574189400068,2773.5741944001056,2775.0907803999726,2776.121709899977,q,14.0,0.9968890000600368,1,+1,643,-18.673897999253835,-4.903068006137763,-3.5561822301725856,2761355.0,-18.31445100896152,0.6651911057134767,0.3144801641132027,2764888.0,,,,,2767.551660550047,2764.018660550047,
169,38,37,f,1,4,161.0,9,1,high,7 + 1 + 6 + 1 + 1,16,16,18,17,2777.638799899956,2779.666096800007,2781.181643499993,2786.199365200009,2787.5102333000395,2787.510238399962,2789.02737409994,2790.044324700022,q,16.0,1.3108681000303477,1,+10,653,-4.188934023847142,0.059531639449447615,0.03392780228994097,2774977.0,2.3709574324205853,-1.655922169125204,-0.262122570380106,2778511.0,,,,,2781.174660550047,2777.640660550047,
170,38,37,f,1,4,162.0,10,2,high,9 + 5 - 6 + 1 - 1,8,7,8,9,2791.5612882999703,2793.586081800051,2795.1012922001537,2800.120587399928,2802.630299800076,2802.6303050999995,2804.15683969995,2805.174364099977,q,7.0,2.509712400147692,0,+0,653,12.116198371685783,-1.1046025075529302,-0.23171644018258952,2788897.0,4.831413284398013,0.58727035018868,0.021681675519737986,2792431.0,,,,,2795.094660550047,2791.560660550047,
171,38,37,f,1,4,163.0,11,3,high,2 + 1 + 9 - 4 + 6,14,16,14,15,2806.6917179999878,2808.721013200004,2810.236248299945,2815.254618200008,2816.3109544001054,2816.3109601000324,2817.8345056001563,2818.851777800126,w,14.0,1.0563362000975758,1,+10,663,-5.088551927231979,0.6322802123739426,0.17239534589324101,2804032.0,0.257691373967857,0.33946436615664677,-0.06648715837387664,2807565.0,,,,,2810.228660550047,2806.6956605500473,
172,38,37,f,1,4,164.0,12,4,high,5 + 7 - 4 + 8 + 6,22,22,24,23,2820.377207200043,2822.40202290006,2823.9173475001007,2828.937408800004,2829.894279500004,2829.894284500042,2831.4102632000577,2832.427584799938,q,22.0,0.956870699999854,1,+10,673,26.764208446233198,0.06014531867387651,-7.4076483871593,2817713.0,-14.380155862764335,1.8887584025420612,-0.24288314291887225,2821248.0,,,,,2823.911660550047,2820.3766605500473,
173,38,37,f,1,4,165.0,13,4,high,4 + 7 - 8 + 9 - 3,9,8,11,9,2833.944338200148,2835.968365699984,2837.483544900082,2842.515762000112,2844.1189790000208,2844.1189850000665,2845.6355272000656,2846.6530740000308,e,9.0,1.6032169999089092,1,+10,683,-8.384138556277257,0.2006053997628756,0.1858392377357001,2831279.0,14.700293317387453,0.45776833527637395,-0.21145172963511616,2834827.0,,,,,2837.4906605500473,2833.942660550047,
174,38,37,f,1,4,166.0,14,2,high,6 + 1 + 7 - 8 - 1,5,4,5,7,2848.169873600127,2850.1959383001085,2851.7108740000986,2856.7293798001483,2859.790335000027,2859.790340299951,2861.3072075000964,2862.324575700098,w,5.0,3.060955199878663,1,+10,693,-36.3357491453572,0.8433286570345082,-0.5802147109825979,2845507.0,-12.055421593969841,0.9413877074632171,-0.16910129443292599,2849040.0,,,,,2851.703660550047,2848.170660550047,
175,38,37,f,1,4,167.0,15,4,high,7 + 8 - 4 + 6 - 5,12,12,11,13,2863.8413450000808,2865.8687670000363,2867.3839726999868,2872.40388550004,2874.094261900056,2874.094266799977,2875.610459000105,2876.627603400033,q,12.0,1.6903764000162482,1,+10,703,12.271955761093768,0.5043101735232058,0.16525027865926267,2861179.0,-16.66047831744347,-6.306879456127373,-4.665165024069907,2864714.0,,,,,2867.377660550047,2863.842660550047,
176,38,37,f,1,4,168.0,16,3,low,4 + 7 - 3 + 5 - 1,12,12,13,11,2878.144332499942,2880.168271500152,2881.683567299973,2886.703156000003,2887.150403799955,2887.1504089999944,2888.666380400071,2889.682884500129,q,12.0,0.4472477999515831,1,+1,704,-12.246927638394626,1.4320551976791553,0.15517564993647737,2875479.0,-1.7983654015607575,0.7372882907179203,0.08143708626227841,2879013.0,,,,,2881.676660550047,2878.142660550047,
177,38,37,f,1,4,169.0,17,2,low,7 + 5 + 1 - 1 - 8,4,3,2,4,2891.1997275000904,2893.226043100003,2894.7413548000623,2899.7597825000994,2900.782382000005,2900.78238710016,2902.298693200108,2903.315506499959,e,4.0,1.022599499905482,1,+1,705,-7.748379204645509,0.6488641889609315,-0.00879166690916211,2888536.0,3.7395858015765207,1.701954119938513,0.25405592940090704,2892070.0,,,,,2894.7336605500473,2891.199660550047,
178,38,37,f,1,4,170.0,18,4,low,6 + 9 - 7 + 8 - 5,11,11,12,13,2904.832132700132,2906.859507099958,2908.3744914999697,2913.3930790000595,2916.150332099991,2916.150336800143,2917.6667345000897,2918.683252800023,q,11.0,2.757253099931404,1,+1,706,-1.494668537699802,0.6240629542205887,0.20470522204675579,2902170.0,-27.4818244060834,1.2646351142552117,0.049744104489121366,2905703.0,,,,,2908.366660550047,2904.833660550047,
179,38,37,f,1,4,171.0,19,4,low,4 + 7 + 9 - 5 + 7,22,24,23,22,2920.199903500033,2922.223429800011,2923.73840250005,2928.756678600097,2931.95842489996,2931.9584300999995,2933.474777900148,2934.49153450015,e,22.0,3.2017462998628616,1,+1,707,-2.544571377530932,0.7260535640839647,-0.010037921986511655,2917534.0,3.650495283283142,1.1773367087159925,-0.05983696570063035,2921067.0,,,,,2923.730660550047,2920.197660550047,
180,38,37,f,1,4,172.0,20,1,high,5 + 9 - 1 + 1 + 1,15,13,15,17,2936.0084301999304,2938.036234300118,2939.551539000124,2944.569426300004,2945.7103196999524,2945.710324499989,2947.226660199929,2948.2439681999385,q,13.0,1.1408933999482542,0,+0,707,-7.4079950871898514,-0.1548517489717951,1.2261341216510293,2933346.0,3.7585722589860104,0.23412089077720077,-0.08766950885662217,2936880.0,,,,,2939.543660550047,2936.009660550047,
181,38,37,f,1,4,173.0,21,1,low,6 + 1 + 8 + 1 + 1,17,16,17,15,2949.7606119001284,2951.78644679999,2953.301709600026,2958.3202206999995,2959.0224369000643,2959.022442500107,2960.53917480004,2961.5560526000336,w,17.0,0.7022162000648677,1,+1,708,11.071481468812824,-0.20494277052501264,0.2614245233935939,2947097.0,-1.2759646803033302,0.1477191913853364,-0.008594426374862518,2950630.0,,,,,2953.293660550047,2949.7606605500473,
182,38,37,f,1,4,174.0,22,2,high,2 + 1 + 9 - 4 + 1,9,9,11,8,2963.073409700068,2965.098444300005,2966.6138419001363,2971.6332050000783,2972.302431500051,2972.3024369000923,2973.818708000006,2974.835489500081,q,9.0,0.669226499972865,1,+10,718,-35.74120616882403,0.3293423675154816,0.0284944240287337,2960409.0,-27.46879416600325,1.1867880580388595,-0.23863515454867334,2963943.0,,,,,2966.6066605500473,2963.072660550047,
183,38,37,f,1,4,175.0,23,3,low,2 + 9 - 3 + 4 + 1,13,13,11,14,2976.352221300127,2978.377856099978,2979.8930434000213,2984.9114161999896,2987.134464400122,2987.1344705999363,2988.651049599983,2989.667873600032,q,13.0,2.2230482001323253,1,+1,719,-6.585383331258686,0.8709123133725347,0.006310720606838238,2973688.0,24.564609465040824,-6.954249729478146,-8.19300526693875,2977221.0,,,,,2979.884660550047,2976.351660550047,
184,38,37,f,1,4,176.0,24,2,high,5 - 8 + 7 + 1 + 1,6,8,6,7,2991.185039700009,2993.210999900009,2994.7263589000795,2999.745321800001,3000.382384299999,3000.382389300037,3001.899030100089,3002.9162443999667,w,6.0,0.6370624999981374,1,+10,729,1.2720209986675446,1.101406242109058,-0.11391881618716093,2988521.0,2.349848255961973,0.4788221108803121,-0.03219107681698796,2992055.0,,,,,2994.718660550047,2991.1846605500473,
185,38,37,f,1,4,177.0,25,3,high,3 + 1 + 8 - 5 + 6,13,13,14,15,3004.43311140011,3006.4602270000614,3007.975818300154,3012.99397359998,3015.7184556000866,3015.718460800126,3017.235089099966,3018.2521627000533,e,15.0,2.7244820001069456,0,+0,729,-0.4229016217994612,0.9907849791409507,0.0008793159357611824,3001770.0,-4.603958530356015,1.1368444699532674,0.07071294607129097,3005304.0,,,,,3007.967660550047,3004.433660550047,
186,38,37,f,1,4,178.0,26,2,low,6 + 1 + 7 + 5 - 1,18,16,17,18,3019.768724200083,3021.796863200143,3023.31199200009,3028.3305745001417,3030.76640780014,3030.7664129000623,3032.282605800079,3033.299396699993,e,18.0,2.435833299998194,1,+1,730,26.507424022193533,-0.07730980334615811,-0.2575035131359149,3017107.0,-28.512333909816086,1.5508017035058042,-0.20357233789300455,3020641.0,,,,,3023.304660550047,3019.770660550047,
187,38,37,f,1,4,179.0,27,2,low,4 + 1 + 9 + 1 - 6,9,9,7,8,3034.816399100004,3036.842856900068,3038.35811130004,3043.3762368001044,3043.974417099962,3043.974421800114,3045.491077699932,3046.507885100087,q,9.0,0.5981802998576313,1,+1,731,11.153106021787003,-0.09845346778864261,-0.000824403963380016,3032152.0,9.124665428770234,0.38598954193213686,1.239278849634324,3035686.0,,,,,3038.3496605500472,3034.815660550047,
188,38,37,f,1,4,180.0,28,2,high,6 + 1 + 8 + 5 - 1,19,18,19,17,3048.024547100067,3050.0508332001045,3051.5667453000788,3056.585933200084,3057.158461000072,3057.1584658999927,3058.674965600017,3059.6918474000413,w,19.0,0.5725277999881655,1,+10,741,11.713443472456337,0.4851505833090721,0.048315134957699124,3045360.0,6.800435863983759,0.8709256320673986,-0.23521000478408594,3048896.0,,,,,3051.5596605500473,3048.023660550047,
189,38,37,f,1,4,181.0,29,4,low,4 + 7 + 8 - 3 + 9,25,25,26,24,3061.2085992000066,3063.23334110016,3064.748526700074,3069.76668250002,3072.766473500058,3072.766478399979,3074.2830493999645,3075.2999821000267,w,26.0,2.9997910000383854,0,+0,741,1.3206428258290739,1.105125710572945,-0.01684796452257209,3058543.0,5.664392581015722,0.7270479638901373,-0.1623282704207918,3062077.0,,,,,3064.7406605500473,3061.206660550047,
190,38,37,f,1,4,182.0,30,2,low,8 + 1 + 9 + 1 - 5,14,14,13,15,3076.8180845000315,3078.843711900059,3080.3588436001446,3085.3763941000216,3085.854461000068,3085.854465899989,3087.3706472001504,3088.387457600096,q,14.0,0.4780669000465423,1,+1,742,5.283152111348935,0.5566279095557416,-0.043306960052449384,3074153.0,22.020807053151067,0.9965229623808334,-0.0090042601460667,3077687.0,,,,,3080.350660550047,3076.816660550047,
191,38,37,f,1,4,183.0,31,2,low,6 + 1 + 1 + 8 - 9,7,5,9,7,3089.9042116999626,3091.9285854999907,3093.4438579001,3098.4620628000703,3098.998498700093,3098.998503400013,3100.5148996999487,3101.531715699937,e,7.0,0.5364359000232071,1,+1,743,-15.877651201662726,0.8599850427352251,-0.10446652850644145,3087238.0,37.818841610132274,0.10633262504724517,0.035576949592800444,3090772.0,,,,,3093.435660550047,3089.901660550047,
192,38,37,f,1,4,184.0,32,1,high,5 + 1 + 1 + 6 + 1,14,14,16,13,3103.048476600088,3105.0763493000995,3106.5923937000334,3111.6103213001043,3113.4626005999744,3113.462605400011,3114.9788218000904,3115.9960557001177,q,14.0,1.8522792998701332,1,+10,753,16.125702061983933,0.4439854216400856,0.11254685534525777,3100386.0,-11.561773542259957,0.1572211273960571,0.09318297569594813,3103920.0,,,,,3106.583660550047,3103.049660550047,
193,38,37,f,1,4,185.0,33,1,high,2 + 9 + 1 + 1 + 1,14,13,14,12,3117.5128459001426,3119.5385531000798,3121.053792099934,3126.0715298999567,3126.574521500152,3126.5745266999584,3128.0912743001245,3129.108573799953,w,14.0,0.5029916001949459,1,+10,763,-15.749270703369561,-4.62073360936896,-8.828497386522097,3114848.0,4.737470912487474,0.5145298929836479,-0.14432405726419084,3118381.0,,,,,3121.044660550047,3117.511660550047,
194,38,37,f,1,4,186.0,34,1,low,5 + 8 - 1 + 1 + 1,14,16,12,14,3130.625795800006,3132.651565300068,3134.1668559000827,3139.185018799966,3141.9665719000623,3141.9665773001034,3143.4840450000484,3144.501513000112,e,14.0,2.781553100096062,1,+1,764,9.508032818483308,-0.005301097612504968,-1.0021486177754353,3127961.0,24.066307109717588,-0.20402675296505546,0.10315351446102805,3131494.0,,,,,3134.1576605500472,3130.624660550047,
195,38,37,f,1,4,187.0,35,3,low,8 - 1 + 6 - 7 + 5,11,12,13,11,3146.017879599938,3148.0459052999504,3149.5609093001112,3154.579393800115,3155.990601000143,3155.9906061000656,3157.5069914001506,3158.5235057000536,e,11.0,1.4112072000280025,1,+1,765,-4.225534368860643,0.4996307211086233,-0.0007800662547985393,3143355.0,13.202992761016542,1.6071198689475823,0.03425602987532983,3146889.0,,,,,3149.552660550047,3146.018660550047,
196,38,37,f,1,4,188.0,36,3,high,4 + 7 + 1 + 9 - 5,16,18,17,16,3160.0401815001387,3162.0641505001117,3163.5790643999358,3168.597712600138,3171.3346649000887,3171.334670600016,3172.851308000041,3173.8681358001195,e,16.0,2.7369522999506444,1,+10,775,-22.395561621811915,0.4653223446060908,0.2093408711622471,3157373.0,3.718202284948291,0.34523343600188117,-0.09845819369918107,3160907.0,,,,,3163.5706605500473,3160.036660550047,
197,38,37,f,1,4,189.0,37,3,high,5 + 7 + 1 - 4 + 6,15,17,13,15,3175.3852455001324,3177.411390900146,3178.926533699967,3183.9449241999537,3187.190567899961,3187.19057340012,3188.706969300052,3189.724131199997,w,13.0,3.2456437000073493,0,+0,775,6.705130045070227,0.03832715121093777,-0.06360802779638886,3172720.0,9.770908130065063,1.1729221065520372,0.1961369968893174,3176254.0,,,,,3178.917660550047,3175.383660550047,
198,38,37,f,1,5,190.0,0,2,low,4 + 9 + 1 - 7 - 1,6,6,8,5,3221.715264900122,3223.7426728000864,3225.257941500051,3230.27828970016,3232.686729100067,3232.686734100105,3234.2033280001488,3235.2198461000808,q,6.0,2.408439399907365,1,+1,776,12.878433236835534,1.3180097335366474,6.665192460510829,3219051.0,-15.135061731441816,0.6264991645181004,-0.3376514951838514,3222587.0,,,,,3225.250660550047,3221.714660550047,
199,38,37,f,1,5,191.0,1,1,high,6 + 1 + 1 + 9 - 1,16,16,15,14,3236.7366045999806,3238.7637924000155,3240.2791242001117,3245.2969852001406,3249.022696000058,3249.0227010000963,3250.538945000153,3251.5566664000507,q,16.0,3.7257107999175783,1,+10,786,16.35090663746208,-0.030842067969267806,-0.03962912975039945,3234073.0,9.392946598085423,0.05983291983982886,0.06858197556392276,3237606.0,,,,,3240.2696605500473,3236.736660550047,
