,id,age,sex,cued,block,trial,trialinblock,efflev,rewlev,calc,corAns,option1,option2,option3,tstart,ITI1Time,probTime,respTime,selectTime,ITI2Time,fbTime,ITI3Time,key_press,chosenAns,RT,acc,feedback,total_points,cuescr,cuecor,cuezyg,cuetime,probscr,probcor,probzyg,probtime,fbscr,fbcor,fbzyg,fbtime,probtime_c,cuetime_c,fbtime_c
0,39,23,f,0,Practice,,0,1,0,4 + 1 + 9 + 1 + 1,16,15,14,16,47.5427733999677,,47.54277570010163,52.61287200008519,53.94604200008325,53.946047799894586,55.4631103000138,56.48400719999336,e,16,1.3331699999980628,1,Correct,0,,,,,12.133386347334056,-0.4177040239745846,-0.08929314316279546,45522.0,8.401025327310544,-0.22178291945904505,0.300598671554829,53393.0,47.60250338751291,,55.47350338751291
1,39,23,f,0,Practice,,1,1,0,3 + 1 + 1 + 8 - 1,12,11,10,12,58.0011481998954,,58.00115099991672,63.02213890012354,64.56221690005623,64.562223700108,66.07982570002787,67.0980837000534,e,12,1.5400779999326917,1,Correct,0,,,,,11.040183324868428,-0.1940504700100627,0.15193135176357742,55931.0,-2.383577578808211,0.36394947268215594,-0.05124175622154992,64007.0,58.01150338751291,,66.08750338751291
2,39,23,f,0,Practice,,2,2,0,8 + 1 + 6 + 1 - 4,12,12,10,11,68.6161579999607,,68.61616460001096,73.6361797999125,74.70625729998574,74.70626379991882,76.22337189991958,77.24162329989485,q,12,1.0700775000732392,1,Correct,0,,,,,8.638072620043143,-0.14484092418706274,0.19439391381985938,66545.0,-26.00213900553192,0.5055641855802295,-0.03892898261970368,74151.0,68.62550338751291,,76.2315033875129
3,39,23,f,0,Practice,,3,2,0,9 + 4 - 6 + 1 - 1,7,7,5,6,78.75946200010367,,78.75946510001086,83.7793322999496,84.76217260002159,84.76217889995314,86.27887189993635,87.29586419998668,q,7,0.9828403000719844,1,Correct,0,,,,,-4.057938499662644,-0.09045504907593838,0.15398811349140296,76688.0,6.525858770731619,-0.11004186265901561,-0.1014248954828465,84205.0,78.76850338751291,,86.2855033875129
4,39,23,f,0,Practice,,4,3,0,9 + 3 - 5 + 6 + 7,20,21,20,22,88.81249099993147,,88.81249399995431,93.8314759999048,96.12231480004266,96.12232100008988,97.6390535000246,98.6559685000684,w,20,2.2908388001378626,1,Correct,0,,,,,0.583928139841575,-0.011453817368504371,0.08117545411654747,86740.0,-30.311289451024237,0.3113936031829416,0.18039131972272737,95565.0,88.8205033875129,,97.6455033875129
5,39,23,f,0,Practice,,5,3,0,2 + 1 + 9 - 7 + 6,11,10,11,9,100.17263219994491,,100.17263510008344,105.19170140009372,106.21028560004196,106.2102920000907,107.727093399968,108.74528999999166,w,11,1.0185841999482363,1,Correct,0,,,,,5.246342604576816,-0.5276952375006001,-0.20940987723911508,98100.0,-16.870423933009942,0.09432338302801391,-0.02614626822348054,105654.0,100.1805033875129,,107.7345033875129
6,39,23,f,0,Practice,,6,4,0,4 + 8 + 5 - 3 + 7,21,21,22,23,110.26247230009176,,110.2624753001146,115.28457379993051,117.92227170011029,117.9222780999262,119.43944619991817,120.45734139997512,q,21,2.6376979001797736,1,Correct,0,,,,,-10.34901152200528,0.15813300713994938,-4.912684478150746,108192.0,-10.838513342946234,0.29709843471998765,-0.4575403985204767,117366.0,110.2725033875129,,119.4465033875129
7,39,23,f,0,Practice,,7,4,0,5 + 8 - 4 + 6 + 9,24,23,22,24,121.9743912999984,,121.97439410001972,126.99409870011732,128.36221390007995,128.36222060001455,129.87917080009356,130.8968915999867,e,24,1.3681151999626309,1,Correct,0,,,,,-12.505797116802633,-0.03692969770242849,0.10214399235239924,119903.0,-14.659087256028394,0.009158725517423694,0.20717786964843987,127806.0,121.98350338751291,,129.8865033875129
8,39,23,f,1,0,0.0,0,2,low,6 + 1 + 7 + 5 - 1,18,17,16,18,232.7039795999881,234.77404260006733,236.2893026999664,241.3082081999164,242.52808129996995,242.5280867998954,244.04469850007445,245.0626362999901,e,18,1.219873100053519,1,+1,1,2.5815634278445607,-0.7957232454712293,0.03296267254517948,230682.0,-2.6423874725731737,-0.4574435296549084,0.09153449997862317,234216.0,-17.55393976717955,-0.04825099939456212,0.186577018188115,241970.0,236.29650338751293,232.7625033875129,244.05050338751292
9,39,23,f,1,0,1.0,1,4,high,5 + 6 - 4 + 7 + 9,23,24,23,25,246.57994200009853,248.6665096001234,250.1817642999813,255.2000380998943,257.9999830001034,257.9999883999117,259.5163058000617,260.533578600036,q,24,2.799944900209084,0,+0,1,-3.9124306055149116,0.028225340064706117,-0.01025049528518207,244575.0,7.870528235695892,-0.5480818739859097,-0.07629051271933363,248108.0,7.973532861011497,-0.19848242540516825,-2.7776690670250623,271145.0,250.18850338751292,246.6555033875129,273.2255033875129
10,39,23,f,1,0,2.0,2,4,low,3 + 9 - 5 + 8 - 7,8,7,8,9,262.0506923000794,264.0773100000806,265.5925777000375,270.6113933001179,271.70400170003995,271.7040071999654,273.22047480009496,274.2374362000264,w,8,1.0926083999220282,1,+1,2,-5.4476925114628845,0.254089187320532,-0.10386712274101306,259985.0,-40.859538003811394,-0.4393141756228678,-0.0028549282144560983,263519.0,-8.816378796005319,-0.12564555521911736,-0.050403495774335116,287298.0,265.5995033875129,262.06550338751293,289.3785033875129
11,39,23,f,1,0,3.0,3,4,low,5 + 7 - 4 + 8 + 6,22,24,23,22,275.75423570000567,277.77809210005216,279.2932919000741,284.3119099000469,287.8560669000726,287.8560723999981,289.37270190007985,290.39018280012533,e,22,3.5441570000257343,1,+1,3,32.411395383727566,0.225166018681207,0.12948617126468398,273686.0,-17.983390986644856,-0.43100083030186465,-0.021235980392020348,277220.0,-12.063780243593985,-0.011752940907816978,-4.61002151753503,328609.0,279.30050338751295,275.7665033875129,330.6895033875129
12,39,23,f,1,0,4.0,4,3,high,4 + 5 - 3 + 7 - 1,12,12,11,13,291.90786539996043,293.9831038999837,295.4984055000823,300.5188337001018,301.7360519999638,301.73605740000494,303.2526815000456,304.2699384998996,q,12,1.2172182998619974,1,+10,13,0.6001049328437631,0.32797820496793495,-1.0298107041690683,289891.0,15.357181167569923,-0.11269492809458681,-0.1263920536393084,293427.0,17.140240410316025,0.32585232800507136,-3.4394062508039007,301178.0,295.50750338751294,291.97150338751294,303.2585033875129
13,39,23,f,1,0,5.0,5,2,low,4 + 8 + 1 + 1 - 5,9,11,9,8,305.78672150010243,307.81414219993167,309.3293949000072,314.3474417999387,315.5520846999716,315.5520901000127,317.0687812999822,318.08544890000485,w,9,1.2046429000329226,1,+1,14,10.590096557321145,-0.049403157798717956,0.0955022247949715,303722.0,-12.400849088341264,0.023824076601167476,-0.14684476653828993,307255.0,0.9082491661641416,0.16161825728518098,0.266811972847087,314993.0,309.3355033875129,305.8025033875129,317.0735033875129
14,39,23,f,1,0,6.0,6,4,high,5 + 7 - 4 - 6 + 9,11,13,12,11,319.6022439999506,321.6267359999474,323.141778399935,328.16202099993825,329.1681399999652,329.16814609989524,330.6844506999478,331.7021850999445,e,11,1.0061190000269562,1,+10,24,-8.08137560887377,0.5425298304088129,-0.12255369862866305,317535.0,4.094815457852388,-0.6374987767923761,-1.28068455637146,321070.0,11.660067216693157,-0.30195894531016787,-2.487093346756957,369777.0,323.1505033875129,319.61550338751294,371.8575033875129
15,39,23,f,1,0,7.0,7,2,high,4 + 9 + 1 - 7 - 1,6,8,6,5,333.21916690003127,335.2553882000502,336.7705633000005,341.7889286999125,342.96801170008257,342.96801720000803,344.4848076000344,345.5023165999446,w,6,1.179083000170067,1,+10,34,5.685490537548606,-0.3036240090283231,-0.2859426918205248,331163.0,35.00803154964895,0.25790460132574244,0.028197991467073358,334697.0,25.59146391609074,-0.393408149913518,1.0545217440288468,342410.0,336.7775033875129,333.24350338751293,344.49050338751294
16,39,23,f,1,0,8.0,8,1,low,3 + 1 + 8 + 1 + 1,14,13,16,14,347.0196412000805,349.0446993999649,350.5600129000377,355.57954480010085,356.7681360999122,356.76814149995334,358.2855501999147,359.3029865999706,e,14,1.188591299811378,1,+1,35,21.642477599641325,0.21260833444014038,-0.4093603779257038,344953.0,1.3778938063724535,-0.3846169411371263,-0.09915302522246172,348487.0,12.117262366395089,-0.1358234199125965,-0.3942303173265258,356210.0,350.56750338751294,347.0335033875129,358.2905033875129
17,39,23,f,1,0,9.0,9,4,high,7 + 6 - 9 + 8 - 3,9,8,9,7,360.8194844000973,362.8465229000431,364.36174460011534,369.3803226999007,370.336072999984,370.3360782000236,371.8525724001229,372.8698285999708,w,9,0.9557503000833094,1,+10,45,-43.278068372049184,0.44621530809781085,0.22765897436371185,358754.0,0.8915242482025312,0.5531152014865928,-0.2639751902477836,362288.0,-4.90465031489357,0.009045189003284548,-0.21595645935170316,384345.0,364.36850338751293,360.83450338751294,386.42550338751295
18,39,23,f,1,0,10.0,10,4,low,4 + 7 + 8 - 3 + 9,25,25,26,24,374.386709399987,376.4124571001157,377.9278486999683,382.9483499999624,384.9040858000517,384.9040914999787,386.4211897999048,387.4386104000732,q,25,1.9557358000893144,1,+1,46,16.71401059489503,0.11582736496831991,-0.11402775216390326,372320.0,-21.131911151156032,0.5497877582304418,1.0946595626127977,375856.0,-6.512083370504213,0.24447581548469222,-0.060326975377551495,506857.0,377.9365033875129,374.4005033875129,508.93750338751295
19,39,23,f,1,0,11.0,11,3,low,2 - 4 + 9 + 7 + 1,15,16,15,13,388.9552301000804,390.98355909995735,392.4986020999495,397.51687059993856,398.4640770999249,398.464082499966,399.98058059997857,400.9976548000705,w,15,0.9472064999863504,1,+1,47,-1.9995422901466036,0.3427159381965881,0.16875321170866608,386891.0,13.526792934767942,0.2374071004474092,-0.009496733699152493,390424.0,-1.8220824949393704,0.3850900102058761,2.2189218266462865,397905.0,392.5045033875129,388.97150338751294,399.9855033875129
20,39,23,f,1,0,12.0,12,1,high,5 + 1 + 1 + 6 + 1,14,16,13,14,402.51565359998494,404.591556099942,406.10676770005375,411.12434009998105,412.3200974999927,412.3201029000338,413.83643030002713,414.8535786001012,e,14,1.1957574000116438,1,+10,57,-27.43647061642081,0.10830588996132695,-0.02465548260919359,400499.0,8.516336565578598,-0.09883271714923625,0.042816178762595136,404032.0,7.922572886501951,0.18264416389097082,0.07620490848637562,411761.0,406.1125033875129,402.57950338751294,413.84150338751294
21,39,23,f,1,0,13.0,13,3,low,2 + 9 + 1 - 5 + 7,14,12,15,14,416.3707199001219,418.3955292999744,419.9107174000237,424.929774499964,425.9680624001194,425.9680673999246,427.4846373000182,428.5013546000701,e,14,1.0382879001554102,1,+1,58,16.596347115128886,0.36447999958376576,0.06779044125380729,414303.0,-30.70066230082272,-0.04261203157433879,0.0665315331595353,417837.0,-5.5201297055178635,-0.02643084726670475,-0.22534093882366912,425409.0,419.9175033875129,416.3835033875129,427.4895033875129
22,39,23,f,1,0,14.0,14,3,high,5 + 1 + 7 - 8 + 6,11,13,9,11,430.0181064000353,432.0445286000613,433.5597234000452,438.57822289993055,439.58415040001273,439.5841560000554,441.1010561999865,442.1183670000173,e,11,1.00592750008218,1,+10,68,14.215729755003336,0.18234316108885995,-3.0176813704177863,427952.0,-22.89086998953613,-0.30697693183870056,-0.2593438878616059,431485.0,-2.3379861154104704,0.5234111288729899,-0.04134154813417412,439025.0,433.56550338751293,430.0325033875129,441.1055033875129
23,39,23,f,1,0,15.0,15,1,low,4 + 8 + 1 - 1 - 1,11,9,11,13,443.6355328001082,445.6629139001016,447.178752399981,452.1963959999848,453.0882160000037,453.0882216000464,454.60482409992255,455.62146360008046,w,11,0.8918200000189245,1,+1,69,17.054767287625708,0.1778124811131354,0.04019935425879839,441570.0,3.594352771629489,-0.17300374801446816,-0.17089265440214185,445104.0,-11.330428204871387,-0.1721424832048899,0.08238806570444357,452529.0,447.1845033875129,443.6505033875129,454.6095033875129
24,39,23,f,1,0,16.0,16,3,low,6 - 1 + 7 - 8 + 9,13,12,13,11,457.1383424999658,459.1652601999231,460.6806010999717,465.7007500000764,466.7761552999728,466.77616070001386,468.29312160005793,469.310286300024,w,13,1.0754052998963743,1,+1,70,-9.391088812759005,0.18715689618197384,0.006394252842023107,455072.0,-22.206819956107587,0.05728300498859218,0.1501723035681155,458608.0,-16.501483309640353,-0.307512237390168,-4.861710151247846,466217.0,460.6885033875129,457.1525033875129,468.2975033875129
25,39,23,f,1,0,17.0,17,2,high,6 + 1 + 8 + 7 - 1,21,21,23,19,470.82674920000136,472.8523798000533,474.3677240000106,479.3868297999725,480.3522161999717,480.3522216998972,481.8687456001062,482.8859625000041,q,21,0.9653863999992608,1,+10,80,-20.529753076448543,0.17792245018513375,0.2755317700307778,468759.0,3.599817471298241,-0.8599339458159503,-0.6237919125506002,472293.0,-9.254971239297149,-0.025006875769157055,0.019699480153764437,479793.0,474.3735033875129,470.83950338751293,481.8735033875129
26,39,23,f,1,0,18.0,18,2,high,5 + 7 - 8 + 1 + 1,6,7,6,8,484.40381029993296,486.42776530003175,487.9429846999701,492.9614935999271,493.8001508000307,493.8001560999546,495.3166227999609,496.3339821998961,w,6,0.8386572001036257,1,+10,90,-4.894979339413172,0.34724351510439977,0.009320865651540222,482334.0,-10.736741145583297,0.3466488645620598,-0.11991632636004379,485868.0,-10.378154119463531,0.3645402915949889,0.16568761576772606,493241.0,487.9485033875129,484.4145033875129,495.3215033875129
27,39,23,f,1,0,19.0,19,4,high,9 + 7 - 5 + 8 + 6,25,27,25,24,497.8507385998964,499.8782589999028,501.3934553998988,506.412066699937,507.4161610000301,507.41616629995406,508.9326855000109,509.9499496000353,w,25,1.0040943000931293,1,+10,100,-8.933331959057043,-0.3816025380874466,1.1583751654159622,495785.0,8.858948966381027,-0.4904825691211636,-0.07295926597747382,499319.0,-8.277580129845894,0.20340258087426744,-0.17414201990783917,590040.0,501.39950338751294,497.86550338751294,592.1205033875128
28,39,23,f,1,0,20.0,20,1,high,2 + 1 + 9 + 1 + 1,14,12,14,13,511.46678299992345,513.4907943001017,515.0055891999509,520.0241930000484,520.9281808000524,520.9281876001041,522.4457374000922,523.4632649000268,w,14,0.9039878000039608,1,+10,110,10.100858302262068,0.194533479026755,0.009654887087974906,509397.0,-10.960183897229888,0.1775514434913843,-0.07486966864432931,512931.0,16.712582297034274,0.35635615469376836,2.8290262301456464,520370.0,515.0115033875129,511.4775033875129,522.4505033875129
29,39,23,f,1,0,21.0,21,2,high,5 + 9 - 8 + 1 + 1,8,7,9,8,524.9796434999444,527.007025900064,528.5218903000932,533.5399263999425,534.6482049000915,534.6482100998983,536.1646899001207,537.1818027999252,e,8,1.1082785001490263,1,+10,120,7.087590073151595,-0.3857657287472711,-0.23098036038681347,522914.0,6.970103646584771,0.1203513502442326,0.10765784324350336,526447.0,5.956087100332258,0.5695285856747891,-0.16691192446043868,534089.0,528.5275033875129,524.9945033875129,536.1695033875129
30,39,23,f,1,0,22.0,22,3,low,4 + 7 - 3 + 5 - 1,12,13,11,12,538.6996985001024,540.7259752999526,542.2406494999304,547.2604340999387,548.4642064999789,548.4642119999044,549.9809473000932,550.9983665000182,e,12,1.2037724000401795,1,+1,121,7.185110756731527,0.17497051222987103,0.021511722986081283,536632.0,2.6701239409933484,-0.23345058827983767,-0.05591567458878499,540167.0,-16.01948504812305,0.4438419057578469,0.020236704733276545,547904.0,542.2475033875129,538.7125033875128,549.9845033875129
31,39,23,f,1,0,23.0,23,3,high,9 + 3 - 4 + 6 + 7,21,23,21,22,552.5147017000709,554.5382393999025,556.0534363000188,561.0723488000222,561.968445800012,561.9684512999374,563.4850671999156,564.5024586000945,w,21,0.8960969999898225,1,+10,131,7.005547850216524,0.13187356929196703,-0.06041624137838042,550445.0,11.543948587180683,0.04534685974053421,-0.020421384213484828,553979.0,-4.489138303815937,0.011337272406345189,0.02715315691634923,561409.0,556.0595033875129,552.5255033875129,563.4895033875129
32,39,23,f,1,0,24.0,24,1,high,6 + 9 + 1 + 1 - 1,16,14,16,15,566.0195524999872,568.0442514999304,569.5589930999558,574.5773793000262,575.6483237000648,575.6483293001074,577.1657521000598,578.1829564999789,w,16,1.0709444000385702,1,+10,141,11.937984471870921,-0.08447618480412222,1.221807339270535,563951.0,-25.039269661105365,-0.09674882411696917,-0.1714825279994452,567484.0,-37.38415970754991,-0.3450036999296464,-1.2039031150072703,575089.0,569.5645033875129,566.0315033875129,577.1695033875129
33,39,23,f,1,0,25.0,25,4,low,3 + 9 - 4 + 7 + 6,21,21,19,20,579.6993778999895,581.7265588999726,583.2425416000187,588.2613810000475,590.6003296999261,590.6003354999702,592.1168714999221,593.1338573000394,q,21,2.3389486998785287,1,+1,142,-3.4814397783681645,0.35485208632708254,0.07579417171492064,577633.0,20.36005002944897,-0.057077537977492376,-0.026001124471519255,581167.0,1.2964314525410352,-0.12467788420005688,-1.0951213630704468,807177.0,583.2475033875129,579.7135033875129,809.2575033875129
34,39,23,f,1,0,26.0,26,2,low,3 + 8 - 5 + 1 + 1,8,6,8,9,594.6504965000786,596.676705500111,598.1920302000362,603.2112793999258,604.4323452999815,604.4323505000211,605.9487618999556,606.9656275000889,w,8,1.2210659000556916,1,+1,143,12.165203767397285,-0.18470800068855686,0.3822376690772762,592583.0,9.771246216988697,0.1439994010889123,0.18522981524532756,596118.0,2.516235085671024,0.45493272288117304,0.004943218632144308,603872.0,598.1985033875129,594.6635033875128,605.9525033875128
35,39,23,f,1,0,27.0,27,3,high,7 - 1 + 8 - 6 + 4,12,13,12,11,608.4830197999254,610.5099617999513,612.0252863999922,617.0455565999728,618.0002945999149,618.000299999956,619.5168550000526,620.5339635000564,w,12,0.9547379999421536,1,+10,153,7.3941289749854695,0.194990443075457,0.23459974523479143,606415.0,15.052687811122468,-0.6202642259567868,0.1553463605126375,609952.0,-11.33141550196875,0.02704761683421486,0.5811474703089101,617440.0,612.0325033875129,608.4955033875128,619.5205033875129
36,39,23,f,1,0,28.0,28,2,low,9 + 4 - 6 + 1 - 1,7,9,8,7,622.0504044000991,624.0758740999736,625.5911516000051,630.6105041000992,631.6083639001008,631.6083692000248,633.1246837000363,634.1417366999667,e,7,0.9978598000016063,1,+1,154,3.2331462706894847,-0.49952978703057216,-0.22052016520729634,619982.0,19.860088592356707,-0.10688848287558717,-0.0462136957843553,623516.0,4.810526016565346,-0.34807823167309815,-0.2520626642831969,631048.0,625.5965033875128,622.0625033875128,633.1285033875129
37,39,23,f,1,0,29.0,29,1,high,7 - 1 + 1 + 9 - 1,15,14,13,15,635.6584757000674,637.684388200054,639.1997758999933,644.2198016999755,645.1682690999005,645.1682740000542,646.6848291999195,647.7021041000262,e,15,0.9484673999249936,1,+10,164,3.645388658243397,-0.07469469636817294,-0.22799413615942887,633590.0,0.21766033466583368,0.23533055056321528,0.12350756214768022,637126.0,-32.140863059576645,-0.4790228276651636,-4.1396351488627445,644608.0,639.2065033875128,635.6705033875129,646.6885033875128
38,39,23,f,1,0,30.0,30,4,low,8 + 5 - 4 + 7 + 9,25,26,24,25,649.2187749999575,651.2457050001249,652.7610595999286,657.7795708000194,658.8803262999281,658.8803318999708,660.3971092000138,661.4144975000527,q,26,1.1007554999087006,0,+0,164,3.2424686297549687,0.20002052445379848,-0.3720846893321057,647152.0,7.566951147101173,-0.550279910731382,0.14974987115389826,650685.0,-0.9640236334472974,0.17967809867750084,-0.0778825871729909,849400.0,652.7655033875128,649.2325033875129,851.4805033875128
39,39,23,f,1,0,31.0,31,2,low,4 + 8 + 1 + 1 - 6,8,9,7,8,662.9312158001121,664.9581375000998,666.4734491999261,671.4927139000501,672.6243173999246,672.6243227000814,674.1409013001248,675.1578170000575,e,8,1.1316034998744726,1,+1,165,13.265154273283645,-0.3404137636312856,0.016148545049270213,660864.0,18.034285217587822,-0.279845798928021,-0.002042361037068563,664398.0,-5.289388661129001,0.1322786344033866,0.21752643294711893,672064.0,666.4785033875129,662.9445033875129,674.1445033875128
40,39,23,f,1,0,32.0,32,1,low,8 + 1 + 5 + 1 + 1,16,15,16,17,676.674223799957,678.7012293001171,680.216226400109,685.2345038000494,686.3923442000523,686.392349800095,687.9094181999099,688.9262737000827,w,16,1.1578404000028968,1,+1,166,-0.7198715227417587,0.27183160400613016,0.06834000100698367,674607.0,8.566808972850467,0.10056153088971875,0.04001028556684938,678140.0,-28.39249462753356,0.16190602742937354,0.11892286801148466,685832.0,680.2205033875128,676.6875033875128,687.9125033875129
41,39,23,f,1,0,33.0,33,3,high,3 + 8 + 1 + 5 - 9,8,7,8,9,690.4428278999403,692.4683954000939,693.9836079999804,699.001697300002,700.568412499968,700.5684181000106,702.0849423001055,703.102087300038,e,9,1.5667151999659836,0,+0,166,2.2861691485284137,0.07040411070002328,0.020734744986013798,688374.0,39.532812913222216,0.004438874508375434,2.0876871185184114,691907.0,8.352414683818088,-0.2979100332312479,0.053045593558914916,727247.0,693.9875033875129,690.4545033875129,729.3275033875128
42,39,23,f,1,0,34.0,34,1,high,2 + 1 + 9 + 1 - 1,12,11,12,13,704.6191247999668,706.6426603000145,708.1576064999681,713.1756442000624,714.2644193999004,714.2644251000602,715.7810446000658,716.7984213000163,w,12,1.0887751998379829,1,+10,176,-9.597138655486814,0.33943812466398793,0.22676940601331763,702548.0,9.365225420870331,0.14179078141690837,0.010548204993912513,706081.0,1.76369367277076,0.12485679321911469,0.05657797378198892,713704.0,708.1615033875129,704.6285033875129,715.7845033875128
43,39,23,f,1,0,35.0,35,3,low,7 - 6 + 8 + 1 + 7,17,17,15,16,718.3152344000991,720.341519099893,721.8564993999898,726.8749559998978,727.8084350998979,727.8084412000608,729.3249701999594,730.3420693001244,q,17,0.9334791000001132,1,+1,177,-51.39377584769099,0.3160749323944647,0.08933939241835409,716247.0,27.599314518648693,0.00575321090011105,-0.03081660178785728,719780.0,15.944168511436915,-0.0774147902488993,-0.10116948989187646,755536.0,721.8605033875128,718.3275033875128,757.6165033875128
44,39,23,f,1,0,36.0,36,1,high,5 + 9 - 1 + 1 + 1,15,13,17,15,731.8588185999542,733.885330799967,735.4008695001248,740.4187103000004,741.8404771999922,741.8404828000348,743.357079199981,744.3744161000941,e,15,1.4217668999917803,1,+10,187,-0.9911564257774383,0.5841608296138303,-2.133427887417194,729791.0,9.075667937866665,0.2963100570009125,0.011642695228383015,733324.0,-17.018181074062166,-0.14511554824112194,0.09978565878765044,741280.0,735.4045033875128,731.8715033875129,743.3605033875128
45,39,23,f,1,0,37.0,37,3,high,8 + 4 + 1 - 7 + 9,15,15,16,13,745.8915677999612,747.9162479999941,749.4315528001171,754.4495876000728,756.0964593000244,756.0964647999499,757.6131196001079,758.6304796000477,q,15,1.646871699951589,1,+10,197,-44.95301779839512,-0.05974351439396086,0.12337645327776636,743821.0,5.282193313788709,0.22025200374717713,0.03274281547630853,747355.0,-12.383586221369917,0.3429123456270289,-0.685130195763044,907710.0,749.4355033875129,745.9015033875129,909.7905033875129
46,39,23,f,1,1,38.0,0,2,low,3 + 1 + 8 - 5 - 1,6,7,6,5,784.7494093000423,786.7778723000083,788.2928391001187,793.3121950000059,794.1444641998969,794.1444695000537,795.6615949000698,796.6785911000334,w,6,0.8322691998910159,1,+1,198,-7.392177037409892,-0.335835175125506,0.06935874877473225,782683.0,10.458359803353524,-0.11251213273137006,-0.01740632335101777,786217.0,31.095863565266704,-0.030593353414296587,0.7535065484508285,793584.0,788.2975033875128,784.7635033875129,795.6645033875128
47,39,23,f,1,1,39.0,1,4,high,7 + 8 - 4 + 6 + 5,22,22,23,21,798.1955891000107,800.2222490999848,801.7374623001087,806.7560141000431,807.7365051000379,807.736510500079,809.2538680001162,810.2714472000953,q,22,0.9804909999947996,1,+10,208,1.9692517280414954,0.1901927842544282,0.1313387319249104,796127.0,-21.23759158399156,-0.19164698097425426,0.054891962951763906,799661.0,-15.298455407274794,0.30562711828492306,-0.3690032813687547,1060854.0,801.7415033875128,798.2075033875128,1062.934503387513
48,39,23,f,1,1,40.0,2,2,low,6 + 1 + 1 + 8 - 9,7,9,7,5,811.7882401000243,813.8102627000771,815.3254374000244,820.3439102000557,821.3365581999533,821.3365635001101,822.8530806000344,823.869768399978,w,7,0.9926479998975992,1,+1,209,33.04258587643661,-0.44333573497910006,-0.0008673633489730825,809715.0,5.641100333540679,-0.10240910437062345,0.02347452047895704,813249.0,22.53410104467106,-0.29035545408352315,-1.4987880197095054,820775.0,815.3295033875129,811.7955033875129,822.8555033875128
49,39,23,f,1,1,41.0,3,1,low,8 + 1 + 1 + 1 - 4,7,8,7,5,825.387100999942,827.4095268000383,828.9245160000864,833.9428157999646,834.7764753999654,834.7764808000065,836.292987999972,837.3099215999246,w,7,0.8336596000008285,1,+1,210,14.556356047174368,-0.18509752242119681,-0.04811626581804007,823314.0,-5.828899512200891,0.15229860537289097,-0.03313403334073617,826847.0,56.439278965814324,-0.16004781367243748,0.6541134381347389,834215.0,828.9275033875128,825.3945033875128,836.2955033875129
50,39,23,f,1,1,42.0,4,4,low,4 + 7 + 8 - 3 + 9,25,26,25,24,838.826654799981,840.8518829001114,842.3671206000727,847.3856244001072,849.9604801998939,849.960485599935,851.4770086999051,852.494888199959,w,25,2.5748557997867465,1,+1,211,-2.539398907148442,0.1985159887728165,0.03622134694237955,836757.0,9.139992362548085,-0.010522039844495179,-0.1045253173777545,840290.0,-2.906918890342812,-0.2846857341240443,-0.5315264382401392,1143989.0,842.3705033875128,838.8375033875128,1146.069503387513
51,39,23,f,1,1,43.0,5,1,high,5 + 6 + 1 + 1 + 1,14,15,16,14,854.0118891999591,856.0390510999132,857.5542071999516,862.571735400008,863.872481700033,863.8724869000725,865.3899087000173,866.407248799922,e,14,1.3007463000249118,1,+10,221,-28.759113257022662,-0.1962336203193762,0.7504998524401203,851944.0,8.876283126618826,0.10797216778284202,0.06552774791245208,855476.0,23.17811548147561,-0.7578933406698125,0.07201560218903102,863312.0,857.5565033875129,854.0245033875128,865.3925033875129
52,39,23,f,1,1,44.0,6,3,high,6 + 7 + 8 + 1 - 9,13,14,13,15,867.9241293000523,869.9479058000725,871.4631137000397,876.4816769000608,880.7370311999694,880.737036400009,882.2541076999623,883.2713180000428,e,15,4.255354299908504,0,+0,221,-27.78813231445738,0.11760794209196224,-0.19556040741817382,865852.0,6.1539467325623125,0.44985602376954237,0.44509459272635743,869386.0,15.562727019481532,0.8989482470462709,-2.6912446040189293,921246.0,871.4665033875128,867.9325033875128,923.3265033875128
53,39,23,f,1,1,45.0,7,2,high,3 - 1 + 9 - 5 + 1,7,7,5,6,884.787932000123,886.8137143000495,888.3289548000321,893.348154499894,894.6324972999282,894.6325026999693,896.1490382000338,897.1663413001224,q,7,1.28434280003421,1,+10,231,-2.6568676320470903,-0.05912664625600561,1.299855859432561,882718.0,13.020582796788847,0.06529064470721391,0.1247716441758917,886252.0,22.744063925837217,-0.36946747921900336,-0.011863227210530347,894071.0,888.3325033875128,884.7985033875128,896.1515033875129
54,39,23,f,1,1,46.0,8,3,low,7 + 5 + 9 + 1 - 6,16,14,15,16,898.6838988000527,900.7082992999349,902.2235264000484,907.243803099962,908.2725770999676,908.2725825000088,909.7890306001063,910.8064876999706,e,16,1.0287740000057966,1,+1,232,19.134537741105568,0.17613282418575515,-0.07372876521607319,896613.0,-30.62398656289495,-0.03144588270505233,0.04996665445898385,900148.0,-5.078779416063483,0.3501290827226695,-2.4118238340393163,1006566.0,902.2285033875129,898.6935033875129,1008.6465033875129
55,39,23,f,1,1,47.0,9,3,low,5 + 7 + 1 - 4 + 6,15,13,15,17,912.3227347000502,914.3449566001073,915.86011280003,920.8781113000588,921.808729500044,921.8087349999696,923.3249904001132,924.3419649999124,w,15,0.9306181999854743,1,+1,233,-6.145875444194651,0.17921560335834208,-0.1374486877351926,910249.0,-34.44142337187685,0.44428462190908036,-0.0889395028681943,913783.0,3.095460441194838,0.220654456981205,0.21285419780909098,1020254.0,915.8635033875129,912.3295033875129,1022.3345033875129
56,39,23,f,1,1,48.0,10,1,low,8 - 1 + 1 + 6 + 1,15,14,16,15,925.8586961999536,927.8824555000756,929.3982055999804,934.4175962998996,935.7286535000894,935.7286590000148,937.2451162000652,938.2624558000824,e,15,1.31105720018968,1,+1,234,9.258444882131908,-0.36848506771130607,-0.04307751312581143,923787.0,2.7288283087573664,0.12841940792271522,0.07993950678123452,927322.0,4.124511544523241,-0.08832572764775826,0.04134001574816892,935166.0,929.4025033875129,925.8675033875129,937.2465033875129
57,39,23,f,1,1,49.0,11,2,high,7 + 5 + 1 + 9 + 1,23,21,22,23,939.779234299902,941.8060475001112,943.3209428000264,948.3400457000826,949.368534399895,949.3685397000518,950.884990300052,951.9030061999802,e,23,1.028488699812442,1,+10,244,18.533044928806298,-0.19651373075071854,-1.7151118605502673,937710.0,-5.7016221106584,-0.016839031125309045,-0.05660265528125352,941244.0,4.885183680438207,-0.16079319426380856,0.6977898199921608,948807.0,943.3245033875129,939.7905033875129,950.8875033875129
58,39,23,f,1,1,50.0,12,1,low,6 + 1 + 8 + 1 + 1,17,16,15,17,953.4200530999806,955.4467637001072,956.9620906999336,961.9804074999412,963.0726195999888,963.0726248999126,964.5892902999184,965.60592500004,e,17,1.0922121000476182,1,+1,245,15.376959908298279,0.23438767493856716,-0.01507135881859667,951351.0,-9.214600811119045,0.31092194979496446,-0.1659635830888342,954884.0,-8.522117261009019,-0.09194396498584911,-2.602061168015569,962510.0,956.9645033875129,953.4315033875129,964.5905033875129
59,39,23,f,1,1,51.0,13,1,high,6 + 9 + 1 + 1 - 1,16,16,14,15,967.1226391000672,969.1482396000064,970.6634494999888,975.6810649000108,978.024628400104,978.0246335999108,979.541443000082,980.558864200022,q,16,2.343563500093296,1,+10,255,-0.3864572525012342,0.2609026372482517,-0.04304438576987968,965052.0,-13.068482294039455,0.02788267233807984,-0.5211964676186218,968585.0,-14.967301655355334,-0.06162194166193924,0.10277602873303526,977463.0,970.6655033875129,967.1325033875129,979.5435033875128
60,39,23,f,1,1,52.0,14,2,low,3 + 8 + 1 - 5 + 1,8,8,6,9,982.0760244000704,984.1031720999164,985.6184952999464,990.6367468999232,993.408616400091,993.4086215998976,994.9259140999056,995.9428322999738,q,8,2.771869500167668,1,+1,256,21.393170879860225,0.3191139868419106,0.22780331617981675,980007.0,17.656182798334413,-0.7078292802330961,0.05301406778452389,983541.0,2.524071484195529,0.373188334225913,0.2518650642781264,992847.0,985.6215033875129,982.0875033875128,994.9275033875128
61,39,23,f,1,1,53.0,15,3,low,3 - 7 + 5 + 1 + 9,11,11,13,12,997.4596096000168,999.485058600083,1001.0003607999532,1006.0184683999978,1007.1287122999784,1007.1287177000196,1008.645254299976,1009.6622377999591,q,11,1.11024389998056,1,+1,257,7.794826081372909,0.7491249319248103,0.06834139721016652,995389.0,16.103730903478276,0.14474445842963002,0.09373231736004817,998923.0,15.37023691780167,0.002491609053127064,0.06486020537414983,1075493.0,1001.0035033875129,997.4695033875129,1077.5735033875128
62,39,23,f,1,1,54.0,16,3,high,6 - 1 + 7 - 8 + 9,13,12,11,13,1011.178944400046,1013.203458999982,1014.7187616999728,1019.737404699903,1020.816629699897,1020.816635099938,1022.3332658999134,1023.3506664000452,e,13,1.0792249999940395,1,+10,267,-15.506254554563437,0.10913989392639989,-0.2165979874008399,1009107.0,-30.398696656551227,-0.4913899483759261,-0.18042314582894292,1012641.0,-5.518286159981692,-0.39146669951292656,0.30916473723341475,1089094.0,1014.7215033875128,1011.1875033875128,1091.174503387513
63,39,23,f,1,1,55.0,17,1,low,5 + 6 + 1 + 1 + 1,14,13,14,16,1024.8676509999204,1026.8955663999077,1028.4108672000002,1033.4286328000017,1034.4246205000672,1034.4246261999942,1035.9411152999382,1036.9578150999732,w,14,0.995987700065598,1,+1,268,6.431200964626404,0.2581916754943867,-0.8632713153573874,1022799.0,-23.83135204656394,0.09468229035833797,-0.6792958907433393,1026332.0,0.14866084912235422,0.22300689338610846,0.8415302759728494,1033862.0,1028.412503387513,1024.8795033875128,1035.942503387513
64,39,23,f,1,1,56.0,18,1,high,3 + 1 + 8 + 1 + 1,14,14,12,13,1038.4742167999502,1040.502127100015,1042.0173120999243,1047.03527699993,1047.81672360003,1047.816730000079,1049.333486800082,1050.350839599967,q,14,0.7814466001000255,1,+10,278,7.74513922694732,-0.058847380302479824,-0.3363443777510944,1036406.0,-1.8139234131292241,-0.2378911582134129,-0.13551127652481476,1039939.0,-7.157570442716714,-0.5779528071566147,0.3713757505985118,1047254.0,1042.019503387513,1038.4865033875128,1049.3345033875128
65,39,23,f,1,1,57.0,19,4,low,5 + 7 - 4 - 6 + 9,11,13,11,12,1051.8682347000577,1053.8962658999951,1055.4116529000455,1060.4298549999949,1061.4166945999025,1061.416699900059,1062.933241300052,1063.9502483999822,w,11,0.9868395999073982,1,+1,279,30.096948211300518,-0.21429331963093778,-5.355643446925796,1049800.0,-7.320762813876579,0.19092742061092416,-0.2727419572918768,1053334.0,14.460637349593565,0.20624311517986316,0.6950392963324341,1267085.0,1055.414503387513,1051.8805033875128,1269.165503387513
66,39,23,f,1,1,58.0,20,3,low,3 + 8 - 7 + 1 + 9,14,12,14,13,1065.4666852999944,1067.4926644999068,1069.0078958000522,1074.0268294999842,1076.0567250000313,1076.0567308999598,1077.573090699967,1078.5899515000638,w,14,2.0298955000471324,1,+1,280,10.41664337543881,0.03666814999952939,-0.16763289360024802,1063396.0,8.520127560876084,0.45399219617826114,0.052506932097140524,1066930.0,15.2548191668577,-0.38108003293730786,-0.9980901041360224,1116269.0,1069.010503387513,1065.4765033875128,1118.3495033875129
67,39,23,f,1,1,59.0,21,3,high,7 + 1 + 9 + 5 - 6,16,16,15,14,1080.1066046000924,1082.13076249999,1083.6460216001142,1088.664287799969,1089.6566947998945,1089.6567005999386,1091.1734351001214,1092.1910264999606,q,16,0.9924069999251516,1,+10,290,22.37596431865234,-0.035072107327633884,0.22321991270652974,1078034.0,9.805310943139215,-0.03249780116430001,0.24194395191591278,1081568.0,-34.96228284915939,0.33013078844543653,-0.005490995215587491,1157533.0,1083.6485033875128,1080.114503387513,1159.6135033875128
68,39,23,f,1,1,60.0,22,2,low,2 + 1 + 9 - 4 + 1,9,11,9,8,1093.708777999971,1095.7345227999613,1097.2497117000166,1102.2683276999742,1103.3207459999248,1103.3207515999677,1104.8372714999132,1105.8541747001,w,9,1.0524182999506593,1,+1,291,6.822614398326367,0.6134970086872111,0.07125458701015197,1091638.0,9.750372966360683,-0.11480612492016862,-1.328020217930134,1095171.0,-12.690493028453542,-0.1948003445164721,0.29336894355509946,1102757.0,1097.251503387513,1093.7185033875128,1104.837503387513
69,39,23,f,1,1,61.0,23,3,low,5 - 1 - 4 + 6 + 7,13,14,13,15,1107.370489400113,1109.3975446000695,1110.9127458999865,1115.9309064000845,1116.8327087000944,1116.8327140000183,1118.3492682999931,1119.3660911000334,w,13,0.9018023000098764,1,+1,292,13.7749374657817,0.38803738647491137,-0.9358580120983673,1105301.0,10.698784060527187,-0.170503794491359,-0.006851638147759687,1108834.0,-9.550228230600196,0.048127529828633886,0.037078122038636696,1184861.0,1110.914503387513,1107.3815033875128,1186.941503387513
70,39,23,f,1,1,62.0,24,1,high,3 + 1 + 9 + 1 + 1,15,15,17,14,1120.882917799987,1122.9068273000885,1124.4220247000922,1129.4399824999273,1130.3367033000104,1130.336708100047,1131.8527985999826,1132.8703242000192,q,15,0.8967208000831306,1,+10,302,7.324838604879265,0.17062586548955938,-0.035714219549636494,1118810.0,5.148969743193479,-0.23937660215371537,-0.1283128958532609,1122343.0,-2.1161026930458027,-0.13019535853846698,2.7417801373390756,1129773.0,1124.423503387513,1120.8905033875128,1131.8535033875128
71,39,23,f,1,1,63.0,25,4,high,4 + 8 + 9 - 3 + 7,25,24,26,25,1134.387504399987,1136.4139302000403,1137.92985960003,1142.9485398000106,1144.5527512999251,1144.5527566999665,1146.069276599912,1147.0866177999417,e,25,1.604211499914527,1,+10,312,-24.118755699756907,0.04305523609892292,-0.37877470915463984,1132317.0,7.231436339660908,-1.6597631579927015,-0.5727372111489801,1135852.0,16.976156050158856,-0.5905473502643299,-2.5979200994936296,1294301.0,1137.932503387513,1134.3975033875129,1296.3815033875128
72,39,23,f,1,1,64.0,26,3,high,6 + 1 + 8 + 7 - 9,13,15,14,13,1148.6032833999489,1150.6298680999316,1152.1448619000148,1157.1632795999758,1158.0967127000913,1158.0967186000198,1159.6129354001023,1160.630220399937,e,13,0.9334331001155078,1,+10,322,-29.984447156431575,0.12121110102796395,0.8766625999400963,1146533.0,36.895082918178204,-0.13005307701855928,-0.1398160985814827,1150066.0,7.5032133709118085,0.3798587834102012,0.9995682669890513,1212821.0,1152.146503387513,1148.6135033875128,1214.9015033875128
73,39,23,f,1,1,65.0,27,1,high,7 - 1 + 9 + 1 - 1,15,15,14,13,1162.147044399986,1164.172758199973,1165.6882694999222,1170.7070959000848,1171.7687210000586,1171.7687260000966,1173.2849999000318,1174.3019455999602,q,15,1.061625099973753,1,+10,332,5.795930415780862,0.24493247165332077,0.03585740895025191,1160076.0,20.880522784735426,3.689602332157379,2.921173897755249,1163609.0,-15.837368198041256,-0.29068513112134386,0.4447642744630138,1171205.0,1165.6895033875128,1162.1565033875129,1173.2855033875128
74,39,23,f,1,1,66.0,28,3,low,4 + 1 + 8 + 9 - 5,17,18,17,19,1175.8186393000651,1177.8420623999557,1179.3572426999451,1184.3754165999126,1185.4248148000331,1185.4248202000745,1186.9417252999265,1187.9589219999034,w,17,1.049398200120777,1,+1,333,-33.08782791321091,-0.05860756953331947,0.13867626369705865,1173745.0,6.36482455608664,-0.25362486207026746,0.04945418540477009,1177278.0,19.52112735073721,0.19398217290880027,0.3624218738680165,1239965.0,1179.3585033875129,1175.8255033875128,1242.0455033875128
75,39,23,f,1,1,67.0,29,2,high,2 + 9 - 4 + 1 + 1,9,9,8,11,1189.4754256000742,1191.5024023998994,1193.018009100109,1198.037181599997,1199.6167544999626,1199.616759700002,1201.1326842999551,1202.150430999929,q,9,1.5795728999655694,1,+10,343,-4.868661688393853,0.16842572125607447,0.4861834294518588,1187405.0,-3.0477035720559655,0.33025539025282624,-0.10091506565549957,1190939.0,11.380951777634548,0.18777363248253254,0.2171192050588593,1199053.0,1193.019503387513,1189.4855033875128,1201.133503387513
76,39,23,f,1,1,68.0,30,3,high,8 + 5 + 1 - 7 + 9,16,17,14,16,1203.6669280000497,1205.6941617000848,1207.2094111999031,1212.2296458000783,1213.384931599954,1213.384937700117,1214.9011884999927,1215.9183553000912,e,16,1.1552857998758554,1,+10,353,17.12103806684235,0.06836293454143094,0.1309384539093683,1201597.0,8.145074235614121,-0.20283633796476952,-0.2483354991192257,1205132.0,28.860738911546076,-0.2900519056889248,1.8450786408421993,1452852.0,1207.212503387513,1203.6775033875128,1454.932503387513
77,39,23,f,1,1,69.0,31,1,low,9 + 8 + 1 + 1 - 1,18,18,19,17,1217.4351097000765,1219.4618146999271,1220.9770231000148,1225.9953391000165,1226.9687681000214,1226.968773300061,1228.4850331000052,1229.501740799984,q,18,0.973429000005126,1,+1,354,-2.1857475630430994,-0.010889428361003706,-1.3037507154327774,1215365.0,-22.347739621050387,1.9646377356988372,2.8482142335727243,1218898.0,16.68288497993037,0.7080354758981007,-3.369109988691723,1226404.0,1220.9785033875128,1217.4455033875129,1228.4845033875129
78,39,23,f,1,1,70.0,32,3,high,5 + 6 - 4 - 1 + 8,14,15,14,16,1231.0185479999054,1233.0433996000793,1234.5585658999626,1239.5777594998945,1240.5288595000748,1240.5288647999987,1242.0454621999525,1243.0625507999212,w,14,0.951100000180304,1,+10,364,-1.7127962655766993,0.03674854755595858,-0.3223407123559192,1228946.0,-22.85997262615756,0.3084904214998607,-0.05097781940002344,1232480.0,7.888917059500968,-0.5109332142665277,0.0703832320296649,1548403.0,1234.5605033875129,1231.0265033875128,1550.4835033875129
79,39,23,f,1,1,71.0,33,1,low,4 + 7 + 1 - 1 - 1,10,11,10,9,1244.5790625000373,1246.6067735999825,1248.1222274000756,1253.140627800021,1254.0167946000583,1254.0167996000964,1255.5339830000885,1256.551004299894,w,10,0.8761668000370264,1,+1,365,2.5775708250080225,-0.21240637409286167,-0.06462336696127924,1242509.0,-43.65471738081523,0.06367067510219115,-0.3414819034253789,1246043.0,-50.97469124746589,-0.08505469935174359,-2.5820377160283963,1253453.0,1248.1235033875128,1244.5895033875129,1255.5335033875128
80,39,23,f,1,1,72.0,34,4,high,6 + 9 - 7 + 8 - 5,11,13,11,12,1258.0677513000555,1260.09372600005,1261.6090828999877,1266.6272368000357,1267.648832499981,1267.648837500019,1269.1652716998942,1270.182446300052,w,11,1.0215956999454647,1,+10,375,9.699104125775989,-0.1532666172226511,-0.11831556347358685,1255996.0,16.406633919760537,-0.3182779465355803,-0.9959532076147046,1259530.0,-22.50214062232873,-0.34953113961945714,-1.9776654016697153,1308132.0,1261.6105033875128,1258.076503387513,1310.212503387513
81,39,23,f,1,1,73.0,35,1,high,4 + 1 + 1 + 7 - 1,12,12,13,14,1271.6992943000514,1273.7231672999917,1275.2383266999386,1280.2575302000623,1281.2168074999936,1281.2168125000317,1282.7329404999036,1283.7503311999608,q,12,0.9592772999312728,1,+10,385,5.69028196966725,0.14426967199321483,-3.8732634062288183,1269626.0,25.357616729727535,0.352198006197598,-0.16043061265729364,1273160.0,-1.0689412072101163,0.0798338945107746,-0.014715602670354766,1280653.0,1275.240503387513,1271.7065033875128,1282.7335033875129
82,39,23,f,1,1,74.0,36,4,low,3 + 8 - 7 + 9 - 5,8,8,9,7,1285.267134899972,1287.29281480005,1288.807877399959,1293.8263894000556,1294.864842900075,1294.8648485001177,1296.3817741000094,1297.399435600033,q,8,1.0384535000193864,1,+1,386,-31.34732745539702,0.5261555139341003,-0.04499589279804361,1283195.0,-13.736542351753224,3.3075930789170984,4.202874239142791,1286728.0,-4.631936611124564,-0.06622046409733429,0.1112344817837907,1360652.0,1288.808503387513,1285.2755033875128,1362.732503387513
83,39,23,f,1,1,75.0,37,4,high,5 + 8 - 4 - 6 + 9,12,12,14,13,1298.9159460000228,1300.943186199991,1302.4584516000468,1307.4765785001218,1308.6969347000122,1308.6969403999392,1310.2129903000314,1311.2305447999388,q,12,1.2203561998903751,1,+10,396,-35.91210098037851,-0.06638891238725897,0.0902823429155819,1296845.0,20.22776443410103,0.13289345783471918,0.21607844597126924,1300379.0,42.563567602743774,0.16262542005952296,0.012583174753752147,1373908.0,1302.4595033875128,1298.925503387513,1375.9885033875128
84,39,23,f,1,2,76.0,0,4,low,6 + 9 + 7 - 3 - 5,14,14,13,15,1352.100697000045,1354.1269610000309,1355.6421423999127,1360.6622693000827,1361.2169365999289,1361.2169643000234,1362.7331538000144,1363.7493948000483,q,14,0.5546672998461872,1,+1,397,-10.344740544382676,-0.5987085689690561,0.2251446760876834,1350029.0,11.008512244979915,-0.8110117314702827,0.05591945043764124,1353564.0,-22.771530611614565,-0.33311812081722314,0.3170696374953925,1493676.0,1355.644503387513,1352.1095033875129,1495.7565033875128
85,39,23,f,1,2,77.0,1,4,low,4 + 7 - 8 + 9 - 4,8,9,8,7,1365.2661270000972,1367.2903241000604,1368.8056216000114,1373.8246832001023,1374.4729325999506,1374.4729377001058,1375.9894030999858,1377.006417500088,w,8,0.6482493998482823,1,+1,398,5.201175296003875,-0.09740914355565478,-0.051479861478073596,1363192.0,22.814377262028994,0.11073428736631108,0.079998199602203,1366726.0,-30.21062920910444,-0.03739547527789533,1.01062695390076,1521883.0,1368.806503387513,1365.2725033875129,1523.963503387513
86,39,23,f,1,2,78.0,2,2,high,9 + 6 + 1 + 7 + 1,24,23,24,25,1378.5227880999446,1380.5477442000993,1382.0629050999414,1387.0808033000212,1387.5449502998963,1387.544955499936,1389.0613899000457,1390.0796135999262,w,24,0.4641469998750835,1,+10,408,-21.862542903030512,0.276151884406894,-2.1376616830014705,1376449.0,-25.068697934693837,0.10181443428135184,0.016822357508091468,1379982.0,8.282608377867767,-0.21720362220220535,0.028128505567324602,1386980.0,1382.0625033875128,1378.529503387513,1389.0605033875129
87,39,23,f,1,2,79.0,3,2,low,6 + 1 + 8 + 5 - 1,19,17,18,19,1391.5970248999074,1393.6236185999587,1395.1393118998967,1400.157375199953,1400.6329703000374,1400.63297590008,1402.149667199934,1403.166565200081,e,19,0.4755951000843197,1,+1,409,20.88205834697419,0.13610223462877036,-0.021796089004991304,1389524.0,-5.325885092156646,-0.14731780000817052,-1.0801213901778377,1393059.0,35.13801996575292,0.4101418932986092,-0.04028827071850438,1400068.0,1395.1395033875128,1391.6045033875128,1402.1485033875128
88,39,23,f,1,2,80.0,4,2,low,8 + 1 + 9 + 1 - 4,15,16,14,15,1404.683350800071,1406.706399699906,1408.2213820999025,1413.23966620001,1413.8169704000466,1413.816976299975,1415.3337465999648,1416.3506968999282,e,15,0.5773042000364512,1,+1,410,-6.528315686796093,0.018091758969089433,-0.25958582499026117,1402608.0,-24.2246772186321,-0.1524403943163848,-0.05272616385899487,1406141.0,21.29388054604465,0.2722239498060861,-0.05249655397439379,1413252.0,1408.221503387513,1404.6885033875128,1415.3325033875128
89,39,23,f,1,2,81.0,5,2,low,4 + 9 - 7 + 1 - 1,6,8,6,5,1417.8675744000357,1419.8911991999485,1421.406626000069,1426.425192099996,1427.0809812000953,1427.080986399902,1428.5975886001252,1429.6146128000692,w,6,0.655789100099355,1,+1,411,4.7225202582084815,0.06412116780634003,0.12885806727167193,1415793.0,-2.8056264836135867,0.3547239350536735,-0.14357215126580325,1419326.0,-47.66892035100912,0.4148609287144174,0.17385327048615684,1426516.0,1421.4065033875129,1417.8735033875128,1428.596503387513
90,39,23,f,1,2,82.0,6,1,high,5 + 1 + 1 + 9 + 1,17,16,19,17,1431.1314123999327,1433.1591022000648,1434.6747594000772,1439.6924697000068,1440.313008799916,1440.313014100073,1441.8295873999596,1442.8466179999523,e,17,0.6205390999093652,1,+10,421,-30.70318774819157,0.4065654484847028,-0.11758327013599423,1429060.0,-1.0066828468471964,0.04205787346070533,-0.35398713326076847,1432594.0,-5.0065255052897015,-0.28093689393063137,-0.3473115372542279,1439748.0,1434.674503387513,1431.1405033875128,1441.828503387513
91,39,23,f,1,2,83.0,7,3,high,7 - 1 + 9 - 5 + 4,14,13,15,14,1444.3630995999556,1446.3886009000707,1447.9039441000205,1452.9224215000868,1453.4169926999602,1453.4169978001155,1454.933491999982,1455.9514452000149,e,14,0.4945711998734623,1,+10,431,22.865101963014556,0.20309767479304996,0.7579641183723806,1442290.0,-7.648509084540343,-0.11133659446916377,0.07371145977872784,1445823.0,-31.33766904318441,0.1578088652648022,-0.27114694980180265,1587779.0,1447.903503387513,1444.3705033875128,1589.8595033875129
92,39,23,f,1,2,84.0,8,4,low,3 + 8 - 5 + 9 - 7,8,6,8,7,1457.468879000051,1459.4961345000193,1461.0111809000373,1466.029590799939,1467.953037600033,1467.9530434999615,1469.4698272999376,1470.4868071000092,e,7,1.9234468000940976,0,+0,431,7.621279494256747,-0.008657348416191368,-0.23569234271427808,1455397.0,31.571546699098082,0.045285195824159796,0.13746246956033437,1458931.0,17.38762082891912,0.045704988086627374,0.28621806820480744,1601084.0,1461.011503387513,1457.4775033875128,1603.164503387513
93,39,23,f,1,2,85.0,9,1,high,7 + 1 + 5 + 1 - 1,13,14,13,12,1472.0034819000866,1474.0317947999574,1475.5469694000203,1480.565108400071,1481.1850521999877,1481.1850576999132,1482.701258199988,1483.718306099996,w,13,0.6199437999166548,1,+10,441,11.228971341716797,0.08983139004496721,-0.0581258189421312,1469933.0,6.426491293556976,0.13835054974232408,-0.08345411978313333,1473466.0,14.196306585217757,0.44199526016768154,-0.5928313361927366,1480619.0,1475.5465033875128,1472.0135033875129,1482.6995033875128
94,39,23,f,1,2,86.0,10,4,high,8 + 4 - 5 + 7 - 6,8,7,8,6,1485.2349871001206,1487.2583399000578,1488.7736247000284,1493.7920703999698,1494.2410607000347,1494.2410657999571,1495.7575759999454,1496.7748775000218,w,8,0.4489903000649065,1,+10,451,-5.633159450037512,-0.4437961651172522,-0.1059012049389918,1483160.0,18.43321159226453,0.15232506116324407,0.20691285843402518,1486693.0,1.3261970438215416,0.2866279550271065,1.0529924278000764,1614347.0,1488.7735033875128,1485.240503387513,1616.4275033875128
95,39,23,f,1,2,87.0,11,1,low,7 + 1 + 4 + 1 - 1,12,13,11,12,1498.2919463000726,1500.3198528001085,1501.8359525001142,1506.8541806999128,1507.416998000117,1507.417003300041,1508.9336280999703,1509.950671999948,e,12,0.5628173002041876,1,+1,452,-53.15872725060013,-0.16382566333492266,-0.3126112770472167,1496221.0,16.63653761578296,0.2405420392218467,-0.12532588113872944,1499755.0,17.696138193068204,-0.10580713048527368,0.41889082027491353,1506851.0,1501.835503387513,1498.3015033875129,1508.931503387513
96,39,23,f,1,2,88.0,12,4,low,2 + 5 - 3 + 9 + 8,21,21,19,22,1511.467394599924,1513.4953302999493,1515.0103106999304,1520.0287222999614,1522.4490815000609,1522.4490869999863,1523.9655995999929,1524.9826279999688,q,21,2.420359200099483,1,+1,453,10.309093147803207,0.47681568756040615,0.33018036081561464,1509396.0,-11.02147933448101,2.2244033502123273,2.441429258259503,1512929.0,-6.106833913152649,0.10053886043331905,0.20088239362287053,1719915.0,1515.009503387513,1511.4765033875128,1721.9955033875128
97,39,23,f,1,2,89.0,13,2,high,2 + 1 + 9 - 4 + 1,9,9,8,11,1526.4997604999226,1528.5238628999796,1530.0391088000033,1535.0570163999218,1535.785076699918,1535.7850820999593,1537.3015896999275,1538.3191710999236,q,9,0.7280602999962866,1,+10,463,-39.22126834388473,0.03019338930539206,-0.23984689453130104,1524424.0,-9.34665812342759,-0.09543206190219955,0.11025039661418146,1527958.0,13.791676586131153,-0.3224327422073028,-0.16600771343095233,1535219.0,1530.038503387513,1526.5045033875128,1537.299503387513
98,39,23,f,1,2,90.0,14,3,low,4 + 8 - 3 + 5 - 1,13,13,14,12,1539.8359358999878,1541.8632916000206,1543.3783625999931,1548.3970725000836,1548.969024799997,1548.9690306000412,1550.4855702000204,1551.5032335999422,q,13,0.5719522999133915,1,+1,464,-11.079294057774785,-0.027197119643391776,0.9959121147449523,1537763.0,-31.420142931431677,-0.0383565807604338,0.09212239232436126,1541297.0,12.733705239824538,-0.10427124617986205,0.026203257406014924,1640643.0,1543.377503387513,1539.8435033875128,1642.723503387513
99,39,23,f,1,2,91.0,15,2,low,3 + 9 + 1 - 5 + 1,9,9,7,8,1553.0198627999052,1555.0482232999057,1556.563403200125,1561.581603999948,1562.089020299958,1562.089026000118,1563.6054925001226,1564.6231188001111,q,9,0.5074163000099361,1,+1,465,-1.5100575996581913,0.1654510446926345,-0.1687291762311003,1550949.0,-2.2807816721034184,-0.08078216700788143,0.14766349810437585,1554482.0,-0.8376260422414923,-0.7078160229870725,-1.328197525410613,1561523.0,1556.5625033875128,1553.029503387513,1563.6035033875128
100,39,23,f,1,2,92.0,16,2,high,8 + 1 + 4 - 7 + 1,7,6,7,5,1566.1401569999289,1568.1667675999925,1569.6819905999582,1574.6999600001143,1575.241273399908,1575.2412789999507,1576.7578203999435,1577.7759640000295,w,7,0.5413133997935802,1,+10,475,-22.55132272537144,-0.18575145850808505,0.016286921329454085,1564067.0,0.03787682630649947,0.011739274356254104,0.06730781465905067,1567601.0,4.850996543399415,0.07572857881442996,0.28259721493156675,1574675.0,1569.681503387513,1566.1475033875129,1576.7555033875128
101,39,23,f,1,2,93.0,17,3,high,9 - 1 + 5 - 6 + 8,15,15,17,14,1579.2926896999124,1581.3185127000324,1582.8338854000904,1587.852096799994,1588.34513469995,1588.3451402001083,1589.861513900105,1590.879594200058,q,15,0.4930378999561071,1,+10,485,7.945961813146795,0.6972490324362508,1.2933033696872642,1577219.0,1.631954966866621,0.04911418440881832,0.02133096667814316,1580752.0,-7.527716085603553,-0.15695008946515276,1.8804648543893205,1653717.0,1582.8325033875128,1579.299503387513,1655.797503387513
102,39,23,f,1,2,94.0,18,4,high,7 + 8 - 4 + 6 - 5,12,11,12,13,1592.3960953999776,1594.4215291000437,1595.936848500045,1600.9551824999508,1601.6492449000943,1601.6492510999087,1603.165788100101,1604.1834136000834,w,12,0.6940624001435935,1,+10,495,15.671705181925836,0.03159374895066325,0.042340486959515866,1590322.0,-28.635609460451683,-0.2262030311588421,-0.12336746155198419,1593855.0,-17.376223089055312,0.11187041907864659,0.2269953739631887,1733307.0,1595.9355033875129,1592.4025033875128,1735.3875033875129
103,39,23,f,1,2,95.0,19,4,low,8 + 4 + 7 - 5 - 6,8,6,9,8,1605.7009942999575,1607.726330399979,1609.241678700084,1614.2597775999457,1614.9131752001122,1614.913180799922,1616.4297644000037,1617.4469099999403,e,8,0.6533976001664996,1,+1,496,-6.020454743530365,0.06950005349199628,0.06492968354432715,1603627.0,2.3213922733675787,0.12301605689204731,-0.2122933095448336,1607160.0,-12.35158170716946,0.03209706112621902,0.08388406347885313,1760003.0,1609.240503387513,1605.7075033875128,1762.0835033875128
104,39,23,f,1,2,96.0,20,1,high,6 + 1 + 1 + 7 - 1,14,14,12,13,1618.9633486999664,1620.9903257999104,1622.5055066999048,1627.5238705000374,1628.0970753999427,1628.0970807000997,1629.6135809000116,1630.6309116000775,q,14,0.5732048999052495,1,+10,506,14.817696406920994,0.7419965861371058,1.6852125140778442,1616890.0,-17.58891285895932,-0.028589260410444073,0.0033362610020755135,1620424.0,-1.4398061638550774,0.3737404612205397,1.5814752184625007,1627531.0,1622.5045033875128,1618.970503387513,1629.6115033875128
105,39,23,f,1,2,97.0,21,3,low,7 - 5 + 9 + 1 - 4,8,8,9,7,1632.14742449997,1634.1729393000714,1635.6881663000677,1640.7061801000964,1641.2091997000389,1641.2092049000785,1642.725688100094,1643.7427560999058,q,8,0.5030195999424905,1,+1,507,-4.672032534965364,-1.890399141725697,-2.003494505772781,1630073.0,31.45635351175159,-0.17105039978254988,-0.16591847110668878,1633607.0,17.692793232416193,-0.5110557453714932,0.2865024889755561,1680258.0,1635.6875033875128,1632.153503387513,1682.338503387513
106,39,23,f,1,2,98.0,22,3,high,3 + 1 + 6 - 8 + 9,11,11,12,13,1645.2596660000272,1647.2848602000158,1648.7998528999742,1653.8182661000174,1654.2819699998945,1654.2819761000574,1655.7984265999405,1656.8167161000893,q,11,0.4637038998771459,1,+10,517,7.681814756499813,0.10490574090137939,0.2055701610881837,1643185.0,-14.148642777714686,-0.13540584257943067,-0.08535238480747553,1646718.0,23.414205421509205,-0.34428675876623327,-0.016668853462082467,1693459.0,1648.798503387513,1645.2655033875128,1695.539503387513
107,39,23,f,1,2,99.0,23,3,low,8 + 3 + 1 - 7 + 9,14,14,15,12,1658.3332968000325,1660.3595789999235,1661.8749172999524,1666.8940294000786,1667.6011771999763,1667.601182400016,1669.117376399925,1670.1346283999735,w,15,0.707147799897939,0,+0,517,9.409311656129864,0.007093780977022401,0.03290973222241478,1656259.0,23.95144164445157,-0.17383683976523345,-0.0614161186034865,1659794.0,15.203607151474902,-0.12379741570916236,0.14792945917706213,1706611.0,1661.874503387513,1658.3395033875129,1708.691503387513
108,39,23,f,1,2,100.0,24,3,low,7 - 1 + 8 - 6 + 4,12,13,12,11,1671.651389699895,1673.6774476000571,1675.1926706000231,1680.2113004000855,1680.825146799907,1680.8251519000623,1682.3415238999296,1683.3583301000765,w,12,0.613846399821341,1,+1,518,10.382820005373194,0.5621317112038957,0.037508258437945585,1669577.0,19.430295123566193,-0.2764818055990035,0.08608102504519755,1673111.0,5.360970572180853,-0.09279653160063228,-2.3649196776361645,1937169.0,1675.191503387513,1671.6575033875129,1939.249503387513
109,39,23,f,1,2,101.0,25,3,low,5 + 6 - 4 - 1 + 7,13,13,14,15,1684.876056799898,1686.902118999977,1688.4171615999658,1693.436167600099,1694.025158900069,1694.025164599996,1695.541770499898,1696.5591851999052,q,13,0.5889912999700755,1,+1,519,-3.151066791202526,0.15479284749347455,0.008099611177878607,1682802.0,0.435881872912006,-0.06152753913482867,0.07129326969486205,1686336.0,0.1636298935062115,0.08058318896355221,0.05531814464029372,2032298.0,1688.4165033875129,1684.8825033875128,2034.3785033875129
110,39,23,f,1,2,102.0,26,3,high,5 + 6 + 7 - 1 - 9,8,9,7,8,1698.0758362999186,1700.1031945000868,1701.618246600032,1706.6374218999408,1707.1772884000093,1707.1772936999332,1708.6938273000997,1709.7113212000113,e,8,0.5398665000684559,1,+10,529,33.23167662555896,-0.050726562235937855,0.1446691271672269,1696003.0,-54.23765144502123,0.16796779076648605,-0.04952729587474769,1699536.0,-17.917820104598356,-0.10839540383809476,0.1116281628388136,2071609.0,1701.616503387513,1698.0835033875128,2073.689503387513
111,39,23,f,1,2,103.0,27,4,high,8 + 4 + 7 - 5 - 6,8,7,9,8,1711.2279668999836,1713.2521945000626,1714.7679038001224,1719.7862752999645,1720.481268600095,1720.481274599908,1721.9977720000315,1723.015801700065,e,8,0.6949933001305908,1,+10,539,13.242038123674934,0.07444985204018462,-3.025892587427661,1709152.0,1.3432508743277936,-0.35196828666739366,0.09328546724700026,1712686.0,-17.68078338183134,0.24879914704252526,0.03355870143911632,1825434.0,1714.7665033875128,1711.232503387513,1827.5145033875128
112,39,23,f,1,2,104.0,28,4,low,9 + 4 - 6 + 8 + 7,22,24,21,22,1724.532604200067,1726.5589425999206,1728.0740479000378,1733.0923548999708,1733.8731967001222,1733.8732018000446,1735.390157900052,1736.407107200008,e,22,0.7808418001513928,1,+1,540,-3.425685123520484,-0.22179805304181244,-0.44433185507533324,1722459.0,17.832649401176802,0.18836237877674966,0.1257495096474981,1725992.0,6.293418423853759,-0.18205442618428158,1.121223617462458,1851730.0,1728.0725033875128,1724.539503387513,1853.8105033875129
113,39,23,f,1,2,105.0,29,1,high,6 + 1 + 1 + 9 - 1,16,16,15,14,1737.9244806000495,1739.9512191000397,1741.466424500104,1746.4853326999582,1746.9532812999096,1746.9532868999522,1748.469214000041,1749.487129200017,q,16,0.4679485999513417,1,+10,550,7.340592034133131,0.0824162842040832,0.46812643533154885,1735851.0,-10.379940853500335,-0.11658864536012237,-0.08769797955073555,1739385.0,4.834699957955968,0.42711779742569167,0.053837872138634335,1746386.0,1741.4655033875129,1737.931503387513,1748.4665033875128
114,39,23,f,1,2,106.0,30,4,high,4 + 7 - 8 + 9 - 3,9,9,8,11,1751.0037978999317,1753.0283429999836,1754.5435484000482,1759.5624083001169,1760.5692569999956,1760.5692626000382,1762.085928000044,1763.1033022999763,q,9,1.0068486998789012,1,+10,560,29.122929250176632,0.020284273630967853,0.050677594376784985,1748927.0,-7.129550963241978,0.00402470362162477,0.05624334990183266,1752462.0,-17.56566508030584,0.006278799220575948,0.13442944157674908,1991809.0,1754.5425033875129,1751.0075033875128,1993.8895033875128
115,39,23,f,1,2,107.0,31,2,low,8 + 1 + 9 + 1 - 5,14,14,13,15,1764.6199364000931,1766.6454547999892,1768.16073959996,1773.178785199998,1773.6492826999165,1773.6492880999576,1775.1658469999677,1776.183048600098,q,14,0.4704974999185651,1,+1,561,11.56984981600471,0.6056185435642161,0.8395855261573024,1762545.0,-14.645830035424627,0.05497479204617006,-0.05531175094128038,1766078.0,-2.7594233780074777,0.01114468697170734,-0.09392904427191295,1773082.0,1768.1585033875128,1764.625503387513,1775.162503387513
116,39,23,f,1,2,108.0,32,1,low,9 + 8 + 1 + 1 - 1,18,20,18,17,1777.6997714000754,1779.7276598999742,1781.242801500019,1786.260643800022,1786.713249299908,1786.7132550999522,1788.229138100054,1789.2460986999797,w,18,0.4526054998859763,1,+1,562,15.238449925731047,0.33373691717996046,0.07200072831299487,1775627.0,6.1591743927150855,26.407679510276886,30.691277944719154,1779160.0,-17.14153881236944,0.05976677742181824,0.31091358702693705,1786145.0,1781.240503387513,1777.7075033875128,1788.2255033875128
117,39,23,f,1,2,109.0,33,2,high,7 + 5 + 1 - 1 - 8,4,2,4,3,1790.7625297000632,1792.7892809000332,1794.3045286000706,1799.3246983001009,1799.7853071000427,1799.7853123000823,1801.3017198001037,1802.3188324999064,w,4,0.4606087999418378,1,+10,572,-15.139929300919881,0.0883140118560406,0.27955636559964403,1788689.0,-7.290265177934993,0.14710047593835407,-0.31369578059850856,1792224.0,-17.082360362018747,0.1689575327133035,0.3030685066572547,1799218.0,1794.3045033875128,1790.769503387513,1801.298503387513
118,39,23,f,1,2,110.0,34,1,low,8 + 1 + 4 + 1 + 1,15,15,16,14,1803.8354688999243,1805.8626983999277,1807.3779599999543,1812.3958024999592,1812.8892870999407,1812.889292200096,1814.4058375000025,1815.4227752001025,q,15,0.493484599981457,1,+1,573,7.527672479865841,0.26359924013076963,0.1105899059947768,1801762.0,-35.729417351584004,-0.17300224137425468,0.11715582304478112,1805295.0,3.6658502740647076,-0.12796349001075935,1.0741656459959712,1812322.0,1807.375503387513,1803.8425033875128,1814.4025033875128
119,39,23,f,1,2,111.0,35,4,high,3 + 9 - 5 + 6 + 8,21,23,21,22,1816.9396993000992,1818.965680100024,1820.4808592000045,1825.49894160009,1826.0013240000696,1826.001329800114,1827.517880700063,1828.5348505000584,w,21,0.5023823999799788,1,+10,583,20.186834517443923,-0.22648625720452387,-0.10467992883837396,1814864.0,1.047035250245166,0.24324993305857134,0.058751852757017,1818398.0,-5.582525295734419,7.44537530879532,7.019474168014275,2045368.0,1820.4785033875128,1816.944503387513,2047.4485033875128
120,39,23,f,1,2,112.0,36,2,high,6 + 1 + 7 - 8 - 1,5,5,7,4,1830.051610700088,1832.0776482000947,1833.5925090999808,1838.6106749000028,1839.137290999992,1839.1372962000316,1840.65357710002,1841.670790500008,q,5,0.5266160999890417,1,+10,593,1.6207437296288933,-0.21847427342821568,-0.021805051002658393,1827977.0,-11.085129379391132,-0.09306781241530482,0.004639954978196359,1831510.0,4.554284219386526,0.00820987401265727,0.2184208871989919,1838570.0,1833.5905033875129,1830.057503387513,1840.6505033875128
121,39,23,f,1,2,113.0,37,4,low,4 + 7 + 9 - 5 + 7,22,22,24,23,1843.187501000008,1845.2109769000672,1846.7263678000309,1851.744526800001,1852.2973438999616,1852.297349300003,1853.8140207999384,1854.8310465000104,q,22,0.5528170999605209,1,+1,594,20.147465240896665,-0.23244912413170882,0.07220162944561959,1841110.0,22.244253627495226,0.3308674612765965,0.22517225585215206,1844643.0,4.42790198328381,0.3237241692121855,0.020387531537392034,2058409.0,1846.723503387513,1843.1905033875128,2060.489503387513
122,39,23,f,1,3,114.0,0,2,high,3 + 9 - 1 - 5 + 1,7,5,7,6,1902.3900043000467,1904.415452100104,1905.9306729000527,1910.9500444000587,1911.401343900012,1911.401349199936,1912.917849800084,1913.935177100124,q,5,0.4512994999531656,0,+0,594,1.7448903023336353,-1.3138240851966305,-1.1706386944402984,1900314.0,1.44734913154453,0.45687937233546316,-0.11025727347110492,1903848.0,-3.0926703614157063,-0.4879555359376688,-0.8376619429000942,1924001.0,1905.9285033875128,1902.394503387513,1926.0815033875128
123,39,23,f,1,3,115.0,1,2,low,6 + 8 + 1 + 1 - 7,9,11,9,8,1915.4519017999992,1917.4778422000816,1918.993238199968,1924.011649399996,1924.5695330000017,1924.5695382000413,1926.085772499908,1927.1025342000648,w,9,0.55788360000588,1,+1,595,2.3663101317216295,0.11092910312522619,-0.012673750742187684,1913376.0,11.800098984767383,-0.33234557257887465,-0.15842869560743722,1916910.0,-6.375541063030351,0.054593822185758256,0.20694730786261384,1964249.0,1918.990503387513,1915.4565033875128,1966.329503387513
124,39,23,f,1,3,116.0,2,3,low,3 + 1 + 8 - 5 + 9,16,15,17,16,1928.619295099983,1930.644630700117,1932.1599852000363,1937.179234900046,1937.73742270004,1937.7374281999653,1939.2541799999308,1940.2711324000263,e,16,0.5581877999939024,1,+1,596,-3.6422733761523967,0.23321707956106996,0.15122172623501529,1926543.0,1.9215925431115224,-0.25870060718033416,-0.10321186780996783,1930077.0,-0.9723955502409938,0.30048057435325193,-4.562099298051819,2099280.0,1932.1575033875129,1928.6235033875128,2101.3605033875133
125,39,23,f,1,3,117.0,3,2,low,8 + 1 + 7 + 1 - 4,13,13,12,14,1941.7879298999903,1943.815538899973,1945.330741999904,1950.349470499903,1951.7134750001128,1951.7134807999248,1953.2301084999929,1954.247350800084,e,14,1.3640045002102852,0,+0,596,5.622677614655853,0.42958459849916775,-0.0902473696125412,1939714.0,-7.673777134506812,-0.09309337957609598,0.1524472522126672,1943248.0,15.271596774994006,-0.01828592593392564,0.22083163885785484,2004937.0,1945.328503387513,1941.7945033875128,2007.0175033875128
126,39,23,f,1,3,118.0,4,2,low,5 - 1 + 1 + 8 + 9,22,23,21,22,1955.7640794999895,1957.7872985999568,1959.3031148999,1964.3212011000144,1964.817367099924,1964.8173722000795,1966.3339575000573,1967.3510575001128,e,22,0.4961659999098629,1,+1,597,12.231189872303617,-0.3238382097536885,0.0030552489118917947,1953686.0,5.756609391944838,-0.23063722849073454,0.0897900166163963,1957219.0,-21.377249897929385,-0.6521263064980083,0.011604101857056515,2112680.0,1959.299503387513,1955.7665033875128,2114.760503387513
127,39,23,f,1,3,119.0,5,1,low,3 + 1 + 9 + 1 - 1,13,12,13,14,1968.86801830004,1970.891465699999,1972.4066755000968,1977.424727699952,1977.945368899964,1977.945374300005,1979.4621156000069,1980.479023199994,w,13,0.5206412000115961,1,+1,598,6.918400333580903,0.6898965260563905,2.822547847080826,1966789.0,-16.51474876498093,-0.021948328998773192,0.04001063629100421,1970323.0,23.303616498540386,0.06840531330617594,-0.012040203340383027,1977377.0,1972.403503387513,1968.8695033875129,1979.4575033875128
128,39,23,f,1,3,120.0,6,4,low,6 + 5 - 7 + 8 - 9,3,4,3,5,1981.9957536000293,1984.0221567000265,1985.537450300064,1990.555997000076,1992.377506900113,1992.3775122999211,1993.8940640999936,1994.910908299964,w,3,1.8215099000371997,1,+1,599,2.8113252615385314,0.04704875631346672,0.45477201462591976,1979920.0,40.15843351852106,0.24228392236248775,0.06550865501956271,1983454.0,-1.8978944650947458,1.3263906728464994,1.7121846807486443,2085817.0,1985.5345033875128,1982.000503387513,2087.897503387513
129,39,23,f,1,3,121.0,7,2,high,4 + 1 + 9 + 1 - 6,9,7,8,9,1996.4279628999063,1998.4521421000827,1999.9679221999831,2004.986199399922,2005.5055360000115,2005.505541499937,2007.022042900091,2008.0398997999728,e,9,0.5193366000894457,1,+10,609,8.138460180672057,0.09129356866413074,0.0666915729829487,1994350.0,-5.066903182008879,0.027690576099903552,0.008898711360330047,1997884.0,1.6985637846411947,0.05361613924583564,-0.030711963729008307,2139904.0,1999.9645033875129,1996.4305033875128,2141.984503387513
130,39,23,f,1,3,122.0,8,1,low,3 + 1 + 1 + 9 - 1,13,13,14,12,2009.556724499911,2011.5823500000408,2013.0975846000947,2018.115812799893,2018.657444099896,2018.6574494000524,2020.1736471001057,2021.1909908999223,q,13,0.5416313000023365,1,+1,610,-39.220208648962725,0.2989793953089106,1.8065816814324758,2007480.0,5.926257254984403,0.023434667854139946,-0.12609047741501533,2011014.0,15.351912956483513,-0.25363899269444623,-0.06253614917720696,2018088.0,2013.0945033875128,2009.5605033875129,2020.1685033875128
131,39,23,f,1,3,123.0,9,3,high,3 + 1 + 8 - 5 + 6,13,15,14,13,2022.7076224000195,2024.735114600044,2026.250285099959,2031.2684667001013,2032.865563699976,2032.8655691000167,2034.382907399908,2035.4005189000163,e,13,1.5970969998743385,1,+10,620,11.963577878302292,-0.11271188408621358,0.16880732855180303,2020632.0,-12.062014650626097,-0.03458229641046007,0.08233224223919788,2024166.0,14.965463544232904,-0.09716986482464884,-0.028165990855859135,2293103.0,2026.2465033875128,2022.712503387513,2295.183503387513
132,39,23,f,1,3,124.0,10,4,low,5 + 9 - 4 + 7 + 6,23,25,23,24,2036.91723989998,2038.9427775000224,2040.45803180011,2045.4780641999096,2045.937443600036,2045.9374486999584,2047.4539675998967,2048.4705823000986,w,23,0.459379400126636,1,+1,621,27.407597671997017,0.2421299069020666,-0.016718344575091137,2034840.0,-11.993921289287362,-0.21719714285718306,-0.054847145619078,2038376.0,6.90618989793041,0.1654491839059986,0.08613024533889346,2125968.0,2040.4565033875128,2036.9205033875128,2128.048503387513
133,39,23,f,1,3,125.0,11,4,low,9 + 8 - 5 - 7 + 6,11,11,10,13,2049.9881678000093,2052.012181800092,2053.527382900007,2058.545746000018,2058.9775908999145,2058.9775962000717,2060.494158599992,2061.5111680000555,q,11,0.4318448998965323,1,+1,622,-5.68654380342468,1.0450930372771348,-0.12154672255448018,2047910.0,25.37197448100455,-0.002141285499456913,0.043919795088433355,2051444.0,-17.480144108925188,-0.940986404090407,-0.1230409006968669,2209097.0,2053.524503387513,2049.990503387513,2211.1775033875133
134,39,23,f,1,3,126.0,12,3,high,8 - 7 + 9 + 1 + 4,15,15,14,16,2063.0278684999794,2065.054660599912,2066.5698154000565,2071.588093300117,2072.177482899977,2072.1774879998998,2073.693960600067,2074.7111418999266,q,15,0.5893895998597145,1,+10,632,-26.206548217017914,-0.05605142896058313,-0.004109418172481449,2060952.0,1.7602591949057853,-0.028464523074317682,0.0182339478902116,2064486.0,-10.933540811255895,-0.4497608889847875,0.022028930423938275,2385735.0,2066.566503387513,2063.0325033875133,2387.815503387513
135,39,23,f,1,3,127.0,13,4,high,7 + 6 + 8 - 4 + 5,22,22,23,21,2076.227962299949,2078.252577499952,2079.767971900059,2084.786886099959,2086.3860621999484,2086.386067900108,2087.902371800039,2088.919693399919,q,22,1.5991760999895632,1,+10,642,-11.551106511812659,0.03779474282699402,0.04134918650842234,2074150.0,15.295038014298038,0.030754875887301747,-0.155689273463671,2077684.0,-20.52261900509819,0.46092753966098865,-0.019242382981735195,2225304.0,2079.7645033875133,2076.230503387513,2227.384503387513
136,39,23,f,1,3,128.0,14,3,low,8 + 6 - 7 + 1 - 4,4,4,3,5,2090.436320200097,2092.461772999959,2093.977122500073,2098.995665699942,2099.849496100098,2099.849501400022,2101.3659053999,2102.382888799999,q,4,0.8538304001558572,1,+1,643,20.268754418508916,0.030236704778227264,-0.30009615186370775,2088359.0,-1.9053771985371952,-0.12862958185862805,-0.01248365821680597,2091893.0,-46.35056590896882,0.38855444593658706,0.08121650577204709,2494943.0,2093.973503387513,2090.439503387513,2497.0235033875133
137,39,23,f,1,3,129.0,15,2,high,9 + 4 + 5 + 1 - 1,18,18,17,19,2103.9003246999346,2105.927374900086,2107.443080900004,2112.460805000039,2113.24954869994,2113.249554200098,2114.7660552999005,2115.783315700013,q,18,0.788743699900806,1,+10,653,20.510245553094272,0.227979388776391,-0.047561224898442944,2101825.0,-7.277673607850117,0.2675575228903031,0.0958273699201313,2105358.0,13.193377768831494,-0.1730516100485433,-0.13743415633156197,2153144.0,2107.4385033875133,2103.905503387513,2155.224503387513
138,39,23,f,1,3,130.0,16,4,high,5 + 8 - 6 + 7 + 4,18,17,19,18,2117.300243699923,2119.3262690999545,2120.8416226999834,2125.861641699914,2126.53750830004,2126.5375137999654,2128.0540040999185,2129.071160499938,e,18,0.6758666001260281,1,+10,663,27.74792332337336,-0.1438108447699129,0.009627785720888404,2115223.0,3.8307332973362236,0.03618691929243312,0.05955263625481799,2118759.0,-0.21723005759818825,0.27870189493673214,-0.04219098901399154,2239152.0,2120.839503387513,2117.303503387513,2241.232503387513
139,39,23,f,1,3,131.0,17,2,high,7 + 6 + 1 + 8 + 1,23,22,23,21,2130.5880623999983,2132.615221299929,2134.1305005000904,2139.1488145000767,2140.473586200038,2140.473591600079,2141.99013489997,2143.007316400064,w,23,1.3247716999612749,1,+10,673,2.3494317491884296,-0.10908671126819014,0.07349222725088911,2128512.0,15.124302735151465,0.15458197859567724,0.033335131970757104,2132046.0,-20.76371484877637,-0.2249890629091702,0.025469868253360062,2180536.0,2134.126503387513,2130.5925033875133,2182.616503387513
140,39,23,f,1,3,132.0,18,2,high,7 + 8 + 1 + 9 + 1,26,24,25,26,2144.52396390005,2146.54725760012,2148.062646900071,2153.081133699976,2153.713600900024,2153.713606199948,2155.2300243999343,2156.247464600019,e,26,0.6324672000482678,1,+10,683,-9.667830508217705,0.06253481287051299,0.05834675726185301,2142444.0,27.14791326838745,0.08259037449568662,-1.3011787294270432,2145978.0,-1.3810328969017194,0.4309952073908243,1.2067818980042329,2280080.0,2148.058503387513,2144.524503387513,2282.160503387513
141,39,23,f,1,3,133.0,19,1,high,6 + 9 + 1 + 1 - 1,16,15,14,16,2157.7642461999785,2159.791265100008,2161.3070058999583,2166.325033900095,2166.825537400088,2166.8255427000117,2168.3420432999264,2169.3593142000027,e,16,0.5005034999921918,1,+10,693,8.580939146298507,-0.06229223148853169,0.02436971589333159,2155688.0,0.3564946812027845,-0.1587694252297629,0.0037654732066363383,2159222.0,-14.408188117977838,0.3687448520660759,0.19407287091182313,2166256.0,2161.3025033875133,2157.768503387513,2168.336503387513
142,39,23,f,1,3,134.0,20,2,high,5 + 1 + 7 - 6 + 1,8,8,6,7,2170.8760643000714,2172.9016525000334,2174.416954099899,2179.435705699958,2181.105618200032,2181.105623600073,2182.621944499901,2183.639063599985,q,8,1.6699125000741333,1,+10,703,27.39849177800434,0.024754096620846155,-0.024541891818258943,2168799.0,15.618500001831116,-0.23929927712597898,0.09532936910991707,2172332.0,-2.1734337758176148,0.47438258163427793,0.08957763263330465,2306176.0,2174.412503387513,2170.879503387513,2308.256503387513
143,39,23,f,1,3,135.0,21,1,low,7 + 1 + 4 + 1 - 1,12,13,12,14,2185.1560045001097,2187.1815571000334,2188.6965928000864,2193.7148059001192,2194.161568999989,2194.161574200029,2195.677997400053,2196.694825100014,w,12,0.4467630998697132,1,+1,704,-17.05372010845006,-0.44058688608735164,0.346060991727986,2183078.0,-2.1534658701263645,-0.22519086209085737,-0.5247157261718769,2186612.0,-12.900792350983679,-0.04489412557281103,-0.010122591796231761,2193592.0,2188.692503387513,2185.158503387513,2195.672503387513
144,39,23,f,1,3,136.0,22,4,low,7 + 6 - 4 + 9 - 5,13,14,13,12,2198.21246680012,2200.2382072000764,2201.753211400006,2206.7716620999854,2209.6657976999413,2209.665804800112,2211.1833226999734,2212.200127700111,w,13,2.8941355999559164,1,+1,705,-0.8448290793032953,0.25758923555643554,0.12467056045269342,2196135.0,-33.11494290187965,0.07311274134827928,-0.13516698606994249,2199668.0,3.0110478561858782,-0.15666529030904996,0.08006165451874447,2266512.0,2201.748503387513,2198.2155033875133,2268.5925033875133
145,39,23,f,1,3,137.0,23,4,low,5 + 7 - 4 + 6 + 9,23,25,23,24,2213.7167368999217,2215.7413025000133,2217.256527800113,2222.275128199952,2225.8735795998946,2225.87358470005,2227.3902813000605,2228.4065841000997,w,23,3.59845139994286,1,+1,706,14.05490152368733,0.2885955530888924,0.18634593248733133,2211638.0,-0.4423042413417839,-0.04605355717325876,-0.1622324070990031,2215172.0,-20.723132971382928,-0.025272358199602607,0.0273865840552443,2398975.0,2217.252503387513,2213.718503387513,2401.055503387513
146,39,23,f,1,3,138.0,24,4,high,3 + 8 - 4 + 9 + 6,22,22,23,21,2229.923185300082,2231.949333800003,2233.464753800072,2238.4839252000675,2239.7216042999644,2239.72161030001,2241.2380759001244,2242.255009500077,q,22,1.2376790998969227,1,+10,716,-8.462427673996224,-0.42343904774363494,0.09938941331509876,2227845.0,7.041190227151718,0.2723676761801892,-0.20542667298945028,2231380.0,5.21324259990763,0.20491953101629967,0.0786454210481704,2510446.0,2233.460503387513,2229.925503387513,2512.526503387513
147,39,23,f,1,3,139.0,25,1,low,5 + 8 - 1 + 1 + 1,14,16,12,14,2243.7716018999927,2245.798366900068,2247.3135999001097,2252.3325133000035,2252.897708500037,2252.8977139999624,2254.4143642000854,2255.431203699904,e,14,0.5651952000334859,1,+1,717,10.901069611583434,-0.34447965377053036,-0.7032730493525028,2241695.0,20.714131422807696,-0.15256058207642686,-0.09041029347918039,2245229.0,-18.71843211516049,-0.1559513974560356,0.005303586375749791,2252328.0,2247.309503387513,2243.7755033875133,2254.408503387513
148,39,23,f,1,3,140.0,26,4,low,6 + 7 + 9 - 3 + 5,24,23,22,24,2256.947931200033,2258.9747260001022,2260.489979200065,2265.508189700078,2267.0816796999425,2267.0816852001008,2268.598554200027,2269.615713800071,e,24,1.5734899998642504,1,+1,718,20.050745629544757,0.041081425925479476,-0.008491798211501811,2254871.0,-35.424850822300044,-0.2515023552101763,-0.30471508878609166,2258405.0,-2.1451727023252047,0.08763151629237509,0.2071435662202139,2576623.0,2260.4855033875133,2256.951503387513,2578.703503387513
149,39,23,f,1,3,141.0,27,2,high,9 + 5 - 6 + 1 - 1,8,7,8,9,2271.132483700057,2273.156854900066,2274.672061099904,2279.6898282999173,2280.6497086999007,2280.649715000065,2282.166294200113,2283.1834891999606,w,8,0.9598803999833764,1,+10,728,-6.801156261387976,0.2123464085770097,0.09584053395215242,2269053.0,9.509595246914229,-0.2912170711252817,-0.09906545172905856,2272586.0,-1.2358888340145078,0.3152683940143812,0.04061289045419736,2413279.0,2274.666503387513,2271.133503387513,2415.359503387513
150,39,23,f,1,3,142.0,28,3,high,4 + 8 - 9 + 1 + 7,11,11,9,13,2284.7002123000566,2286.728058299981,2288.2430368999485,2293.261991499923,2293.673723499989,2293.6737287000287,2295.1899995000567,2296.20719789993,q,11,0.4117320000659674,1,+10,738,-35.02296966503586,0.3061130127055529,-0.05676357369626861,2282624.0,-7.898473968891771,0.1563910064390468,-0.10388764169914366,2286158.0,6.584466976404572,0.06654135500672043,0.018837497131617198,2536839.0,2288.238503387513,2284.704503387513,2538.919503387513
151,39,23,f,1,3,143.0,29,2,high,9 + 6 + 1 + 7 + 1,24,25,24,23,2297.723869800102,2299.7507452999707,2301.2659076000564,2306.2837628000416,2306.7457238999195,2306.745729499962,2308.2622865999583,2309.2800574,w,24,0.4619610998779535,1,+10,748,16.07774072502377,0.08624518018483185,0.0002673949583074098,2295647.0,-2.1559438055171425,-0.60458026521313,0.19026642741947786,2299180.0,17.11015377652833,-0.17362946799607704,0.2212476443980247,2523638.0,2301.260503387513,2297.727503387513,2525.718503387513
152,39,23,f,1,3,144.0,30,1,low,7 + 1 + 4 + 1 - 1,12,12,13,11,2310.796535599977,2312.8222568999045,2314.337655799929,2319.35684449994,2319.9856700999662,2319.985675300006,2321.5017015999183,2322.5184251999017,q,12,0.6288256000261754,1,+1,749,-8.726917267077164,0.02553397930494805,-0.00707697266475904,2308718.0,-2.4809365944210526,-0.3133424443074908,0.4444574165480646,2312253.0,-0.8584778030558127,0.08901629625940632,0.0915114889635229,2319415.0,2314.3335033875132,2310.798503387513,2321.495503387513
153,39,23,f,1,3,145.0,31,1,low,2 + 1 + 9 + 1 - 1,12,12,13,11,2324.0353439999744,2326.059279900044,2327.5743561000563,2332.592916999944,2333.137667600065,2333.1376724999864,2334.654310700018,2335.6714498999063,q,12,0.5447506001219153,1,+1,750,15.916259484279983,0.18560349366743356,-0.015116038402844145,2321955.0,-0.3788894915848573,-0.3858163352615027,-0.12283850037256494,2325489.0,46.92312499255425,0.2653594548145888,0.08683081744009735,2332567.0,2327.569503387513,2324.035503387513,2334.647503387513
154,39,23,f,1,3,146.0,32,2,low,6 + 1 + 1 + 7 - 9,6,4,8,6,2337.1891153999604,2339.2176524999086,2340.7327926999424,2345.7508318000478,2346.753703400027,2346.753708400065,2348.2698033000343,2349.2866907001007,w,8,1.0028715999796989,0,+0,750,-13.418315185471055,-0.5958975545013714,-0.07152315069557869,2335113.0,-7.959900218272294,-0.5747217415660169,0.15569332969394112,2338647.0,12.551451919662476,-0.24020299233643616,0.18179537917437827,2589639.0,2340.727503387513,2337.193503387513,2591.719503387513
155,39,23,f,1,3,147.0,33,1,low,8 + 1 + 1 - 1 - 4,5,6,5,3,2350.8034214000218,2352.829449400073,2354.344799600076,2359.3626677999277,2359.873745399993,2359.8737508999184,2361.3906721000094,2362.407574699959,w,5,0.5110776000656188,1,+1,751,18.55924346791354,-0.5014756209226472,-4.462820994648246,2348725.0,-0.02375447225013616,-0.19871078089257077,0.10092642188437129,2352259.0,-3.0560967692142045,-0.015048701610197668,-0.023938277995761537,2359303.0,2354.339503387513,2350.805503387513,2361.383503387513
156,39,23,f,1,3,148.0,34,1,high,7 + 1 + 6 + 1 + 1,16,16,18,17,2363.9242976999376,2365.95136810001,2367.467413000064,2372.485194700072,2373.201718199998,2373.201723200036,2374.718322900124,2375.736324999947,q,16,0.7165234999265522,1,+10,761,19.987079846667502,0.09638677103770021,0.0843693481098029,2361847.0,14.674530834458647,0.14046263958654492,-0.8210442728830136,2365381.0,19.87799777203456,-0.010697401012123464,0.10536373495839446,2372631.0,2367.461503387513,2363.9275033875133,2374.711503387513
157,39,23,f,1,3,149.0,35,3,low,3 + 8 - 7 - 1 + 9,12,14,12,13,2377.253365099896,2379.2767833999824,2380.7914172001183,2385.8098649999592,2386.3057931000367,2386.305798500078,2387.822396900039,2388.8388753999025,w,12,0.4959281000774354,1,+1,762,5.440575833902848,0.010252780595960242,0.030393824897494648,2375173.0,13.352517284222499,0.029309261302314038,-0.039189499347496604,2378706.0,23.3494163128476,0.18971734816388297,-0.1205927565728464,2615934.0,2380.786503387513,2377.253503387513,2618.0145033875133
158,39,23,f,1,3,150.0,36,4,low,2 + 9 - 4 + 8 + 7,22,23,21,22,2390.355985899921,2392.3841890001204,2393.9001583000645,2398.920848400099,2399.545813899953,2399.545820000116,2401.062586999964,2402.079484099988,e,22,0.6249654998537153,1,+1,763,-7.8973511788799895,0.262568994244484,0.06474889187727073,2388280.0,25.40404803028102,0.20139938793732437,0.16458827512970453,2391817.0,7.540782250327123,0.22333423617914505,0.10069539533595684,2669390.0,2393.897503387513,2390.3605033875133,2671.470503387513
159,39,23,f,1,3,151.0,37,2,high,4 + 9 - 7 + 1 - 1,6,5,6,8,2403.596312999958,2405.6203552000225,2407.13566410006,2412.154413799988,2413.8497685000766,2413.849774000002,2415.3663025998976,2416.383496100083,w,6,1.695354700088501,1,+10,773,3.3184514952618933,-0.10769539550052265,0.032248952579325696,2401516.0,-12.825970666959506,-1.0958832830693388,-0.020223450541692056,2405050.0,-17.027151517043876,-0.25100268749766874,1.4320739801138545,2682526.0,2407.1305033875133,2403.596503387513,2684.606503387513
160,39,23,f,1,4,152.0,0,1,high,9 + 7 + 1 + 1 + 1,19,18,20,19,2460.158062200062,2462.1842857000884,2463.699454500107,2468.718894300051,2469.321773200063,2469.3217794001102,2470.8383732000366,2471.855532200076,e,19,0.6028789000120014,1,+10,783,-37.488302060521164,-0.6135207037914414,0.5779926037540133,2458080.0,5.403159848849432,0.19350205341119642,0.5338722247177956,2461614.0,5.54556584507254,-0.5091641508434321,-0.7876935385285901,2468751.0,2463.694503387513,2460.160503387513,2470.8315033875133
161,39,23,f,1,4,153.0,1,1,high,3 + 1 + 8 - 1 + 1,12,12,13,10,2473.372291200096,2475.3962805001065,2476.911459899973,2481.929534900002,2482.441868700087,2482.4418746999,2483.958493199898,2484.9759378000163,q,12,0.5123338000848889,1,+10,793,6.06762194380226,0.22185423818045935,-0.1210472924081325,2471292.0,-44.78351536649767,-0.11639008725914168,0.2662742009537673,2474825.0,27.306170455092285,-0.6206159451839262,-0.5414400359019851,2481871.0,2476.905503387513,2473.372503387513,2483.951503387513
162,39,23,f,1,4,154.0,2,3,low,2 + 1 + 9 - 7 + 6,11,13,11,12,2486.492705600104,2488.520121899899,2490.035836300114,2495.0541767000686,2495.513857499929,2495.5138630000874,2497.03046420007,2498.0475127000827,w,11,0.4596807998605072,1,+1,794,-7.816883371540634,0.1256677523132126,-0.15587650374179307,2484415.0,-4.5425874175877325,-0.03631281324159863,0.05888883757154284,2487949.0,-11.417082937942576,0.16815767432995665,-0.004194201244151152,2642550.0,2490.029503387513,2486.495503387513,2644.6305033875133
163,39,23,f,1,4,155.0,3,4,high,9 + 3 - 5 + 8 + 6,21,19,23,21,2499.564781199908,2501.590801199898,2503.1059409000445,2508.1243231000844,2511.0179091999307,2511.017915100092,2512.534074000083,2513.5512880999595,e,21,2.893586099846289,1,+10,804,-31.113027701317016,0.11824760063256212,0.11874777673127102,2497486.0,-19.1965344819425,0.28337076376777404,0.0901739893758966,2501019.0,4.6032752104525585,-0.0963878864128147,0.012174481660422565,2709757.0,2503.099503387513,2499.566503387513,2711.837503387513
164,39,23,f,1,4,156.0,4,2,low,4 + 7 + 1 + 1 - 8,5,4,5,7,2515.068083100021,2517.095273999963,2518.6105049001053,2523.628900900017,2524.209894800093,2524.2098997998983,2525.726200199919,2526.7428196999244,w,5,0.5809939000755548,1,+1,805,-17.019567253212777,-0.24178290462385776,-0.44637287049661567,2512991.0,1.6768965195011631,0.0680731096991476,0.037269335388193436,2516524.0,13.75009000856316,0.3841830309240226,0.6679244246669431,2722862.0,2518.604503387513,2515.071503387513,2724.942503387513
165,39,23,f,1,4,157.0,5,3,high,8 - 1 + 6 - 7 + 5,11,12,13,11,2528.259433900006,2530.288029999938,2531.80339320004,2536.8218668000773,2537.4098412999883,2537.409846900031,2538.926430700114,2539.94369450002,e,11,0.5879744999110699,1,+10,815,-39.11356658831727,0.03639167374188368,-0.4848195716059658,2526183.0,-13.822011064947237,1.0240854773569583,2.7448178788322792,2529717.0,-24.137943276494266,0.43124142001125243,0.05941034286717173,2696575.0,2531.797503387513,2528.263503387513,2698.655503387513
166,39,23,f,1,4,158.0,6,1,low,2 + 9 + 1 + 1 + 1,14,12,13,14,2541.4614665999543,2543.487596699968,2545.003309499938,2550.021046699956,2550.77795109991,2550.777956499951,2552.294645600021,2553.3115302999504,e,14,0.7569043999537826,1,+1,816,-0.32578705832766275,0.14620703883294794,0.25947486221393135,2539382.0,20.267567909652826,0.18402566122649677,0.047044486457723744,2542916.0,11.416357547242846,-0.11294546888212853,-0.5541964254247498,2550207.0,2544.9965033875133,2541.462503387513,2552.287503387513
167,39,23,f,1,4,159.0,7,1,high,2 + 1 + 1 + 9 - 1,12,13,11,12,2554.8288191000465,2556.8544789999723,2558.3697067000903,2563.3878915999085,2563.9219722000416,2563.9219776000828,2565.438407700043,2566.4560604,e,12,0.5340806001331657,1,+10,826,4.100251662166073,0.21094365971011397,0.2916786837906411,2552750.0,6.423245950406782,0.12386475771095284,-0.1281139506094786,2556283.0,-6.2588899080403735,0.21483397011351713,0.07024414044580363,2563351.0,2558.363503387513,2554.830503387513,2565.431503387513
168,39,23,f,1,4,160.0,8,4,high,4 + 9 - 7 + 8 + 5,19,20,19,21,2567.972765299957,2569.996386700077,2571.5116729999427,2576.529901199974,2577.193960299948,2577.193966000108,2578.710472200066,2579.727563099936,w,19,0.6640590999741107,1,+10,836,0.6255797891061032,-0.18577136019773466,0.14582934285964044,2565892.0,4.103599488460059,0.26278466717823035,0.07820545272904633,2569425.0,5.130323210012921,0.38528791932274187,-1.1816498743445174,2735958.0,2571.5055033875133,2567.972503387513,2738.038503387513
169,39,23,f,1,4,161.0,9,2,high,9 + 1 + 6 + 7 + 1,24,23,24,25,2581.2447291999124,2583.270742200082,2584.785938899964,2589.8038369999267,2590.209947000025,2590.209952299949,2591.726592600113,2592.7438785000704,w,24,0.4061100000981241,1,+10,846,-12.838093360822842,0.3039216004174006,1.4038154437421855,2579166.0,9.91535041792546,-0.10986827092840468,0.09309699290093221,2582699.0,-2.202028468757586,0.5349523373528129,-0.09918957358416614,2885109.0,2584.779503387513,2581.2465033875133,2887.189503387513
170,39,23,f,1,4,162.0,10,1,low,6 + 1 + 8 + 1 - 1,15,14,15,13,2594.260669799987,2596.288169600069,2597.803101999918,2602.8212405999657,2603.27390010003,2603.273905399954,2604.7903734000865,2605.807247499936,w,15,0.4526595000643283,1,+1,847,26.41171950580522,-0.1325699161408087,0.017104459159216434,2592183.0,9.008714867450713,0.03562919803245013,0.009371140645081155,2595716.0,1.399328835743999,-0.129677921372501,-0.057726484922744126,2602702.0,2597.796503387513,2594.263503387513,2604.7825033875133
171,39,23,f,1,4,163.0,11,3,low,6 - 1 + 7 - 8 + 9,13,13,12,11,2607.3242965999525,2609.349361700006,2610.865517599974,2615.8841480999254,2616.5059187998995,2616.5059241000563,2618.0222819000483,2619.039105199976,q,13,0.6217706999741495,1,+1,848,-21.681030240308143,0.031072518859102782,-0.12422136874162626,2605244.0,5.905334109729426,5.10465374031749,5.5504680349036475,2608779.0,19.547842449203937,-0.11359925884827238,2.005901784705354,2815285.0,2610.859503387513,2607.3245033875132,2817.365503387513
172,39,23,f,1,4,164.0,12,1,low,4 + 9 + 1 - 1 - 1,12,11,13,12,2620.5557540999725,2622.5827560001053,2624.097847800004,2629.115994299995,2629.754065300105,2629.7540710999165,2631.270595300012,2632.287569399923,e,12,0.638071000110358,1,+1,849,23.27378050539142,0.05055412901181011,0.02762953309659233,2618478.0,7.5412465187866005,0.02403791419466117,-0.13086070599026467,2622011.0,-5.88225202274325,0.33375712382606526,0.30152961953833435,2629182.0,2624.091503387513,2620.558503387513,2631.262503387513
173,39,23,f,1,4,165.0,13,3,low,2 + 1 + 9 - 4 + 6,14,15,16,14,2633.8043796001,2635.8305907999165,2637.3460359999444,2642.3644385000225,2643.12202219991,2643.1220275999517,2644.638545700116,2645.655303699896,e,14,0.7575836998876184,1,+1,850,-0.18213045504926395,-0.2427814403371853,-1.6587299676993834,2631725.0,-3.2926803588849296,0.06504745114689792,0.0200915980653793,2635259.0,-18.777415635233996,-1.3319741101711848,1.178975514869188,2845718.0,2637.339503387513,2633.805503387513,2847.798503387513
174,39,23,f,1,4,166.0,14,1,high,7 - 1 + 8 + 1 - 1,14,14,12,13,2647.1721328999847,2649.196263999911,2650.71136600012,2655.729857600061,2656.34594410006,2656.3459493999835,2657.8623204999603,2658.8798344000243,q,14,0.616086499998346,1,+10,860,11.987256138439092,-0.22765437310258685,0.050101758838753785,2645091.0,16.063823999945313,0.09907519835764766,-0.030923626234886203,2648625.0,21.955547766475377,-0.15849724466989068,-0.21917556875938216,2655774.0,2650.705503387513,2647.171503387513,2657.854503387513
175,39,23,f,1,4,167.0,15,4,high,3 + 8 - 4 + 9 + 7,23,22,24,23,2660.396192899905,2662.422431899933,2663.938057600055,2668.956372000044,2669.9619356999174,2669.961941200076,2671.478450200055,2672.495624100091,e,23,1.0055636998731643,1,+10,870,-12.186754730731293,-0.05362532940680298,0.17156505513171272,2658317.0,-3.69660520171427,0.009976197572498346,-0.042471002901378174,2661851.0,31.876815865960097,-0.7624648608324303,1.2557383906390887,2749150.0,2663.931503387513,2660.397503387513,2751.230503387513
176,39,23,f,1,4,168.0,16,2,high,6 + 1 + 1 + 7 - 9,6,4,6,8,2674.012134199962,2676.039491500007,2677.554181900108,2682.572302599903,2683.0980307001155,2683.0980362999253,2684.614523400087,2685.6316341001075,w,6,0.5257281002122909,1,+10,880,24.093584041613614,0.131784751302515,-0.025980381956286713,2671934.0,15.198981176262338,0.2438548849217188,-0.05714639671713506,2675467.0,31.70433136775977,-0.5085430311835117,1.7832400622067277,2898260.0,2677.547503387513,2674.0145033875133,2900.3405033875133
177,39,23,f,1,4,169.0,17,3,high,4 + 7 + 1 + 9 - 5,16,16,17,18,2687.148301899899,2689.175071799895,2690.6900619999506,2695.7102375999093,2697.1460212999955,2697.146026799921,2698.663085799897,2699.68032569997,q,16,1.4357837000861764,1,+10,890,-25.52305301492261,0.12938599152247132,-0.08079215791617989,2685069.0,-19.38347778096484,0.03578792189317692,-0.09645705341198996,2688605.0,12.098118735230656,-0.48134511693348836,0.04920767748959243,2858805.0,2690.685503387513,2687.149503387513,2860.885503387513
178,39,23,f,1,4,170.0,18,4,low,8 + 4 + 7 - 5 - 6,8,9,8,6,2701.19702959992,2703.22387690004,2704.738977900008,2709.7575260000303,2710.329992600018,2710.329997899942,2711.846356299938,2712.863246599911,w,8,0.5724665999878198,1,+1,891,-43.910083486019424,0.30626103892131606,-0.41496616894908467,2699119.0,-5.623448000076568,0.04296049058662055,0.01403952958225485,2702652.0,11.542085617577632,0.32948894221205105,0.987909224296474,2775749.0,2704.732503387513,2701.1995033875132,2777.829503387513
179,39,23,f,1,4,171.0,19,2,high,8 + 1 + 1 + 9 - 4,15,15,14,16,2714.38098570006,2716.404690100113,2717.9198590999003,2722.9373753999826,2723.434044900117,2723.434050400043,2724.950564699946,2725.9676836999133,q,15,0.4966695001348853,1,+10,901,13.008403197430926,0.2707673541169924,0.09034456560984028,2712299.0,7.606094799858276,0.3290257097926279,0.2748719767958048,2715832.0,7.316164922541098,-0.3743627898243487,0.07734115851235446,2911974.0,2717.912503387513,2714.379503387513,2914.0545033875133
180,39,23,f,1,4,172.0,20,4,high,6 + 9 + 7 - 3 - 5,14,14,13,12,2727.484622699907,2729.512617399916,2731.0278932999354,2736.0463221000973,2736.5300680999644,2736.530073800124,2738.0462851000484,2739.0635333999526,q,14,0.4837459998670965,1,+10,911,3.993904797224751,-0.17300662159794067,-0.08606635974521959,2725407.0,-5.999143206159399,-2.081877485566732,-6.8006970289925235,2728941.0,-39.513464001024786,0.00805428634829397,-0.0940153889310118,2802039.0,2731.021503387513,2727.4875033875132,2804.1195033875133
181,39,23,f,1,4,173.0,21,4,high,7 + 6 - 9 + 8 - 3,9,7,9,8,2740.5800171999726,2742.6039138999768,2744.1202338999137,2749.140477299923,2749.7221907000057,2749.72219650005,2751.2386763000395,2752.255901100114,w,9,0.5817134000826627,1,+10,921,-28.77299805222075,-0.6415729944693678,-0.009383512201304622,2738498.0,-9.187010412237079,0.3355453004923392,-0.05124037591201702,2742034.0,-6.3661556678201805,0.11270508415626868,0.14756771382024314,2832222.0,2744.114503387513,2740.578503387513,2834.3025033875133
182,39,23,f,1,4,174.0,22,1,high,2 + 9 + 1 + 1 + 1,14,12,14,13,2753.772745199967,2755.795034900075,2757.3101550999563,2762.327941399999,2763.050100800116,2763.050106300041,2764.56729190005,2765.5846098000184,w,14,0.7221594001166523,1,+10,931,16.46596045866351,0.006423954237254836,-0.18553906747647608,2751689.0,-22.411788558142632,-0.44249913282613695,0.35370013169240355,2755222.0,5.03256181455404,-0.9961057977110941,-0.822488798632234,2762479.0,2757.3025033875133,2753.769503387513,2764.559503387513
183,39,23,f,1,4,175.0,23,4,low,2 + 9 - 6 + 8 - 4,9,9,7,11,2767.1018320999574,2769.129773600027,2770.6449082999025,2775.663380200044,2776.3220756000374,2776.3220812999643,2777.838620400056,2778.855484799948,q,9,0.6586953999940306,1,+1,932,3.0718356563148355,0.25543790927966414,0.250942872249762,2765024.0,10.514515048889752,0.1813384685469721,0.1116131590151197,2768557.0,5.690895738378851,0.10700637413437741,0.09776899865163569,3011116.0,2770.637503387513,2767.104503387513,3013.196503387513
184,39,23,f,1,4,176.0,24,1,low,9 + 1 + 1 + 7 - 1,17,16,17,19,2780.3728195999283,2782.398726700106,2783.914067100035,2788.9342986999545,2789.5141086999797,2789.514114300022,2791.0308731000405,2792.0479480000213,w,17,0.5798100000247359,1,+1,933,25.613334373072757,-0.015257650246374155,0.31046685112663575,2778293.0,-0.4017362757288634,0.31246560615432717,0.06237111667324635,2781828.0,26.383142168331315,-0.04245913822010161,0.4780616102890638,2788942.0,2783.908503387513,2780.373503387513,2791.022503387513
185,39,23,f,1,4,177.0,25,4,high,8 + 7 - 4 + 5 + 9,25,26,24,25,2793.564643499907,2795.5921813999303,2797.107354100095,2802.125713200076,2802.610170900123,2802.6101764000487,2804.1272352000237,2805.144687399966,e,25,0.484457700047642,1,+10,943,-7.118143797280833,0.027666875522236012,0.07042085580751944,2791486.0,11.518150381836827,-1.7820012706037147,-4.0268054769255155,2795020.0,,,,,2797.100503387513,2793.566503387513,
186,39,23,f,1,4,178.0,26,3,high,2 + 9 - 3 + 4 + 1,13,11,13,14,2806.6611283000093,2808.6853030000348,2810.2005072999746,2815.2187020999845,2815.85805410007,2815.858059399994,2817.3744685000274,2818.391734899953,w,13,0.639352000085637,1,+10,953,-21.01754385734959,0.1838844440060643,0.40729916031821944,2804579.0,-26.830436383898412,0.3224039423663849,-0.11315618316289511,2808113.0,-3.93688590754096,0.07440717783139927,-0.48610202256846957,2940917.0,2810.193503387513,2806.6595033875133,2942.997503387513
187,39,23,f,1,4,179.0,27,4,high,2 + 9 - 3 + 5 + 8,21,23,21,22,2819.9085103999823,2821.9305136001203,2823.4457304999232,2828.464140600059,2832.794060100103,2832.794065899914,2834.31090390007,2835.3282580999658,w,21,4.329919500043616,1,+10,963,-9.404282301298046,0.19354694249427817,-0.22726636865179817,2817824.0,5.100571824508339,0.29037523126256515,-0.06953397752060031,2821358.0,,,,,2823.4385033875133,2819.904503387513,
188,39,23,f,1,4,180.0,28,3,high,6 + 8 + 7 + 1 - 9,13,15,13,14,2836.8451767999213,2838.8697671000846,2840.3847443000413,2845.403037100099,2846.2901638001204,2846.2901689000428,2847.806885499973,2848.8238935999107,w,13,0.8871267000213265,1,+10,973,-7.791364434802013,-0.00741147339604975,0.4435396532444402,2834763.0,9.682389395170674,0.054718608052998885,0.0011933336943110717,2838297.0,-0.3375071557796936,-0.365669809395198,-0.11641058120969938,2967237.0,2840.377503387513,2836.843503387513,2969.317503387513
189,39,23,f,1,4,181.0,29,3,low,4 + 1 + 8 + 9 - 5,17,18,19,17,2850.3417813999117,2852.366529700113,2853.881678200094,2858.899763599969,2859.378179399995,2859.378184699919,2860.894810799975,2861.911774799926,e,17,0.4784158000256866,1,+1,974,-11.808996088449087,0.18102852219271215,-0.03277569848999118,2848260.0,8.117975276430347,0.27424112599588746,0.3919367192188199,2851793.0,,,,,2853.873503387513,2850.3405033875133,
190,39,23,f,1,4,182.0,30,1,high,8 + 1 + 1 + 1 - 3,8,8,6,9,2863.428464299999,2865.455198100069,2866.970457999967,2871.9889795999043,2872.50614339998,2872.5061488999054,2874.022319599986,2875.0392813999206,q,8,0.5171638000756502,1,+10,984,-12.3744255056768,-1.6080395420934006,-2.3222079054520557,2861349.0,14.202840306576142,0.18877569770518532,0.0431732389602304,2864882.0,-66.10403415698492,-0.14002512914613474,0.17272004356835757,2871933.0,2866.962503387513,2863.4295033875133,2874.013503387513
191,39,23,f,1,4,183.0,31,2,low,5 - 8 + 7 + 1 + 1,6,6,7,8,2876.555785800097,2878.5823908001184,2880.097696600016,2885.116166800028,2885.682119400008,2885.6821250000503,2887.198326600017,2888.214952700073,q,6,0.5659525999799371,1,+1,985,22.067847183272484,0.3061417163752873,-0.10883748557585293,2874476.0,9.41389068196426,-0.14898774501991774,-0.008939807174195513,2878010.0,8.37459458358921,0.5254356042156285,-0.2575327403228522,2925149.0,2880.0905033875133,2876.556503387513,2927.229503387513
192,39,23,f,1,4,184.0,32,2,low,5 + 8 + 1 - 1 + 9,22,21,22,23,2889.7319193999283,2891.755192999961,2893.2704243001062,2898.288632000098,2898.834155800054,2898.8341612999798,2900.3502174001187,2901.3671331000514,w,22,0.5455237999558449,1,+1,986,10.916196221399165,0.6662140301152619,0.10630723478571369,2887649.0,-8.612553470575246,0.08469180082606798,-0.04396591987036391,2891182.0,3.0613737357640076,-0.35566212860041224,1.5269374367133903,2954045.0,2893.262503387513,2889.729503387513,2956.125503387513
193,39,23,f,1,4,185.0,33,2,low,2 + 9 + 1 + 1 - 5,8,6,7,8,2902.8837643000297,2904.907270099968,2906.4224525999743,2911.440960299922,2912.5461663999595,2912.5461718000006,2914.063762800069,2915.0809949999675,e,8,1.1052061000373214,1,+1,987,30.4669215425183,-0.10750481037261483,-3.991178850946077,2900801.0,-15.67890033872244,-0.09270184709968143,0.0686957301932436,2904334.0,,,,,2906.414503387513,2902.881503387513,
194,39,23,f,1,4,186.0,34,2,low,7 + 6 + 1 - 1 - 8,5,3,4,5,2916.59767269995,2918.623352000024,2920.13827580004,2925.157653399976,2925.7222116000485,2925.722216800088,2927.238895900082,2928.256317799911,e,5,0.5645582000724971,1,+1,988,-6.343001984944826,0.09159690808970256,-0.016217252397077386,2914517.0,7.139813698913915,0.6419295444558641,1.107079809226419,2918051.0,,,,,2920.131503387513,2916.597503387513,
195,39,23,f,1,4,187.0,35,3,low,9 - 5 - 1 - 6 + 8,5,5,4,7,2929.772939400049,2931.800585200079,2933.315785899991,2938.3350611000787,2941.490246500121,2941.4902532999404,2943.00685929996,2944.023755900096,q,5,3.155185400042683,1,+1,989,-7.860066217742108,2.269127079297505,2.845393035906733,2927694.0,11.044284716443643,0.2823360437153557,-0.017014865868899776,2931228.0,,,,,2933.308503387513,2929.774503387513,
196,39,23,f,1,4,188.0,36,2,low,7 + 1 + 9 - 1 - 8,8,8,7,6,2945.539936400018,2947.564441200113,2949.0795962000266,2954.0978413000703,2954.6181973000057,2954.618202700047,2956.1349347999785,2957.1515174000524,q,8,0.5203559999354184,1,+1,990,-12.908717513928693,0.24181199122299946,-0.34757408160994396,2943457.0,6.2549830626922756,0.23097521556139355,-0.09382795905920971,2946991.0,,,,,2949.071503387513,2945.537503387513,
197,39,23,f,1,4,189.0,37,3,high,2 + 1 + 9 - 5 + 6,13,13,11,14,2958.668318399926,2960.693949900102,2962.211065599928,2967.229699299904,2967.810243200045,2967.8102486999705,2969.32670360012,2970.343957399949,q,13,0.5805439001414925,1,+10,1000,4.701764047068281,0.49034142403370273,-0.27984981507295714,2956587.0,-7.22794504500299,-0.12904314186387555,0.013133341030028056,2960123.0,,,,,2962.203503387513,2958.667503387513,
198,39,23,f,1,5,190.0,0,4,high,8 + 3 - 4 + 5 + 9,21,23,21,22,3002.03035799996,3004.054906199919,3005.570245299954,3010.5896123999264,3011.690228200052,3011.6902334000915,3013.206278699916,3014.2243367000483,w,21,1.1006158001255244,1,+10,1010,20.57123568920423,0.002791371227165662,-0.9370661187671003,2999948.0,18.832065136113407,0.20931665562932933,1.4518937877373057,3003482.0,,,,,3005.562503387513,3002.028503387513,
199,39,23,f,1,5,191.0,1,1,low,3 + 1 + 1 + 8 - 1,12,13,12,14,3015.7411964000203,3017.767158099916,3019.2824035999365,3024.300359399989,3024.730314400047,3024.730319800088,3026.2468437999487,3027.2634550000075,w,12,0.4299550000578165,1,+1,1011,29.67455803000347,0.11195377785387972,-0.044824913784062614,3013660.0,5.962724462915215,0.03903433261085487,0.14733491082963845,3017193.0,20.73504680376827,0.41169472522999273,1.902014718101403,3024156.0,3019.2735033875133,3015.740503387513,3026.236503387513
