,id,age,sex,cued,block,trial,trialinblock,efflev,rewlev,calc,corAns,option1,option2,option3,tstart,ITI1Time,probTime,respTime,selectTime,ITI2Time,fbTime,ITI3Time,key_press,chosenAns,RT,acc,feedback,total_points,cuescr,cuecor,cuezyg,cuetime,probscr,probcor,probzyg,probtime,fbscr,fbcor,fbzyg,fbtime,probtime_c,cuetime_c,fbtime_c
0,3,21,Female,0,Practice,,0,1,0,4 + 1 + 9 + 1 + 1,16,15,14,16,151.34112009999808,,151.34112219999952,156.46011290000752,158.65729630000715,158.65730230000918,160.17367030000605,161.19547940000484,e,16.0,2.19718339999963,1,Correct,0,,,,,-25.832287460888825,0.38726068318145535,0.12015156025947027,53717.0,-12.16949764913618,-0.003597825972645019,-0.7163328793798922,62451.0,151.44709311000398,,160.18109311000399
1,3,21,Female,0,Practice,,1,1,0,3 + 1 + 1 + 8 - 1,12,12,10,11,162.71233200001006,,162.71233470000152,167.73309639999934,169.22530410000763,169.2253103999974,170.7416355000023,171.75907710001047,q,12.0,1.4922077000082936,1,Correct,0,,,,,7.253077519753132,0.5008279489856706,-1.325615810815112,64990.0,-8.801135303308579,1.1168622331767728,-2.7247763930846665,73015.0,162.72009311000397,,170.74509311000398
2,3,21,Female,0,Practice,,2,2,0,8 + 1 + 6 + 1 - 4,12,11,10,12,173.2770731000055,,173.2770782000007,178.29719870000554,179.08943490000092,179.08944150000752,180.6062558999984,181.62434639999992,e,12.0,0.7922361999953864,1,Correct,0,,,,,-10.838075645971493,0.10340514272142354,0.037462397846047324,75553.0,-55.4488855313643,0.07530340728676421,0.07185687946864627,82880.0,173.28309311000396,,180.61009311000396
3,3,21,Female,0,Practice,,3,2,0,9 + 4 - 6 + 1 - 1,7,6,5,7,183.14129140001023,,183.14129420000245,188.1603189000016,188.86544819999835,188.86545460000343,190.38196559999776,191.3988021999976,e,7.0,0.70512929999677,1,Correct,0,,,,,23.529406318859238,-0.668215084354852,0.3172432688107105,85416.0,-56.21091811516482,0.01360778879041824,-0.023190550187173198,92655.0,183.14609311000396,,190.385093110004
4,3,21,Female,0,Practice,,4,3,0,9 + 3 - 5 + 6 + 7,20,21,22,20,192.9154455000098,,192.91544830000203,197.93463879999763,198.79337539999688,198.79338160000043,200.30977550000532,201.3269289000018,e,20.0,0.8587365999992471,1,Correct,0,,,,,11.304636089988694,0.052431441002570356,0.1265789037154006,95191.0,-3.197553568288259,0.0031398256346308884,0.06434748581527816,102583.0,192.921093110004,,200.313093110004
5,3,21,Female,0,Practice,,5,3,0,2 + 1 + 9 - 7 + 6,11,11,9,10,202.84365370000887,,202.84365660000185,207.86258610000368,208.80937220000487,208.8093785000092,210.32596470000863,211.3439832000004,q,11.0,0.9467861000011908,1,Correct,0,,,,,4.372766896221398,0.7024265964641074,0.14589138476620556,105119.0,-6.859878004543347,0.07487616114357332,-0.005335719100630021,112600.0,202.849093110004,,210.330093110004
6,3,21,Female,0,Practice,,6,4,0,4 + 8 + 5 - 3 + 7,21,23,21,22,212.8607248000044,,212.86072769999737,217.8810755000013,218.54526910001005,218.5452748000098,220.06122470000992,221.07883520000905,w,21.0,0.6641936000087298,1,Correct,0,,,,,26.73899671720601,-0.34840033248678104,-0.05153493550824728,115137.0,7.718900536270131,0.32292038776928944,-0.03946868338096454,122335.0,212.86709311000396,,220.06509311000397
7,3,21,Female,0,Practice,,7,4,0,5 + 8 - 4 + 6 + 9,24,23,22,24,222.59560190000047,,222.5956049000088,227.61484980001117,228.3934031000099,228.3934095000004,229.91028670000375,230.9283209999994,e,24.0,0.7785532999987481,1,Correct,0,,,,,-37.93068648298966,0.4206200988469302,0.011402151720047105,124871.0,-35.456424617047155,-0.39947065681060323,0.03133204988690852,132184.0,222.60109311000397,,229.914093110004
8,3,21,Female,1,0,0.0,0,3,low,9 - 5 - 1 - 6 + 8,5,5,4,7,348.66309410000395,350.695166000005,352.2104413000052,357.2343484000012,358.703187600011,358.70319330001075,360.2196729999996,361.23648120000144,q,5.0,1.4688392000098247,1,+1,1,-8.791670129716874,0.905274544909993,-5.309475146970568,250950.0,25.496819067454553,0.9896567544811119,0.10100089033724968,254490.0,-1.7895913292687382,-1.133308756155622,4.424408134083246,262492.0,352.220093110004,348.68009311000395,360.222093110004
9,3,21,Female,1,0,1.0,1,1,high,6 + 9 + 1 + 1 - 1,16,14,16,15,362.7533226000087,364.7835271000076,366.2986063999997,371.3169599000103,371.9830807000108,371.98308580000594,373.49945110001136,374.5165665000095,w,16.0,0.666120800000499,1,+10,11,-29.64591607232108,0.2806371318869454,-0.3274743538121938,265039.0,-16.848146691858428,-0.13524346144671107,0.06662053980088256,268572.0,21.06900680756776,-0.9491650130609068,-0.007652370758494342,275772.0,366.30209311000397,362.76909311000395,373.50209311000395
10,3,21,Female,1,0,2.0,2,3,high,9 - 1 + 5 - 6 + 8,15,15,17,14,376.0328894999984,378.10548220000055,379.6206753000006,384.6381992000097,385.35113000001,385.3511364000005,386.8675820000062,387.88535820000106,q,15.0,0.712930800000322,1,+10,21,1.586416754503432,0.42781467452174304,-0.09631133696506833,278361.0,-39.265452298770285,0.6094460733606883,0.05483152988023399,281894.0,1.720666055591813,-0.599490638541309,0.7807703564815707,289141.0,379.62409311000397,376.09109311000395,386.871093110004
11,3,21,Female,1,0,3.0,3,3,low,7 + 5 + 9 + 1 - 6,16,16,15,14,389.4020681000111,391.42904650000855,392.943711800006,397.9619591000082,398.65508290000434,398.6550876999973,400.1714493000036,401.1882623999991,q,16.0,0.6931237999961013,1,+1,22,34.81888711691929,0.9859271387527162,-0.5522793046768921,291684.0,2.39596710973057,0.33132276237098335,-0.03362350675025216,295217.0,14.05073220306462,0.14676144740502028,0.5018626542849236,302443.0,392.94709311000395,389.414093110004,400.17309311000395
12,3,21,Female,1,0,4.0,4,3,low,2 + 1 + 9 - 7 + 6,11,12,11,13,402.704931500004,404.7291573000112,406.2441738000052,411.2623978000047,411.8790164000093,411.8790213000029,413.3955031000078,414.4123212999984,w,11.0,0.6166186000045855,1,+1,23,3.864887115574032,0.6369569471470982,-2.28046617876065,304985.0,-8.982493763680246,0.03433564266317113,0.011729072990445788,308518.0,3.4370302274663307,0.18955684661450256,0.014964547820323526,315667.0,406.24809311000394,402.715093110004,413.39709311000394
13,3,21,Female,1,0,5.0,5,2,low,5 - 8 + 7 + 1 + 1,6,6,8,7,415.9292169999972,417.9997873000102,419.5148748000065,424.53361280000536,425.1590951000108,425.1591000000044,426.67567700000654,427.6925620999973,q,6.0,0.6254823000053875,1,+1,24,-5.95109843684671,0.3106794227570342,-0.19155238614901982,318255.0,12.448925215207176,0.6547850595080309,-0.009167044747948605,321788.0,-5.6164834848563,-0.08781874868394635,-0.15924800882613788,328948.0,419.518093110004,415.98509311000396,426.67809311000394
14,3,21,Female,1,0,6.0,6,4,high,5 + 7 - 4 - 6 + 9,11,11,12,13,429.209193200004,431.2455417000019,432.7606764000084,437.7808732999984,439.5991798000032,439.5991849999991,441.1158372000064,442.1331261000014,q,11.0,1.8183065000048373,1,+10,34,28.54502398739582,0.14971449052260066,-0.007814776937739465,331501.0,2.991617587419171,0.9447981617282712,0.04555753667647244,335036.0,34.71496190654498,-0.20852198914223052,-0.019533551183874787,343388.0,432.76609311000396,429.23109311000394,441.11809311000394
15,3,21,Female,1,0,7.0,7,2,low,2 + 9 - 4 + 1 + 1,9,9,8,11,443.6497586000041,445.6753094000014,447.190479900004,452.2096673000051,452.8871578000108,452.8871632000082,454.40359990000434,455.42106090000016,q,9.0,0.6774905000056606,1,+1,35,20.05290821054017,0.04561014750920922,1.3749808102704884,345930.0,21.21638961592974,0.9525413974948451,-0.1720418297459223,349465.0,22.026853294023738,-0.4360288455638246,-0.03688428142798328,356675.0,447.19509311000394,443.66009311000397,454.405093110004
16,3,21,Female,1,0,8.0,8,3,low,8 - 7 + 9 + 1 + 4,15,14,15,16,456.93887540001015,458.9644019999978,460.4795521000051,465.4990028000029,466.0391391000012,466.0391440000094,467.5555974000017,468.5724549000006,w,15.0,0.5401362999982666,1,+1,36,-13.522091311482384,0.4030752965818305,0.007133694918508793,359219.0,19.617214419072376,1.3096008625317666,-0.005698669618384056,362754.0,-41.62148713966266,0.3492969837664841,-0.014029777529420695,369827.0,460.484093110004,456.94909311000396,467.55709311000396
17,3,21,Female,1,0,9.0,9,3,high,7 - 6 + 8 + 1 + 7,17,15,17,16,470.089169400002,472.11283959999855,473.6280221000052,478.64699200000905,479.1351333000057,479.1351380999986,480.6513945000042,481.66862989999936,w,17.0,0.4881412999966414,1,+10,46,31.045006030762934,0.637983580636166,-0.0011448201229944388,372368.0,-2.0603312863705607,-0.1397641164878003,0.07586339563027344,375902.0,1.1341521507013503,0.38678220423324117,-0.04722718791197611,382923.0,473.63209311000395,470.09809311000396,480.65309311000397
18,3,21,Female,1,0,10.0,10,4,high,5 + 8 - 6 + 7 + 4,18,17,18,19,483.1852923999977,485.20929690000776,486.7239387000009,491.7426036999968,492.2870719000057,492.28707700000086,493.8035920000111,494.8207631999976,w,18.0,0.5444682000088505,1,+10,56,0.6082051725217212,0.9607563607386771,-0.06128725458062734,385464.0,-27.49181117773479,-1.4453515595902449,-0.06403759495776518,388997.0,-8.06338807989373,-0.7160597792076082,0.004968839175748085,396076.0,486.727093110004,483.19409311000396,493.806093110004
19,3,21,Female,1,0,11.0,11,2,high,6 + 1 + 7 + 5 - 1,18,16,18,17,496.3376475999976,498.4110401000071,499.9264205000072,504.9451868000033,505.5030819000094,505.50308690000384,507.020107999997,508.0371441000025,w,18.0,0.5578951000061352,1,+10,66,28.06442293521439,1.1558623087533917,0.08244326037448202,398666.0,8.799988046259097,1.0042671188336603,-0.016564343844163387,402200.0,22.3313743875267,0.10605275073155163,0.7628901830596457,409292.0,499.93009311000395,496.39609311000396,507.02209311000394
20,3,21,Female,1,0,12.0,12,1,high,2 + 1 + 9 + 1 - 1,12,11,13,12,509.5539198000042,511.58161039999686,513.0965671000013,518.1148251999984,518.8472065000096,518.8472117000056,520.363308400003,521.3801741000061,e,12.0,0.7323813000111841,1,+10,76,47.30382666351635,-0.6154522878703865,-0.6864837900434302,411837.0,-18.723141819043605,-0.24027088909506844,0.19738162466883336,415370.0,-3.016834906229816,0.3728864347412566,0.6545394435911285,422635.0,513.100093110004,509.56709311000395,520.365093110004
21,3,21,Female,1,0,13.0,13,4,low,5 + 7 - 4 + 6 + 9,23,23,25,24,522.896934999997,524.9729929000023,526.4881390000082,531.5074475000001,532.4152255000081,532.415230300001,533.9318392999994,534.9487866999989,q,23.0,0.9077780000079656,1,+1,77,-6.530269360458451,0.7105711687595004,-0.00956770642363125,425228.0,19.369293313586308,0.5307894423513186,-0.001489955558854561,428761.0,-24.258366419895054,0.8891112423690024,-3.1392083019721455,436203.0,526.491093110004,522.958093110004,533.9330931100039
22,3,21,Female,1,0,14.0,14,3,low,6 - 1 + 7 - 8 + 9,13,12,11,13,536.4656420000101,538.4934225000034,540.0086145000096,545.0287437000079,545.7671666000097,545.7671718000056,547.2835822000052,548.3003899000032,e,13.0,0.7384229000017513,1,+1,78,1.6301847429944782,0.2664203892074779,-0.0722326796841164,438747.0,4.614772791447777,1.072401586209688,0.014079570381954287,442283.0,23.00000530173933,-0.881715549637891,0.13530560885296072,449555.0,540.013093110004,536.477093110004,547.285093110004
23,3,21,Female,1,0,15.0,15,1,high,5 + 1 + 1 + 6 + 1,14,14,16,13,549.8179284000071,551.842186000009,553.3573539000063,558.3749924000003,559.2872416000027,559.2872467999987,560.8036331000039,561.8212439000054,q,14.0,0.9122492000024068,1,+10,88,29.446761312553974,-0.8046173071569691,0.0643329380664126,452097.0,15.061020878499374,1.582731023767932,0.08426727478818163,455630.0,-26.332243663572125,-0.21401566313959863,-0.6762432957244648,463076.0,553.360093110004,549.827093110004,560.806093110004
24,3,21,Female,1,0,16.0,16,4,low,4 + 7 - 8 + 9 - 4,8,7,8,9,563.3378748000105,565.3654419000086,566.8802877999988,571.8987120000093,573.2072705000028,573.2072754999972,574.723748999997,575.7399748000025,w,8.0,1.3085584999935236,1,+1,89,-6.537984244675252,1.3314631736408526,0.07277399837748355,465620.0,18.108203861870372,0.40263441826178514,-0.07760238021337185,469153.0,-54.54530751905088,-1.8607793064196896,0.06919997449883075,476995.0,566.883093110004,563.350093110004,574.725093110004
25,3,21,Female,1,0,17.0,17,4,high,2 + 9 - 4 + 8 + 7,22,22,23,21,577.2566482000111,579.2848531000054,580.7999517999997,585.8183889000065,586.519214800006,586.5192198000004,588.035638500005,589.0528899000055,q,22.0,0.7008258999994723,1,+10,99,15.233914840676182,0.1418702769281195,2.288972715361835,479539.0,-3.995354769815722,0.9671827030571909,0.15370078953810706,483073.0,8.541884111441803,0.5975579370823865,-0.23498734362560758,490307.0,580.8030931100039,577.269093110004,588.037093110004
26,3,21,Female,1,0,18.0,18,1,low,7 + 1 + 4 + 1 - 1,12,12,11,13,590.5695822999987,592.5973176999978,594.1121511000092,599.130631100008,599.7751519000012,599.7751568000094,601.2914514000004,602.3080392999982,q,12.0,0.6445207999931881,1,+1,100,-32.11299656227844,-0.9548038793259885,-0.021691979203716683,492852.0,-25.570274966180435,1.5692717763554263,-0.1756145411295298,496385.0,1.0276058152408023,-1.0671894227794483,0.4340802447693395,503563.0,594.115093110004,590.5820931100039,601.293093110004
27,3,21,Female,1,0,19.0,19,4,high,5 + 7 - 4 - 6 + 9,11,12,13,11,603.8254820000002,605.8536430000095,607.3687657999981,612.3871852000011,613.007142500006,613.0071472999989,614.5236087000085,615.5409303000051,e,11.0,0.6199573000048986,1,+10,110,1.0705588815279903,0.9167962908302014,0.130354405489997,506108.0,17.936301091150668,1.6025345216684048,0.06299875102934505,509642.0,-6.91473586869461,-0.32929541283558006,-0.004344468163284265,516795.0,607.372093110004,603.838093110004,614.5250931100039
28,3,21,Female,1,0,20.0,20,4,high,6 + 7 + 9 - 3 + 5,24,23,22,24,617.0574086999986,619.0815281000105,620.5964254999999,625.6149395000102,626.3352435999986,626.3352490000107,627.851467600005,628.8683884000056,e,24.0,0.7203040999884252,1,+10,120,12.227907788409926,0.6733901184111142,-0.037782191847659075,519336.0,2.839146535303253,1.3734723827708502,0.040247022437253976,522869.0,7.877147646245765,0.5263943640652515,-0.3836862431118133,530123.0,620.599093110004,617.066093110004,627.853093110004
29,3,21,Female,1,0,21.0,21,3,high,5 + 6 - 4 - 1 + 8,14,14,16,15,630.3850831000018,632.4102953999973,633.9251748000097,638.9431946000113,639.7752460000047,639.7752509999991,641.2916511000076,642.3096962999989,q,14.0,0.832051399993361,1,+10,130,6.729904827531334,0.3788650031295244,0.4007938624731424,532665.0,-4.608466446136154,0.503793361751601,0.06248760099936157,536198.0,-17.814544555838886,0.486368143265528,-0.10909644215149861,543563.0,633.9280931100039,630.3950931100039,641.293093110004
30,3,21,Female,1,0,22.0,22,3,high,4 + 1 + 8 + 9 - 5,17,19,18,17,643.8263646999985,645.8532287999988,647.3682955999975,652.3865850000002,653.0632727000047,653.0632783000037,654.5804331000109,655.5982893000037,e,17.0,0.6766877000045497,1,+10,140,5.685205637171123,0.2137356022405621,0.11041548908101873,546107.0,-20.3845832749351,1.6745317835053624,-0.18748890225804526,549641.0,22.243140589195317,-0.259009744380962,-0.30305494789586307,556853.0,647.3710931100039,643.8370931100039,654.5830931100039
31,3,21,Female,1,0,23.0,23,3,high,3 - 7 + 5 + 1 + 9,11,13,12,11,657.1151143000025,659.1409005000023,660.6558647000056,665.6741948999988,666.7112439000048,666.7112484000099,668.2277037000022,669.2448999000044,e,11.0,1.0370490000059365,1,+10,150,-10.539249235224954,-0.03549975603118671,0.09277911166625619,559395.0,-5.251499063360464,0.523371356275387,-0.07460843243933768,562929.0,-27.9634670764685,-0.14501391657746776,-0.055677345926695265,570499.0,660.6590931100039,657.125093110004,668.229093110004
32,3,21,Female,1,0,24.0,24,2,low,4 + 9 + 1 - 7 - 1,6,5,6,8,670.7623657000076,672.7893834999995,674.3043196000071,679.3230420000036,680.0152323000075,680.0152374000027,681.5317200999998,682.5485432999994,w,6.0,0.6921903000038583,1,+1,151,7.595936736078916,-0.08342199549599094,-0.059943017602414495,573044.0,49.340629119143756,1.6683339461163538,-0.16480135220012748,576577.0,-10.324745884834833,0.36862135111264305,-0.5819860398731191,583803.0,674.307093110004,670.774093110004,681.533093110004
33,3,21,Female,1,0,25.0,25,3,low,4 + 5 - 3 + 7 - 1,12,12,13,11,684.0651663000026,686.0921768999979,687.6071017000068,692.6271341000102,693.2152974000055,693.2153026000015,694.7316792000056,695.7489963999978,q,12.0,0.5881632999953581,1,+1,152,19.228493256030134,0.5502529896854584,0.14314634658351744,586346.0,-6.663168689459205,1.307147133045099,-0.016916007046010373,589881.0,-18.92442121940735,0.11829200293538555,-0.030639763521064234,597003.0,687.6110931100039,684.076093110004,694.733093110004
34,3,21,Female,1,0,26.0,26,1,high,9 + 8 + 1 + 1 - 1,18,18,19,17,697.2653370000044,699.2898301000096,700.8048858999973,705.8227473000006,706.407314000011,706.4073191000061,707.9238273000083,708.9408949000062,q,18.0,0.5845667000103276,1,+10,162,43.43472511369083,-0.6618311672514441,-0.24096719327063054,599544.0,41.7263478251269,0.19390785741108196,0.032370592476125726,603077.0,-1.2451744479898306,0.22700075524705632,-0.03185268622127113,610195.0,700.807093110004,697.274093110004,707.925093110004
35,3,21,Female,1,0,27.0,27,1,low,7 + 1 + 5 + 1 - 1,13,13,14,12,710.457267500009,712.4850715000066,714.0002846999996,719.018658800007,719.7433344000019,719.7433399000001,721.2603295000008,722.2771519000089,q,13.0,0.7246755999949528,1,+1,163,3.0233771121587587,-0.007372001198620026,0.027211974346103895,612739.0,-0.8538044544558971,0.7902244639952647,0.01200555283721405,616273.0,-5.448387945400242,0.8884495325490587,0.5420595361700931,623531.0,714.003093110004,710.469093110004,721.2610931100039
36,3,21,Female,1,0,28.0,28,2,high,7 + 6 + 1 - 1 - 8,5,3,5,4,723.7942188000015,725.8219206000067,727.3370434000099,732.3551540000044,732.9913777000038,732.9913828999997,734.5080506000086,735.5251302000106,w,5.0,0.6362236999993911,1,+10,173,17.586809552849807,-0.8374221708467866,1.842187197677611,626076.0,18.740360215924294,0.12555748912400944,0.00707520265052608,629609.0,-1.3195879397239558,-2.28449648310667,0.10432241694803257,636779.0,727.339093110004,723.806093110004,734.509093110004
37,3,21,Female,1,0,29.0,29,3,low,9 + 3 - 4 + 6 + 7,21,22,23,21,737.0414523000072,739.0683474000107,740.583498500011,745.6016829,746.2472811000043,746.2472863000003,747.7632002000028,748.779967800001,e,21.0,0.645598200004315,1,+1,174,3.2653612825313303,1.0273238200586032,0.10942540758681285,639322.0,60.28627684740936,-0.2420608961479651,0.0029444603861548124,642856.0,-3.585930587253909,0.9028232446297393,-1.2221483673238807,650034.0,740.586093110004,737.052093110004,747.764093110004
38,3,21,Female,1,0,30.0,30,3,high,3 + 8 - 7 + 1 + 9,14,14,13,12,750.296645200011,752.3202662000112,753.8354882999993,758.8539741999994,759.4873942999984,759.4873996000097,761.004290900004,762.0213543999998,q,14.0,0.6334200999990571,1,+10,184,-20.481307799661508,0.7483470373117704,-0.0966716824860443,652574.0,-8.589390694158476,0.49279920478480577,0.03946816924683905,656108.0,-3.8616543965050276,-0.04838470241889592,0.09570444498098496,663276.0,753.8380931100039,750.3040931100039,761.0060931100039
39,3,21,Female,1,0,31.0,31,4,high,9 + 7 - 5 + 8 + 6,25,25,24,27,763.538540900001,765.5648538000096,767.0800000000017,772.0980626000091,772.7192425000103,772.719247400004,774.2357651000057,775.2533325999975,q,25.0,0.6211799000011524,1,+10,194,-9.079545296691695,-0.343441929354265,-0.06030494712707801,665819.0,-12.029566303835079,0.9124019057635504,0.25296505484279486,669352.0,-50.75764358164908,-1.1852489973440932,0.07057828575313319,676507.0,767.0820931100039,763.5490931100039,774.2370931100039
40,3,21,Female,1,0,32.0,32,1,low,7 + 1 + 4 + 1 - 1,12,13,12,11,776.7703449999972,778.7974912000063,780.3127787999983,785.3311723000079,786.015304600005,786.0153092999972,787.5323618000111,788.5492989000049,w,12.0,0.6841322999971453,1,+1,195,-16.180479026001173,-0.4253243443509689,-0.0651984087814863,679051.0,-32.08567492201114,-0.27680332063651747,0.011618358233115078,682585.0,20.091558687221866,0.47082864620664555,0.026207687229004017,689803.0,780.315093110004,776.781093110004,787.533093110004
41,3,21,Female,1,0,33.0,33,2,low,5 - 1 + 1 + 8 + 9,22,22,23,21,790.0659826000046,792.0931190999981,793.6081750000012,798.6263191000035,799.1512637999986,799.1512689000083,800.6676169999992,801.6842239999969,q,22.0,0.5249446999951033,1,+1,196,-6.486977900850017,-0.4953647754772392,-0.0048906957366263715,692347.0,5.719279420827203,-0.1213923279812068,-0.11888995220538523,695880.0,2.7395038320788743,0.5042504617421715,0.2668081749840523,702938.0,793.610093110004,790.077093110004,800.668093110004
42,3,21,Female,1,0,34.0,34,2,low,9 + 4 - 6 + 1 - 1,7,8,9,7,803.2009392000036,805.2246276000078,806.7397764000052,811.757849200003,812.3913279999979,812.3913333000091,813.9079319000011,814.9246818000101,e,7.0,0.6334787999949185,1,+1,197,35.90550126013774,0.5541786729861018,1.259916993884632,705478.0,0.9809974663214689,2.013146433873491,-0.05966374557904075,709012.0,42.37829650370402,-0.8734939662765182,0.009907419189215005,716178.0,806.7420931100039,803.2080931100039,813.908093110004
43,3,21,Female,1,0,35.0,35,1,high,5 + 6 + 1 + 1 + 1,14,15,16,14,816.4411325999972,818.4653837000078,819.9802370000107,824.9974880000082,825.5993219000084,825.599326800002,827.1152435999975,828.1314950000087,e,14.0,0.6018339000002015,1,+10,207,-64.14522728004405,-0.9831795586346468,-0.01993135378073352,718719.0,10.19081740593634,0.5707028074763159,-0.03693362093787966,722251.0,-7.053169604696286,0.9679084758614129,-0.16125316995992423,729386.0,819.9810931100039,816.449093110004,827.1160931100039
44,3,21,Female,1,0,36.0,36,4,high,5 + 6 - 4 + 7 + 9,23,23,24,25,829.6481723000034,831.6757146000018,833.191160900009,838.2093661000108,838.8553287000104,838.8553336000041,840.3718588000047,841.388955900009,q,23.0,0.6459625999996206,1,+10,217,-9.72054276117348,-0.11636227005124766,-0.19191396715282494,731929.0,28.243003391642443,-0.12066112497773496,0.014728985495213509,735463.0,-0.004932721945122509,-0.20658790157915607,-0.06727151827105549,742643.0,833.1930931100039,829.6590931100039,840.373093110004
45,3,21,Female,1,0,37.0,37,4,low,7 + 6 - 9 + 8 - 3,9,9,7,8,842.9062928000058,844.9322571000084,846.4474714000098,851.466050700008,852.2393428000069,852.2393478000013,853.755796700003,854.7723079999996,q,9.0,0.7732920999987982,1,+1,218,0.4708008043932139,0.6108585466151188,0.09243089415625394,745186.0,25.74979760863598,-0.20977242291926324,0.2559337051889139,748720.0,18.01136813840617,-1.7395932770535563,1.7247563579175307,756026.0,846.450093110004,842.916093110004,853.7560931100039
46,3,21,Female,1,1,38.0,0,2,low,8 + 1 + 9 + 1 - 5,14,14,15,13,876.8587151000102,878.8855523000093,880.4006029000011,885.4197567000083,885.9433628999977,885.9433677000052,887.4604320000071,888.4782075000112,q,14.0,0.5236061999894446,1,+1,219,-3.316804650500373,1.0399231691574378,-0.8756311905597038,779139.0,7.811293389478011,0.9444337235853366,0.05314686092560761,782673.0,15.333667687239245,0.2734060164611689,0.8893966831238913,789731.0,880.403093110004,876.869093110004,887.461093110004
47,3,21,Female,1,1,39.0,1,4,low,6 + 9 + 7 - 3 - 5,14,14,15,13,889.9961679999979,892.0222768000094,893.5377904000052,898.5570538000029,899.0793566000066,899.079361199998,900.5953960000043,901.612677099998,q,14.0,0.522302800003672,1,+1,220,6.648624544612385,-0.19949952707552132,-0.09629549194381326,792275.0,2.3834284679876596,2.3010041735678546,0.3563143707779326,795810.0,3.375148511241324,-0.11153366677133736,-0.48507090821718357,802866.0,893.5400931100039,890.0050931100039,900.596093110004
48,3,21,Female,1,1,40.0,2,1,low,2 + 1 + 1 + 9 - 1,12,11,13,12,903.1299679000076,905.1569363000016,906.6718985000044,911.690143300002,912.98339020001,912.9833950000028,914.5003436999978,915.517324200002,e,12.0,1.2932469000079436,1,+1,221,-0.21483818235324392,-0.28392722363271616,-0.35267665146433824,805410.0,-9.871073402440196,-0.06454192955203819,0.1621246493174504,808944.0,-10.494997108931473,-0.07709531534108116,-0.8542576494637135,816771.0,906.6740931100039,903.1400931100039,914.5010931100039
49,3,21,Female,1,1,41.0,3,3,high,3 + 8 + 1 + 5 - 9,8,9,8,7,917.0339422999969,919.0567856999988,920.5719307999972,925.5895355000102,926.2473792000092,926.2473838000004,927.7637773000024,928.7809201000056,w,8.0,0.6578436999989208,1,+10,231,-32.575724803213184,0.4122202715773051,-0.5199538888079185,819310.0,29.9210502574205,1.5207738256762369,0.17064975711072305,822843.0,-5.520011299094865,-0.22790264713515906,-0.00022882255406919683,830034.0,920.5730931100039,917.0400931100039,927.764093110004
50,3,21,Female,1,1,42.0,4,1,high,4 + 1 + 1 + 7 - 1,12,13,12,14,930.2976464000094,932.3248230000028,933.8396120000108,938.857920800001,939.3434351000031,939.3434399999968,940.860069500006,941.8774898999982,w,12.0,0.4855143000022508,1,+10,241,17.0800535886551,0.09561803852907858,-0.018830170883482156,832578.0,4.743850593905535,0.25676216375814054,0.09881361717934856,836111.0,12.545464922368627,-0.25127738046411796,0.010540709338067833,843131.0,933.841093110004,930.3080931100039,940.8610931100039
51,3,21,Female,1,1,43.0,5,1,low,8 + 1 + 1 + 1 - 4,7,8,5,7,943.394252500002,945.421070700002,946.9361701000016,951.9540606000082,953.055381500002,953.055386699998,954.572558800006,955.589759200011,e,7.0,1.1013208999938795,1,+1,242,30.63275925481743,-1.457165504166149,-0.010020703860163849,845674.0,17.156254188111895,-0.06718647030374925,0.046684968562740625,849207.0,12.149217744760755,-0.35680894452417,0.08060668074112831,856843.0,946.937093110004,943.4040931100039,954.5730931100039
52,3,21,Female,1,1,44.0,6,2,high,9 + 4 + 5 + 1 - 1,18,17,19,18,957.1061050999996,959.132963199998,960.6480893999978,965.666074000008,966.1753469000104,966.175352300008,967.6918758000102,968.709314000007,e,18.0,0.5092729000025429,1,+10,252,15.6234240872024,0.5650973074241561,-0.028356225563794135,859386.0,-7.098996565134385,0.19556920308689918,0.16292889442112268,862919.0,-49.39723123190285,-1.1912014363904087,-0.2800423923124149,869962.0,960.649093110004,957.1160931100039,967.692093110004
53,3,21,Female,1,1,45.0,7,1,low,5 + 8 - 1 + 1 + 1,14,12,16,14,970.2253927999992,972.2508672999976,973.7652272999984,978.7831942000048,979.4633940000058,979.4633988999994,980.9809391000016,981.997898600006,e,14.0,0.6801998000009917,1,+1,253,-3.937945448820175,-2.1833736638736525,-0.03606535362536034,872503.0,-7.218423386999074,1.4831365861613657,-0.11320952441467136,876036.0,-13.89222618547861,-1.9625614748042137,2.1640821361026226,883251.0,973.7660931100039,970.233093110004,980.9810931100039
54,3,21,Female,1,1,46.0,8,1,low,4 + 7 + 1 - 1 - 1,10,9,10,11,983.5144760000112,985.5391033000052,987.0552101000068,992.0745061000052,992.5754484000064,992.5754533,994.0921978999976,995.1090786999994,w,10.0,0.5009423000010429,1,+1,254,-49.903660142663185,-0.24986462269602328,-0.20332523804745617,885792.0,-0.7925609282392045,-0.08911077506798026,0.014846056586086842,889327.0,16.595899402800345,-0.27714753569056505,0.023246259234546596,896362.0,987.057093110004,983.522093110004,994.0920931100039
55,3,21,Female,1,1,47.0,9,3,low,3 + 8 - 7 - 1 + 9,12,13,14,12,996.6254969,998.6518713999976,1000.1661126000108,1005.1851813000104,1005.7755074000016,1005.7755126999982,1007.2921867999976,1008.3094587000088,e,12.0,0.5903260999912163,1,+1,255,6.913375746574806,0.6656926280426116,0.12974228550066091,898905.0,25.771462535297093,0.7774176568657696,-0.07950142627331558,902438.0,21.74294472596296,-1.263555690983341,0.15673695854310132,909562.0,1000.168093110004,996.6350931100039,1007.292093110004
56,3,21,Female,1,1,48.0,10,1,high,8 + 1 + 5 + 1 + 1,16,15,16,17,1009.8267138000084,1011.850559700004,1013.3654890000034,1018.3843079000072,1019.0873729000014,1019.0873774000064,1020.6036074000004,1021.6207883000023,w,16.0,0.7030649999942398,1,+10,265,6.4197166597229725,-0.007181159236006707,-0.029360292822655065,912103.0,-30.054364011257757,-0.46374580490531603,0.08196691345963103,915637.0,-4.837399347968841,0.13872303562827693,0.05228462388088673,922874.0,1013.3670931100039,1009.8330931100039,1020.604093110004
57,3,21,Female,1,1,49.0,11,2,low,6 + 1 + 8 + 5 - 1,19,17,19,18,1023.1373924000072,1025.1609832000104,1026.6763352999988,1031.694420900007,1032.1834505000006,1032.183455799997,1033.6998986000108,1034.7166986000084,w,19.0,0.4890295999939553,1,+1,266,21.482662027653042,0.005477749493455697,0.1251675015656859,925414.0,7.113137236387706,0.6720511135691432,-0.12898269208187618,928947.0,25.616192823424544,-0.8662551504625426,1.9801056608793428,935970.0,1026.677093110004,1023.144093110004,1033.700093110004
58,3,21,Female,1,1,50.0,12,4,high,5 + 9 - 4 + 7 + 6,23,25,23,24,1036.2329409000083,1038.2587313000113,1039.7750053000054,1044.7936387000082,1045.5514762000091,1045.5514812000038,1047.0677716000064,1048.0853750000097,w,23.0,0.7578375000011874,1,+10,276,-6.2194398127311405,-0.5648692226186691,-1.0442200829211075,938512.0,7.562805970296191,-0.3359617972792881,0.13896805175790217,942046.0,10.52591904733009,0.1369990373177945,0.012463483602714875,949338.0,1039.776093110004,1036.242093110004,1047.068093110004
59,3,21,Female,1,1,51.0,13,3,low,4 + 1 + 8 + 9 - 5,17,17,18,19,1049.6019819000066,1051.6269509999984,1053.1420734999992,1058.1601749999973,1058.8233967999986,1058.8234015000053,1060.3398271000042,1061.3567327000055,q,17.0,0.6632218000013381,1,+1,277,-3.4593445040214768,0.564809617338125,-0.021345886750644194,951880.0,6.20570950801606,0.6436016460505094,-0.032384799466234515,955413.0,17.77407440099654,-0.9509292375959975,0.02319247688674575,962609.0,1053.143093110004,1049.610093110004,1060.3390931100041
60,3,21,Female,1,1,52.0,14,1,high,6 + 1 + 1 + 7 - 1,14,13,14,12,1062.8733034000034,1064.9001323999985,1066.4146423000057,1071.4325011000035,1072.3594696000073,1072.3594746000017,1073.876366299999,1074.893556199997,w,14.0,0.926968500003568,1,+10,287,23.15989825803143,-0.38881457288473253,-0.040210566958590155,965153.0,25.26395385081949,-0.7135227095317225,-0.1187533986626077,968686.0,-15.61987843385543,0.5289183560813626,-0.37010374466696017,976146.0,1066.416093110004,1062.883093110004,1073.876093110004
61,3,21,Female,1,1,53.0,15,2,high,4 + 7 + 1 + 1 - 8,5,4,5,7,1076.410347500001,1078.4373766000062,1079.9525139000034,1084.970880000008,1088.3835657000018,1088.3835722000076,1089.900139999998,1090.9175409000018,w,5.0,3.4126856999937445,1,+10,297,-18.870540556379755,0.8728854957994336,-0.10246066156672273,978690.0,1.383966887457202,-0.2693810547753408,0.06927959906776415,982224.0,28.094073613474826,-2.1495583317122007,1.723148218416402,992170.0,1079.9540931100041,1076.420093110004,1089.900093110004
62,3,21,Female,1,1,54.0,16,4,low,4 + 8 + 9 - 3 + 7,25,25,24,26,1092.4343834000028,1094.4580365000002,1095.9730295000045,1100.9916608000058,1102.5594595000002,1102.5594644000084,1104.0759198000014,1105.0927091000049,q,25.0,1.567798699994455,1,+1,298,16.677340249986756,0.3212439901807178,-0.5851397662811781,994711.0,10.054969349618267,0.5224582227197851,0.19359983718225826,998244.0,0.039224954195427486,-0.6570198332478068,0.08146763614840213,1006345.0,1095.974093110004,1092.441093110004,1104.075093110004
63,3,21,Female,1,1,55.0,17,1,high,8 + 1 + 1 + 1 - 3,8,9,8,6,1106.6093682000064,1108.6353174000103,1110.1503367999976,1115.168214300007,1115.7916011000052,1115.7916062000004,1117.3081126000034,1118.3244935000112,w,8.0,0.6233867999981157,1,+10,308,5.496490752403712,-0.3745661780563925,-0.0953065613646531,1008888.0,9.957251453591738,0.7505200497959921,-0.11058465971529974,1012421.0,-29.73745928824465,-0.411169345873418,0.009713211115991882,1019578.0,1110.151093110004,1106.618093110004,1117.308093110004
64,3,21,Female,1,1,56.0,18,4,high,8 + 4 + 7 - 5 - 6,8,8,7,9,1119.8409593000106,1121.864442500009,1123.3795899000106,1128.3979427000013,1129.0155411000014,1129.0155467000004,1130.5320076000062,1131.549180300004,q,8.0,0.6175984000001336,1,+10,318,-24.492702493693212,0.6967950949467037,0.04912797382403178,1022117.0,24.520233751412643,0.16684408151706176,-0.09627125218077959,1025650.0,-4.219670650551468,-0.3012086336260218,-0.15732210551413917,1032802.0,1123.380093110004,1119.847093110004,1130.5320931100039
65,3,21,Female,1,1,57.0,19,2,low,8 + 1 + 9 + 1 - 4,15,15,14,16,1133.066093900008,1135.0992981000018,1136.614556200002,1141.6326169000097,1142.1995944000082,1142.1995994000026,1143.7168661000032,1144.7336349999969,q,15.0,0.5669774999987567,1,+1,319,-23.092551767195967,0.26184059386366965,-0.08126688858991016,1035352.0,-17.828180928820277,-0.6175865942332956,0.08460466538223521,1038885.0,-27.916362147980166,0.46669766378630584,0.0023349500073173157,1045986.0,1136.615093110004,1133.082093110004,1143.716093110004
66,3,21,Female,1,1,58.0,20,4,high,3 + 8 - 5 + 9 - 7,8,8,6,7,1146.249854499998,1148.278412700005,1149.793571400005,1154.8115031000052,1155.4474601999973,1155.4474651000055,1156.9642835999985,1157.9815913000057,q,8.0,0.6359570999920834,1,+10,329,18.25636635187325,-0.8974663055436576,1.1475323868072322,1048531.0,34.77005853278183,0.7575611953550867,0.03723120297332527,1052065.0,-31.005222316581076,0.8172731920346532,-0.17561314490606272,1059234.0,1149.795093110004,1146.261093110004,1156.964093110004
67,3,21,Female,1,1,59.0,21,2,low,7 + 8 + 1 + 9 + 1,26,25,24,26,1159.498236200001,1161.5253149000057,1163.0405387000064,1168.0598545000105,1168.7435270999997,1168.7435322000092,1170.260033700004,1171.277224800011,e,26.0,0.6836725999892224,1,+1,330,-0.9149979964851589,0.5029741178076383,0.018108499027577274,1061778.0,-44.985844816004544,0.3210080859775042,0.09986827515090746,1065313.0,27.89413063900074,-0.17891486442797966,0.25915820708048853,1072530.0,1163.043093110004,1159.508093110004,1170.260093110004
68,3,21,Female,1,1,60.0,22,2,high,7 + 5 + 1 + 9 + 1,23,23,21,22,1172.7939174000055,1174.821533200011,1176.3363836000062,1181.354791500009,1182.3515323000029,1182.3515374999988,1183.8679776000065,1184.8850491000048,q,23.0,0.9967407999938588,1,+10,340,-3.9037107997469276,0.6399472085794633,0.6869716114502649,1075074.0,13.182082141999842,0.7472442400477437,0.16714372908735187,1078607.0,5.7680004191438226,0.3124069304338173,-0.9966657862294126,1086138.0,1176.337093110004,1172.804093110004,1183.8680931100039
69,3,21,Female,1,1,61.0,23,3,high,6 - 1 + 7 - 8 + 9,13,13,11,12,1186.4017097000033,1188.4291135000094,1189.9440059000044,1194.9624526999978,1195.4635530000087,1195.4635579000023,1196.9798923000053,1197.9972164000064,q,13.0,0.5011003000108758,1,+10,350,-9.160981245502821,-0.032478308889919205,0.0898171662309295,1088681.0,-10.00300215827136,-0.2229271797740351,0.05515647650365785,1092215.0,6.519577633190114,-0.6783911008504999,-0.09705351036419096,1099249.0,1189.9450931100039,1186.411093110004,1196.979093110004
70,3,21,Female,1,1,62.0,24,1,low,3 + 1 + 1 + 8 - 1,12,13,12,14,1199.513891900002,1201.5397069000028,1203.0542762999976,1208.0732452000084,1208.5275733000017,1208.52757820001,1210.0439591000031,1211.0604105000093,w,12.0,0.4543280999932904,1,+1,351,14.232647602191415,0.23715870978190967,-0.07516817062156878,1101792.0,-81.62510920202834,0.22693224350474317,-0.027934181571938943,1105325.0,-6.421590702290382,-1.1939841088090057,0.011249361527498225,1112313.0,1203.055093110004,1199.5220931100039,1210.043093110004
71,3,21,Female,1,1,63.0,25,4,high,4 + 9 - 7 + 8 + 5,19,19,21,20,1212.5772255000047,1214.602532600009,1216.1180182000098,1221.1380862000078,1221.9036325000052,1221.9036380000034,1223.4199631000083,1224.4370498000062,q,19.0,0.7655462999973679,1,+10,361,34.02508336477158,-1.0001923721214094,0.09358253980091158,1114855.0,41.51077966860681,0.4564030702409516,-0.021849922342948913,1118390.0,-14.682997221410798,-0.6110620413625876,0.29018263773223163,1125689.0,1216.120093110004,1212.585093110004,1223.419093110004
72,3,21,Female,1,1,64.0,26,3,low,8 + 6 - 7 + 1 - 4,4,4,5,3,1225.953400600003,1227.977515999999,1229.4925252000105,1234.5111283000006,1235.0476598000096,1235.047664800004,1236.5640300000086,1237.5810182999994,q,4.0,0.536531500009005,1,+1,362,21.20946313450018,-0.05970891415611845,-0.13273928205465557,1128230.0,-31.363590601936348,0.7569009058799372,0.04383135591953402,1131763.0,5.7954348906345,0.2539301005140322,-0.006855776427511229,1138833.0,1229.4930931100039,1225.960093110004,1236.563093110004
73,3,21,Female,1,1,65.0,27,1,low,8 - 1 + 1 + 6 + 1,15,16,15,14,1239.0974934999977,1241.125051199997,1242.640439800001,1247.6585826000082,1248.29552710001,1248.2955320000035,1249.811883500006,1250.8289682000031,w,15.0,0.6369445000018459,1,+1,363,3.8947612459756877,-0.3264949347524384,0.038269223941192365,1141377.0,9.15087523758984,-0.6135043015346309,-0.0008884715425385714,1144911.0,-2.5133076448981484,0.41774964293330275,-0.24667580681456425,1152081.0,1242.641093110004,1239.107093110004,1249.8110931100039
74,3,21,Female,1,1,66.0,28,1,high,3 + 1 + 8 + 1 + 1,14,12,14,13,1252.3460494000028,1254.373573200006,1255.8887438000093,1260.9067651000078,1261.3995414000092,1261.3995463000028,1262.9159195000102,1263.9328010000029,w,14.0,0.4927763000014238,1,+10,373,26.946424600048154,-1.2112260381119775,0.009612248178643812,1154626.0,3.9387276737894723,-0.2915116414093548,0.1323591543542828,1158159.0,-26.50601552771059,0.44476282869241146,0.2192891167446822,1165185.0,1255.889093110004,1252.356093110004,1262.915093110004
75,3,21,Female,1,1,67.0,29,4,low,3 + 9 - 5 + 6 + 8,21,22,23,21,1265.4494344999985,1267.4772411000013,1268.9925984,1274.0111879000033,1274.7037062000018,1274.70371110001,1276.2198937000069,1277.236775199999,e,21.0,0.6925182999984827,1,+1,374,27.262673394293962,-0.05957796934605497,0.03592428318250285,1167729.0,6.5253974980845975,0.48499479329164874,0.015536318588403208,1171263.0,-1.9202299026864829,1.0172908715063684,-0.024077020545115513,1178489.0,1268.9930931100039,1265.459093110004,1276.219093110004
76,3,21,Female,1,1,68.0,30,3,low,2 + 9 + 1 - 5 + 7,14,15,12,14,1278.7533982000025,1280.780968200008,1282.2960096000024,1287.3145354000008,1287.8958381999985,1287.8958428000042,1289.411556899999,1290.4283213000017,e,14.0,0.581302799997502,1,+1,375,17.234769153955142,0.09483217382040454,0.014062931930446165,1181033.0,-12.728642391347691,1.4693779104578537,0.05236448486129097,1184566.0,6.977067093285662,0.8037717362654861,0.02963193928873098,1191680.0,1282.296093110004,1278.7630931100039,1289.410093110004
77,3,21,Female,1,1,69.0,31,3,low,4 + 7 + 1 + 9 - 5,16,18,16,17,1291.94512460001,1293.9688253000058,1295.4837322000094,1300.5018011000066,1301.303671600006,1301.3036769000028,1302.8203437000047,1303.8370859999995,w,16.0,0.8018704999994952,1,+1,376,-10.020665937088465,0.992153130945197,0.03182130654417126,1194221.0,23.153157017780998,0.12729167868609625,0.07545781951896058,1197754.0,-1.7352708474508134,-0.6423920716071967,-0.016960255106005073,1205089.0,1295.4840931100039,1291.951093110004,1302.819093110004
78,3,21,Female,1,1,70.0,32,2,high,4 + 8 + 1 + 1 - 6,8,9,7,8,1305.3538348000002,1307.380843100007,1308.895745400005,1313.9134983999977,1314.6796348000062,1314.6796401000029,1316.195958199998,1317.2128576000105,e,8.0,0.7661364000086905,1,+10,386,-4.452940572651638,0.3397499444163019,-0.009367555480402467,1207633.0,-1.5032358899501368,0.23208742538151572,0.13680461573072233,1211166.0,-22.10826250883931,0.7238571151706523,-1.686882984382641,1218465.0,1308.896093110004,1305.363093110004,1316.1950931100039
79,3,21,Female,1,1,71.0,33,3,high,8 - 1 + 6 - 7 + 5,11,13,11,12,1318.729453699998,1320.7569555000082,1322.2721840000013,1327.2907110000087,1327.9516046000062,1327.9516095,1329.4680148000043,1330.4853194000025,w,11.0,0.6608935999975074,1,+10,396,4.886902696253774,-0.662786388685122,1.6991379066428893,1221009.0,-46.8810373275563,1.2741240018422753,0.12378649668251751,1224542.0,11.108553755787746,-0.07015137943844074,0.12674700597698974,1231737.0,1322.2720931100039,1318.739093110004,1329.467093110004
80,3,21,Female,1,1,72.0,34,3,high,6 + 1 + 8 + 7 - 9,13,15,14,13,1332.0017606000038,1334.027242900003,1335.5418634000089,1340.5606480999995,1341.3516840000084,1341.3516892000043,1342.8680844000046,1343.8850514000078,e,13.0,0.7910359000088647,1,+10,406,9.921144874362898,-0.6921922663669999,0.06212953741616545,1234278.0,13.389941091616247,2.1396360952032225,-1.222235360598954,1237812.0,-19.16728776104148,-0.551479035649296,0.03222749582385975,1245137.0,1335.5420931100039,1332.008093110004,1342.867093110004
81,3,21,Female,1,1,73.0,35,2,high,9 + 1 + 6 + 7 + 1,24,25,24,23,1345.401753500002,1347.4297096000082,1348.9447997000098,1353.9626513000112,1354.479642700011,1354.4796478000062,1355.996106999999,1357.0130445000104,w,24.0,0.5169913999998244,1,+10,416,25.656399488194364,0.5450992517307434,-0.15051787760703972,1247682.0,-18.838209596022107,0.05670089872338302,-0.05443246416030112,1251214.0,15.28131657154827,-1.1374840582628813,-0.06772882000629643,1258265.0,1348.944093110004,1345.412093110004,1355.995093110004
82,3,21,Female,1,1,74.0,36,2,high,5 + 1 + 7 - 6 + 1,8,6,8,7,1358.5295757999993,1360.554165900001,1362.0693268000032,1367.0874643999996,1367.7517114000077,1367.7517165000029,1369.2680946000037,1370.285015600006,q,6.0,0.6642470000078902,0,+0,416,43.507916970024226,0.2113214953826894,0.033744660021660655,1260806.0,6.257248631775618,0.6762607519285719,0.0011273097822392941,1264340.0,-4.803708011673229,-0.7581447504346448,0.04158210942269602,1355713.0,1362.0700931100039,1358.536093110004,1453.443093110004
83,3,21,Female,1,1,75.0,37,4,low,4 + 7 + 8 - 3 + 9,25,26,24,25,1371.800596000001,1373.8254573000013,1375.3406549000065,1380.3588502000057,1381.1036647,1381.103670000011,1382.6200811000017,1383.6371477000066,e,25.0,0.7448144999943906,1,+1,417,25.039671658416683,1.2448791949035565,-0.0009723048313599048,1274077.0,21.919206064133775,-0.13075478850523048,-0.02725056371075185,1277611.0,-3.6726786226711425,1.4306701443905716,-4.010283832660328,1284889.0,1375.341093110004,1371.807093110004,1382.6190931100039
84,3,21,Female,1,2,76.0,0,3,high,5 + 7 + 1 - 4 + 6,15,15,13,17,1416.1958139000053,1418.2225015000004,1419.7375481000054,1424.7573916999972,1425.2556285000028,1425.2556337999995,1426.771733200003,1427.7892123000056,q,15.0,0.498236800005543,1,+10,427,-21.930273095969614,1.1787163751746332,1.2834106907784282,1318474.0,10.647512871761915,0.9271480039748212,-0.9777537987987044,1322009.0,14.060805564767254,-0.011073184955753046,1.4535604028460392,1329040.0,1419.739093110004,1416.204093110004,1426.770093110004
85,3,21,Female,1,2,77.0,1,4,high,3 + 8 - 4 + 9 + 6,22,23,21,22,1429.3059150000045,1431.3285180000094,1432.8435918000032,1437.8616088999988,1438.8316951000015,1438.8317000000095,1440.348059399999,1441.3649451000092,e,22.0,0.9700862000026972,1,+10,437,-13.243079303624377,0.672315694598518,-0.1304218447841654,1331580.0,-30.387668416762253,0.6883621411168761,-0.1765185226347623,1335113.0,18.72644024347868,1.2037544793548847,-0.0235946844207795,1342616.0,1432.843093110004,1429.310093110004,1440.346093110004
86,3,21,Female,1,2,78.0,2,2,high,6 + 1 + 1 + 7 - 9,6,6,8,4,1442.8815180000092,1444.9056202000063,1446.4207222999976,1451.4390951000096,1451.9281706000038,1451.9281754999977,1453.4443949999986,1454.461507,q,6.0,0.4890754999942146,1,+10,447,6.662772625563553,0.39750459522633186,-0.17826377844481422,1345157.0,13.110030046906319,-0.11194552639328936,-0.011977524972461628,1348690.0,0.7342034447137493,-0.628979419192242,-0.032569013958850146,1541704.0,1446.420093110004,1442.887093110004,1639.434093110004
87,3,21,Female,1,2,79.0,3,1,high,9 + 1 + 1 + 7 - 1,17,19,17,16,1455.9784559000109,1458.007892900001,1459.523537400004,1464.5420034999988,1465.1277360000097,1465.1277408000024,1466.6440926000068,1467.6611934000102,w,17.0,0.5857325000106357,1,+10,457,13.701316162157235,-0.38652030326925146,-0.00866896042660481,1358259.0,7.367992504758895,0.10901559204897726,0.10192267973839608,1361793.0,-29.95816807503317,0.6935449448043802,-0.6012798493347433,1368913.0,1459.5230931100039,1455.989093110004,1466.643093110004
88,3,21,Female,1,2,80.0,4,1,high,5 + 9 - 1 + 1 + 1,15,13,17,15,1469.177979800006,1471.203998500001,1472.71873030001,1477.7368027000048,1478.3917609000057,1478.3917660000006,1479.9083646000072,1480.9255346999998,e,15.0,0.6549582000006922,1,+10,467,-45.51816333897478,-0.35216729250010115,0.14755457134179717,1371455.0,-15.26616191140187,0.588968286746304,-0.4802029219401005,1374988.0,20.222707410457268,-0.8988581644480447,0.06870768292103735,1382177.0,1472.718093110004,1469.185093110004,1479.9070931100039
89,3,21,Female,1,2,81.0,5,1,low,2 + 1 + 9 + 1 + 1,14,13,12,14,1482.4418326000014,1484.4696747999988,1485.9848158000095,1491.0036183000047,1491.535767399997,1491.535772400006,1493.0519379000034,1494.0686771000037,e,14.0,0.5321490999922389,1,+1,468,11.712372176167644,0.11376029787145692,0.09037105169520188,1384721.0,4.281799616177446,1.5346990044281266,0.049459340908900806,1388255.0,29.409076202595813,0.33137433897373114,-0.0547212038331204,1395320.0,1485.985093110004,1482.451093110004,1493.050093110004
90,3,21,Female,1,2,82.0,6,4,low,9 + 8 - 5 - 7 + 6,11,11,13,10,1495.5859958000074,1497.6130223000073,1499.1281750000053,1504.1467685000098,1504.967762500004,1504.9677677,1506.4842919000075,1507.50125500001,q,11.0,0.8209939999942435,1,+1,469,-34.01779874155398,0.9524491419461332,0.019614220606436694,1397864.0,13.984654627732414,0.6270176118256989,0.0725878523957828,1401398.0,8.638153763375925,-0.47225847552401223,-0.023157252499734327,1408752.0,1499.1280931100039,1495.594093110004,1506.482093110004
91,3,21,Female,1,2,83.0,7,3,low,4 + 8 - 9 + 1 + 7,11,13,11,9,1509.0179757000003,1511.044095300007,1512.559374999997,1517.577753899997,1518.0798450000002,1518.0798505999992,1519.5963435000012,1520.6132618999982,w,11.0,0.5020911000028718,1,+1,470,-63.73151400775414,1.6742748344741085,0.03045274947279175,1411295.0,16.614416176907636,0.36075517824372394,0.10416214833742443,1414829.0,-21.55981576013349,0.18559488931170165,-1.010892743254607,1421864.0,1512.559093110004,1509.025093110004,1519.594093110004
92,3,21,Female,1,2,84.0,8,1,low,6 + 1 + 8 + 1 - 1,15,14,15,13,1522.1299313000054,1524.1554088999983,1525.6701912999995,1530.6883264000062,1531.3598093000037,1531.359814900003,1532.8760053000003,1533.8924957999989,w,15.0,0.6714828999974998,1,+1,471,9.530133853841965,0.06380303570780477,-0.04866766393525079,1424407.0,7.339509504844015,0.2199179732504506,-0.058087453868471695,1427939.0,-103.58237788768153,-0.5426399190237294,-0.03982965800208138,1435144.0,1525.669093110004,1522.137093110004,1532.874093110004
93,3,21,Female,1,2,85.0,9,3,low,5 + 1 + 7 - 8 + 6,11,11,9,13,1535.408832400004,1537.4370040000067,1538.952104099997,1543.9704394,1544.4477538000065,1544.447759600007,1545.9641832000052,1546.981093399998,q,11.0,0.4773144000064349,1,+1,472,42.124547767468336,0.9959140772670545,0.04243893649453567,1437688.0,1.5401763663415586,0.061728146560807495,-0.04859707477969266,1441221.0,18.53172012484474,-0.38303079528907746,0.018850894091398507,1448232.0,1538.951093110004,1535.418093110004,1545.962093110004
94,3,21,Female,1,2,86.0,10,3,low,2 + 1 + 9 - 4 + 6,14,15,14,16,1548.4978569000086,1550.5225008999987,1552.0374745000008,1557.0553368999972,1558.0957013000009,1558.0957059000066,1559.6121477999986,1560.6290646999987,w,14.0,1.0403644000034546,1,+1,473,6.096187667456675,0.5459919747031505,-0.08418764024468461,1450773.0,-4.245070959272258,1.0791403891510516,0.046063768829651686,1454306.0,6.8638733345909335,-0.2674163289544227,-0.03001554564806952,1461880.0,1552.036093110004,1548.5030931100039,1559.610093110004
95,3,21,Female,1,2,87.0,11,1,low,9 + 8 + 1 + 1 - 1,18,18,20,17,1562.1454634999973,1564.1711406000104,1565.685834500007,1570.7037472000084,1571.383700799997,1571.3837058000065,1572.9002551000012,1573.9172537999984,q,18.0,0.6799535999889486,1,+1,474,39.99754726529074,-0.8885132614891371,0.10352775889104215,1464422.0,15.010540473175135,0.10897974144826872,0.027054078173070595,1467955.0,6.140552978717519,1.060423157178073,-0.00884260726388253,1475168.0,1565.685093110004,1562.152093110004,1572.8980931100039
96,3,21,Female,1,2,88.0,12,4,high,8 + 5 - 4 + 7 + 9,25,24,25,26,1575.433857199998,1577.4599451000104,1578.9750436000031,1583.9931191000069,1585.4717820000078,1585.471787100003,1586.9884187999996,1588.005595399998,w,25.0,1.478662900000927,1,+10,484,-17.254863783517408,0.8783809305069714,0.012676905500064395,1477711.0,-45.148789750086564,0.5575122163981954,0.052919795642774714,1481244.0,3.5390907791048702,-0.9461640068569936,2.082010263917732,1489256.0,1578.9740931100039,1575.441093110004,1586.986093110004
97,3,21,Female,1,2,89.0,13,4,low,7 + 6 - 4 + 9 - 5,13,13,14,12,1589.5227546000096,1591.5508321000088,1593.0656985000096,1598.085290700008,1598.5997304000048,1598.5997357000017,1600.1161023000022,1601.1329166000069,q,13.0,0.5144396999967285,1,+1,485,-31.91790450193713,0.6112687967087913,0.07765485430410446,1491801.0,38.80427744621184,1.3246205858523612,-0.038358842329317966,1495336.0,-41.90193582555924,-1.2831776427881358,0.18297371309233057,1502384.0,1593.066093110004,1589.531093110004,1600.114093110004
98,3,21,Female,1,2,90.0,14,4,high,4 + 7 - 8 + 9 - 3,9,11,9,8,1602.6496165999995,1604.6770625000063,1606.1931115000043,1611.2131464999984,1611.7118582999974,1611.711863500008,1613.2281863000098,1614.2453628000076,w,9.0,0.4987117999990005,1,+10,495,24.43734502646312,0.13679004885086954,-0.06542505524481435,1504928.0,-0.4732742276728028,0.586054336589056,-0.029770582748083863,1508463.0,4.138367957966352,-1.1607752626436754,0.05549406121455602,1515496.0,1606.193093110004,1602.658093110004,1613.226093110004
99,3,21,Female,1,2,91.0,15,3,high,2 + 1 + 9 - 5 + 6,13,14,13,11,1615.7620343000017,1617.7857599999988,1619.301111000008,1624.3191029000009,1624.7918537000078,1624.7918587000022,1626.3083132000029,1627.3254019000017,w,13.0,0.4727508000069065,1,+10,505,11.639350901068052,1.1827717356429752,0.10002843173358911,1518036.0,26.582683607236273,0.10076374464205884,0.09221707375674759,1521570.0,-34.58779267335859,-0.6409953661507988,0.09728663103756774,1528576.0,1619.300093110004,1615.766093110004,1626.306093110004
100,3,21,Female,1,2,92.0,16,2,high,8 + 1 + 7 + 1 - 4,13,12,13,14,1628.8421958000108,1630.866963499997,1632.3820804999996,1637.4004120000027,1637.919912600002,1637.9199175000103,1639.4362859000105,1640.453394000011,w,13.0,0.5195005999994464,1,+10,515,6.278308765413254,1.0240939089297685,-0.07617108048979393,1531118.0,36.245075394773465,0.8106961771705752,-0.05332866393655933,1534651.0,1.8144257901698104,-0.3419865448096857,0.07527989465689511,1581727.0,1632.381093110004,1628.848093110004,1679.457093110004
101,3,21,Female,1,2,93.0,17,1,high,7 - 1 + 9 + 1 - 1,15,14,15,13,1641.970191600005,1643.9981721000077,1645.5131795000052,1650.531571500003,1651.2077461000008,1651.2077508000075,1652.724305900003,1653.7413835000043,w,15.0,0.6761745999974664,1,+10,525,6.233243247244525,-1.3469314316495238,0.02610898044007892,1544249.0,15.691349731298063,-0.2669743730981171,0.1283280973936769,1547782.0,16.647423672751543,-0.5587066913071985,-0.023447853498259397,1554992.0,1645.512093110004,1641.979093110004,1652.722093110004
102,3,21,Female,1,2,94.0,18,1,low,9 + 7 + 1 + 1 + 1,19,19,20,18,1655.2571725000016,1657.282619000005,1658.7978385000024,1663.8157028999997,1664.6238128999976,1664.623817700005,1666.1401799000014,1667.1570347000088,q,19.0,0.8081099999981234,1,+1,526,-25.471148451080012,-0.5465649622677535,-0.07069219894408763,1557533.0,-15.751690921794825,1.3108680701100952,-0.008390514806329463,1561066.0,-2.4966352237931666,0.2427004843206264,-0.1800139003266512,1568407.0,1658.796093110004,1655.2630931100039,1666.137093110004
103,3,21,Female,1,2,95.0,19,2,low,2 + 1 + 9 - 4 + 1,9,9,11,8,1668.6736824000109,1670.7020773999975,1672.2172569000104,1677.2353492000111,1677.9438099000108,1677.9438155000098,1679.4600701000018,1680.4768538000062,q,9.0,0.708460699999705,1,+1,527,-8.22051097505252,0.035369023114369735,-0.07328208034580475,1570953.0,5.928220820449038,1.7797640312315672,-0.02842965534398445,1574486.0,-54.86167801231723,-0.5911073032243426,-0.056780270631362706,1648040.0,1672.216093110004,1668.683093110004,1745.770093110004
104,3,21,Female,1,2,96.0,20,3,high,7 - 5 + 9 + 1 - 4,8,7,9,8,1681.9941958999989,1684.0228895000037,1685.5387755999982,1690.557182600009,1691.175898000001,1691.1759030000103,1692.6923987000046,1693.7095619000029,e,8.0,0.6187153999926522,1,+10,537,22.77964890013495,0.5994433711618994,0.06441303330561166,1584273.0,8.084300538198809,1.216908388615603,0.08464145198908968,1587808.0,-20.26137072194379,-0.09090284657216063,0.04978118169963297,1594960.0,1685.538093110004,1682.0030931100039,1692.690093110004
105,3,21,Female,1,2,97.0,21,1,high,7 + 1 + 4 + 1 - 1,12,14,13,12,1695.2263693999994,1697.2501918000053,1698.7653094999987,1703.7836472000054,1704.3998843000008,1704.3998903000029,1705.9157236000028,1706.932732900008,e,12.0,0.6162370999954874,1,+10,547,12.083632036786634,-0.09057317158917932,0.049978279265998404,1597501.0,-47.04872261330706,-0.05078743190026458,0.14810569346667624,1601034.0,-12.436597503960014,0.7978797556043586,-0.06426994010521514,1608183.0,1698.764093110004,1695.231093110004,1705.913093110004
106,3,21,Female,1,2,98.0,22,1,high,2 + 9 + 1 + 1 + 1,14,14,13,12,1708.449369000009,1710.4763612000097,1711.9909845000077,1717.0092143000074,1717.839876500002,1717.8398818999997,1719.3563072999968,1720.373820000008,q,14.0,0.8306621999945492,1,+10,557,-46.548940247695214,-1.0659189544773757,-0.05603344388545217,1610727.0,-12.2109954770593,1.4619563744482682,-0.13256620094543137,1614259.0,1.4009797303361902,0.724148498028411,0.04056940977625434,1621624.0,1711.989093110004,1708.457093110004,1719.354093110004
107,3,21,Female,1,2,99.0,23,4,high,2 + 9 - 3 + 5 + 8,21,21,23,22,1721.8904974000034,1723.9171810999978,1725.432302000001,1730.4505100000097,1731.0079549000077,1731.0079600000026,1732.5245277000067,1733.5415719000011,q,21.0,0.5574448999977903,1,+10,567,-21.502085667369037,-0.055284459452585644,0.022193588369355144,1624167.0,10.510189229832697,0.819965413724197,0.02183331738278338,1627701.0,-16.531498098040377,-1.2552951373882602,0.021315173443749336,1634792.0,1725.431093110004,1721.8970931100039,1732.5220931100039
108,3,21,Female,1,2,100.0,24,2,low,4 + 9 - 7 + 1 - 1,6,6,8,5,1735.058275300005,1737.0846586999978,1738.5998327999987,1743.6186619000073,1744.2559085000105,1744.2559136000054,1745.772746600007,1746.7894326000096,q,6.0,0.6372466000029817,1,+1,568,14.10534069342493,0.049120115722976365,0.007225662569156688,1637335.0,3.1295236475052697,0.638691989809324,-0.06367940429337016,1640868.0,7.765593033301853,0.12968546911597478,-3.1883925674032048,1661183.0,1738.598093110004,1735.065093110004,1758.913093110004
109,3,21,Female,1,2,101.0,25,2,low,9 + 5 - 6 + 1 - 1,8,8,7,9,1748.3065664000023,1750.3294464000064,1751.8446654,1756.8626581999995,1757.3999487999972,1757.399953900007,1758.9163781000098,1759.9339188000013,q,8.0,0.5372905999975046,1,+1,569,16.250895711233937,2.0113219632566772,0.03297115904883752,1650580.0,-2.7115771069660113,0.7535892473733146,-0.17273519376084256,1654113.0,-4.931977088727191,-0.30682885443366636,0.0034169665268721783,1688631.0,1751.843093110004,1748.310093110004,1786.361093110004
110,3,21,Female,1,2,102.0,26,4,low,8 + 4 + 7 - 5 - 6,8,9,6,8,1761.4507190000004,1763.4745821000106,1764.9896856999983,1770.009253600001,1771.6318392000103,1771.6318443000057,1773.1481921000086,1774.165404600004,w,6.0,1.622585600009188,0,+0,569,0.4000978321594886,-0.1789152768661717,0.03849590070857767,1663725.0,14.989105228972244,1.570886080120871,0.05758978997662778,1667258.0,-2.727854667807783,-0.28646673299044867,0.005085791061481215,1701895.0,1764.988093110004,1761.4550931100039,1799.625093110004
111,3,21,Female,1,2,103.0,27,2,high,9 + 6 + 1 + 7 + 1,24,25,23,24,1775.6817156000034,1777.7083921000012,1779.2239354000048,1784.241897800006,1784.8478720999992,1784.8478770000074,1786.3641869999992,1787.3814251000003,e,24.0,0.6059742999932496,1,+10,579,2.2088054663871115,0.38017675666290396,-0.08476442013528351,1677958.0,25.053571192073477,0.5230363057878673,0.24863336110795342,1681492.0,-7.861072831409992,0.2065121588829255,1.2103522485737837,1755719.0,1779.222093110004,1775.688093110004,1853.449093110004
112,3,21,Female,1,2,104.0,28,4,high,7 + 6 - 9 + 8 - 3,9,7,8,9,1788.8986115000007,1790.9252062000014,1792.440280499999,1797.4601600000024,1798.111936900008,1798.1119422000047,1799.6281775000098,1800.6452677000052,e,9.0,0.6517769000056433,1,+10,589,8.21863825857054,0.582390690166303,0.06945781449971955,1691174.0,14.861628946238014,1.03671091855403,-0.03769737663119188,1694710.0,9.735775460358365,-0.32906248593150433,-0.05710226946669916,1741759.0,1792.440093110004,1788.904093110004,1839.489093110004
113,3,21,Female,1,2,105.0,29,3,low,5 + 6 - 4 - 1 + 7,13,15,14,13,1802.1619310000096,1804.1862171000105,1805.7013294000064,1810.7197834000108,1811.2638460000016,1811.2638510000104,1812.780058500008,1813.7967827000105,e,13.0,0.5440625999908661,1,+1,590,20.98727084785609,1.20459254822677,0.08432106237600134,1704436.0,-16.608091178348374,0.9117074375432797,0.06804130864473135,1707970.0,-8.24884871035448,-1.0669879905102357,-0.03234776837371944,1715047.0,1805.700093110004,1802.1660931100039,1812.777093110004
114,3,21,Female,1,2,106.0,30,1,high,3 + 1 + 1 + 9 - 1,13,14,12,13,1815.31256630001,1817.339503100011,1818.8545180000076,1823.8726879000023,1824.519973100003,1824.519978199998,1826.036365500011,1827.0533733000048,e,13.0,0.6472852000006242,1,+10,600,-7.829555439350601,-1.4880861640665963,0.12942433367966055,1717589.0,14.064328571517057,1.4795731523999924,0.08713948337711686,1721123.0,-8.812719058980324,0.4850613137754234,-0.25568870091904383,1728303.0,1818.853093110004,1815.319093110004,1826.033093110004
115,3,21,Female,1,2,107.0,31,4,low,9 + 3 - 5 + 8 + 6,21,23,19,21,1828.5700301000036,1830.5981424000056,1832.1132532000047,1837.131746900006,1837.976133500008,1837.9761387000035,1839.4921295000092,1840.50900060001,e,21.0,0.8443866000015987,1,+1,601,-31.863968943919403,0.1255329536649512,0.042500152218045484,1730848.0,12.05120932688834,0.5779135899534484,-0.11651503883136294,1734382.0,9.6646880259513,0.45915867194756466,-0.01146385440129305,1808975.0,1832.112093110004,1828.578093110004,1906.7050931100039
116,3,21,Female,1,2,108.0,32,2,high,7 + 6 + 1 + 8 + 1,23,22,23,21,1842.0257631999996,1844.0499905000036,1845.5650393000103,1850.583605599997,1851.935874200004,1851.9358790999977,1853.452222500011,1854.4694563000085,w,23.0,1.352268600006937,1,+10,611,0.2879095892873842,0.6688227442974686,-0.027587035085556932,1744300.0,-1.5590074246881975,0.342181399795769,-0.0036865618324142257,1747833.0,17.597855718407438,0.22627928207816161,0.000794954034294193,1782463.0,1845.563093110004,1842.030093110004,1880.193093110004
117,3,21,Female,1,2,109.0,33,1,high,7 - 1 + 8 + 1 - 1,14,12,13,14,1855.9861882999976,1858.0146511000055,1859.5296784000093,1864.5480319000053,1865.2719399000048,1865.2719451000007,1866.7887497000047,1867.806963199997,e,14.0,0.7239079999999376,1,+10,621,18.361155030912553,3.297792919435281,0.14693133861016383,1758264.0,0.07161577093707105,0.2559830061478081,0.024894201395009308,1761798.0,1.9869833062068363,1.021199242570987,0.02356716305202511,1769057.0,1859.528093110004,1855.9940931100039,1866.787093110004
118,3,21,Female,1,2,110.0,34,2,high,6 + 1 + 1 + 7 - 9,6,6,4,8,1869.3235887000048,1871.348781000008,1872.8637002000032,1877.8829658000031,1878.6799931999997,1878.67999840001,1880.1965241,1881.2134891000023,q,6.0,0.7970273999962956,1,+10,631,2.8819557958452044,0.7277782449200361,-0.23705613258272384,1771598.0,-29.00802354231361,0.9074395685653007,0.1349589101072004,1775133.0,-15.336311194153545,-0.6917590857735116,0.4866422460750135,1867039.0,1872.863093110004,1869.328093110004,1964.769093110004
119,3,21,Female,1,2,111.0,35,1,low,3 + 1 + 9 + 1 + 1,15,15,14,17,1882.7302979000087,1884.7562154000043,1886.271265600008,1891.290107400011,1891.9039827000088,1891.9039881000065,1893.4202733999991,1894.4369300000108,q,15.0,0.6138752999977442,1,+1,632,13.753790802099614,0.9157435525453654,0.09093995202568617,1785006.0,-6.493259984064839,0.41591083087952896,-0.03770012796679589,1788540.0,14.346907917726499,0.9815847360760095,0.10609148776657107,1795687.0,1886.270093110004,1882.736093110004,1893.4170931100039
120,3,21,Female,1,2,112.0,36,4,low,5 + 7 - 4 + 8 + 6,22,22,24,23,1895.9544446000075,1897.9807331000047,1899.4957217000049,1904.5158036000064,1905.1920059000115,1905.1920109000057,1906.7086131000103,1907.725281699997,q,22.0,0.6762023000046611,1,+1,633,4.448805170332511,1.4150793960532342,-0.05810380621841538,1798230.0,39.39313353027147,1.797266638964203,0.01755843033958837,1801765.0,-4.010629555242921,-0.8749384230763573,0.1638648136843277,1906783.0,1899.495093110004,1895.960093110004,2004.5130931100039
121,3,21,Female,1,2,113.0,37,3,high,8 + 4 + 1 - 7 + 9,15,13,15,16,1909.2419408999997,1911.2683572000096,1912.7842459000092,1917.803457800008,1918.471969400009,1918.471974400003,1919.9884287000025,1921.0056905000088,w,15.0,0.6685116000007838,1,+10,643,6.815447974932937,0.5675497087505494,0.0858227586864122,1811518.0,-4.631233374730343,0.29221800648480656,0.04437062175024331,1815054.0,6.289816459767673,-1.7619373113408163,1.4454136472765993,1822255.0,1912.784093110004,1909.248093110004,1919.985093110004
122,3,21,Female,1,3,114.0,0,2,low,5 + 8 + 1 - 1 + 9,22,22,21,23,1953.9722081000075,1956.000952200004,1957.5158771999995,1962.5350608000008,1963.2559842000048,1963.2559888000103,1964.7724083000064,1965.7891920999973,q,22.0,0.7209234000038123,1,+1,644,-7.8745286472419895,0.8771236760485337,-1.3869905982079356,1856250.0,6.5095274138440296,1.4854553476694288,0.12048558657374686,1859785.0,-3.0057436655247507,1.394996687257183,0.12446316575078553,1880151.0,1957.515093110004,1953.980093110004,1977.881093110004
123,3,21,Female,1,3,115.0,1,2,low,3 + 9 + 1 - 5 + 1,9,7,8,9,1967.3057034000085,1969.3284639000049,1970.8436138999969,1975.8617693999984,1976.3681133000064,1976.3681183000008,1977.8846288000057,1978.901192899997,e,9.0,0.5063439000077778,1,+1,645,14.200236422735815,0.7937275895679314,0.01939426428664115,1869577.0,4.015059814887037,1.756112079683319,0.15402943307988082,1873111.0,12.404007844522962,-0.8723619193617873,0.2578178666965114,2019255.0,1970.841093110004,1967.307093110004,2116.985093110004
124,3,21,Female,1,3,116.0,2,3,low,6 - 1 + 7 - 8 + 9,13,12,11,13,1980.4178178,1982.443499900008,1983.9586530000088,1988.9773539000016,1989.528037000011,1989.528042100006,1991.044491000008,1992.0614458000052,e,13.0,0.5506831000093371,1,+1,646,11.589420626252515,1.2281213182213002,0.0014067330130420608,1882693.0,15.56749613123177,1.1337400777278503,0.08272799883184234,1886227.0,33.573589875776875,0.45844098019709056,0.00022317126824056288,1893311.0,1983.957093110004,1980.423093110004,1991.0410931100039
125,3,21,Female,1,3,117.0,3,4,low,3 + 8 - 7 + 9 - 5,8,8,9,7,1993.577995700005,1995.604555400001,1997.119518100008,2002.1397383000003,2003.0000759000104,2003.0000810000056,2004.5165081000011,2005.533949500008,q,8.0,0.860337600010098,1,+1,647,-37.292074332579105,0.17362330763450284,0.024445687218004775,1895854.0,-5.204533561981577,0.7119298724343017,0.14574299191574314,1899389.0,2.8841598708080074,-0.2809353039649074,0.1566258224255812,1933462.0,1997.1190931100039,1993.584093110004,2031.192093110004
126,3,21,Female,1,3,118.0,4,1,low,6 + 9 + 1 + 1 - 1,16,16,14,15,2007.0506737000103,2009.0774409000005,2010.5925512000103,2015.6106086000077,2016.447959700003,2016.447964600011,2017.9643686000052,2018.9812217,q,16.0,0.8373510999954306,1,+1,648,-46.89256389555743,-0.36172621149333484,0.2578756563998743,1909327.0,-5.097280806909573,1.4906300421258987,0.12726163799154655,1912860.0,-11.215690348868462,0.7692300810790558,0.17456537650371384,1920230.0,2010.5900931100039,2007.057093110004,2017.960093110004
127,3,21,Female,1,3,119.0,5,4,low,4 + 7 + 9 - 5 + 7,22,22,24,23,2020.497944900009,2022.5250061999975,2024.039508300004,2029.05772170001,2029.6800790999987,2029.6800843000087,2031.1964352000068,2032.213066299999,q,22.0,0.6223573999886867,1,+1,649,5.460549698342125,0.24426440116928116,0.12241534934814857,1922774.0,73.66068801693714,1.7638390385335039,-0.02847609801199824,1926307.0,-11.353924172934565,-0.1796657518612359,-0.18344839853258588,1964487.0,2024.037093110004,2020.5040931100039,2062.217093110004
128,3,21,Female,1,3,120.0,6,3,high,7 - 1 + 9 - 5 + 4,14,14,15,13,2033.730211400005,2035.757140500005,2037.2722414000016,2042.2910192999989,2043.216056899997,2043.2160618000053,2044.7324930000032,2045.7496465000004,q,14.0,0.925037599998177,1,+10,659,-10.145177738751602,-0.5219986830602181,-0.030668906515925576,1936006.0,-36.46037745856687,0.5787882212209183,-0.10441009444190752,1939540.0,-45.495840131815136,-0.24229698786974518,0.007681362453577867,1946999.0,2037.270093110004,2033.736093110004,2044.729093110004
129,3,21,Female,1,3,121.0,7,4,low,6 + 9 - 7 + 8 - 5,11,13,12,11,2047.2662499,2049.294516000009,2050.8093194000103,2055.8278034000105,2060.7041884000064,2060.704193800004,2062.2208914000075,2063.237538900008,e,11.0,4.876384999995935,1,+1,660,-4.4272234305651255,0.8607786293857038,0.16831012035031523,1949544.0,11.967354234399494,1.3174173847277926,0.006127965452596751,1953077.0,16.828029447425397,-0.7768521456836224,0.10173604472385422,2004454.0,2050.807093110004,2047.274093110004,2102.184093110004
130,3,21,Female,1,3,122.0,8,1,low,2 + 1 + 9 + 1 - 1,12,11,13,12,2064.7542496000096,2066.7792874000006,2068.2942438000027,2073.3121948000044,2073.9287932000007,2073.9287997000065,2075.4448372000043,2076.461543800004,e,12.0,0.6165983999962918,1,+1,661,2.1154107633802823,-0.19249442572959818,-0.1508562751700122,1967028.0,-3.0439083352498386,0.8442224082376004,0.05627109926388507,1970561.0,34.17310032505801,0.0678402793162658,-0.0010960565660655952,1977711.0,2068.291093110004,2064.758093110004,2075.441093110004
131,3,21,Female,1,3,123.0,9,1,low,5 + 1 + 1 + 9 + 1,17,17,19,16,2077.9781763000065,2080.002685600004,2081.517810899997,2086.535244800005,2087.3120753999974,2087.3120807000087,2088.8285078000044,2089.845323900008,q,17.0,0.776830599992536,1,+1,662,-14.882649072365309,0.10614948166399918,0.07999090621467819,1980252.0,-25.141390259772955,2.249249781707564,0.02497748031087066,1983785.0,35.038747419542965,-0.01436686835668688,0.18485357375458045,1991094.0,2081.5150931100043,2077.982093110004,2088.824093110004
132,3,21,Female,1,3,124.0,10,4,low,6 + 5 - 7 + 8 - 9,3,3,4,5,2091.36188750001,2093.387561100011,2094.90240050001,2099.9221690999984,2100.6721528000053,2100.6721579000005,2102.188546899997,2103.2052009000035,q,3.0,0.749983700006851,1,+1,663,15.273086618797883,1.5288644436281975,-0.035339860475617435,1993637.0,11.891870411667243,0.8882925568040689,0.04485020612383428,1997172.0,-11.163969675926744,-0.4406391317861402,0.013027303878063057,2032767.0,2094.902093110004,2091.367093110004,2130.4970931100042
133,3,21,Female,1,3,125.0,11,2,high,6 + 8 + 1 + 1 - 7,9,9,8,11,2104.7218887000054,2106.7459813000023,2108.26097090001,2113.2794691000017,2115.472094099998,2115.4720993000083,2116.9884475,2118.005269000001,q,9.0,2.192624999996042,1,+10,673,-6.158048347831354,-0.5662111821505045,0.07615548189277477,2006995.0,1.2438344256197214,1.8507957169688147,-0.06345494924086714,2010528.0,4.093173464787355,-1.2161741642006891,0.07197289334869228,2072686.0,2108.258093110004,2104.725093110004,2170.416093110004
134,3,21,Female,1,3,126.0,12,4,high,7 + 8 - 4 + 6 + 5,22,23,21,22,2119.5218532,2121.549158900001,2123.0643518,2128.0825314000103,2128.9841575000028,2128.9841633000037,2130.501108900004,2131.518209500005,e,22.0,0.901626099992427,1,+10,683,-13.312842956811988,1.025873418465029,-1.1391355253733637,2021798.0,14.77549209498022,0.7445637216878458,0.016068605924448587,2025332.0,22.300640941480207,0.005421681279666579,-0.028056112407175426,2139910.0,2123.0620931100043,2119.528093110004,2237.640093110004
135,3,21,Female,1,3,127.0,13,1,high,6 + 1 + 8 + 1 + 1,17,17,16,15,2133.0348215999984,2135.060932499997,2136.575779100007,2141.5937339000084,2142.416102000003,2142.4161074000003,2143.9325039000105,2144.949312800003,q,17.0,0.8223680999944918,1,+10,693,-19.559562073660317,-0.9308447748545103,0.02664428624683346,2035310.0,-7.275033566775409,0.0801566774762863,0.17673430309401184,2038843.0,-37.83633595919301,-0.4318839153889833,-0.031149399956480472,2046199.0,2136.5730931100043,2133.040093110004,2143.929093110004
136,3,21,Female,1,3,128.0,14,1,high,3 + 1 + 8 - 1 + 1,12,12,13,10,2146.466025800008,2148.4923978000006,2150.007943700009,2155.026471100005,2155.6641766000103,2155.664181900007,2157.18073610001,2158.197714599999,q,12.0,0.6377055000048131,1,+10,703,5.010991076464075,0.19353773816868447,0.07761758421535458,2048741.0,-0.1590143462985214,-0.013177837395394576,0.016274440446124805,2052275.0,3.4934455995317313,0.6882538641804166,0.01670284556070456,2059447.0,2150.005093110004,2146.471093110004,2157.177093110004
137,3,21,Female,1,3,129.0,15,2,high,2 + 9 + 1 + 1 - 5,8,8,7,6,2159.7148738000105,2161.742708899997,2163.257893000002,2168.275889800003,2168.9041487000068,2168.904153700001,2170.420524000001,2171.4373059000063,q,8.0,0.628258900003857,1,+10,713,-27.423410734612748,0.4596948373889944,0.039333728067805884,2061991.0,9.360320828386435,0.4379939394470247,0.054971076608509195,2065525.0,5.266264060123963,0.7302923760651954,-0.008084591038963751,2113431.0,2163.255093110004,2159.721093110004,2211.161093110004
138,3,21,Female,1,3,130.0,16,3,high,4 + 8 - 3 + 5 - 1,13,13,14,12,2172.9542445999978,2174.980815900009,2176.4956692999986,2181.5138633000024,2183.440128000002,2183.4401335,2184.957112000004,2185.9750596000085,q,13.0,1.9262646999995925,1,+10,723,7.08594677194986,0.4366489752527114,0.08228449541516047,2075230.0,-2.1937603774365986,-0.16337699234785408,0.0333334308582951,2078763.0,8.51433754658325,-0.38622776712595996,-1.5098356238554338,2087223.0,2176.493093110004,2172.960093110004,2184.953093110004
139,3,21,Female,1,3,131.0,17,3,low,7 - 1 + 8 - 6 + 4,12,12,13,11,2187.4917139000027,2189.5163440000038,2191.0313269000035,2196.0497053,2196.568102899997,2196.568111200002,2198.084375700011,2199.1012140000093,q,12.0,0.5183975999971153,1,+1,724,8.225549043143413,0.5787788128017697,-0.06149910348231624,2089765.0,-3.487639116771849,0.7959452665046971,0.02411674431015398,2093298.0,1.7635726625406818,-0.04639442517646675,0.005007568372263682,2100350.0,2191.0280931100037,2187.495093110004,2198.080093110004
140,3,21,Female,1,3,132.0,18,2,high,3 + 9 - 1 - 5 + 1,7,5,6,7,2200.6177976000035,2202.6435335999995,2204.1586691999983,2209.176786900003,2209.6481412,2209.6481462000083,2211.165118500008,2212.1827289000066,e,7.0,0.4713542999961646,1,+10,734,27.903440679591895,1.414213819533832,0.1465409858048392,2102892.0,12.957101949360265,0.6746142119784988,-0.15341958405578282,2106425.0,-3.187584686738843,-2.330343049747256,-0.08999775713668123,2207062.0,2204.155093110004,2200.622093110004,2304.792093110004
141,3,21,Female,1,3,133.0,19,3,high,4 + 7 - 3 + 5 - 1,12,11,13,12,2213.6989886000083,2215.726509500004,2217.2415373000117,2222.2601461000013,2223.000208199999,2223.0002134000097,2224.5166754000093,2225.5336554000096,q,11.0,0.7400620999978855,0,+0,734,-6.986729468376973,0.3657403946888378,-0.1301411256793319,2115975.0,-37.22929147839998,0.9016021845165358,-0.033037561703278984,2119509.0,6.948524834775162,-0.16279649541130148,-0.07111004993794201,2234093.0,2217.239093110004,2213.705093110004,2331.823093110004
142,3,21,Female,1,3,134.0,20,4,high,6 + 9 + 7 - 3 - 5,14,12,14,13,2227.050263500001,2229.0753004,2230.590407900003,2235.609006600004,2236.128235000011,2236.128240100006,2237.644656500008,2238.6617657000024,w,14.0,0.5192284000077052,1,+10,744,-12.20282689177072,0.6538988861682764,0.1365452491976631,2129324.0,35.9083543019315,0.45825469197974655,0.0882206606030862,2132858.0,32.81927098995648,0.011126756526775416,0.06450299100613144,2166582.0,2230.588093110004,2227.054093110004,2264.312093110004
143,3,21,Female,1,3,135.0,21,1,low,4 + 8 + 1 - 1 - 1,11,13,9,11,2240.1783715000056,2242.2050349000056,2243.720384100001,2248.7385936000064,2249.4722322000016,2249.4722378000006,2250.9887738000107,2252.00565620001,e,11.0,0.7336385999951744,1,+1,745,-10.70014288866361,-0.6983692100034715,0.03722260318667803,2142453.0,-44.37732539233701,0.23898509404149326,0.10303725006151154,2145987.0,14.200258695805058,-0.83017666917284,0.054516839179747034,2153254.0,2243.717093110004,2240.183093110004,2250.984093110004
144,3,21,Female,1,3,136.0,22,4,high,8 + 3 - 4 + 5 + 9,21,21,22,23,2253.522251000002,2255.55080170001,2257.0659096000018,2262.084077599997,2262.8001814000017,2262.80018630001,2264.316393400004,2265.3330970000097,q,21.0,0.7161038000049302,1,+10,755,-23.058347238899202,0.9695800953392997,-0.0031407438312971436,2155799.0,-8.746581199883508,-0.4553120801399846,0.06831748628672085,2159333.0,-5.637368221767549,0.29361143937560463,-0.00670618207346152,2179950.0,2257.063093110004,2253.529093110004,2277.680093110004
145,3,21,Female,1,3,137.0,23,4,low,2 + 5 - 3 + 9 + 8,21,19,22,21,2266.849419700011,2268.875832899997,2270.3907745000038,2275.408768399997,2276.168294800009,2276.168299900004,2277.684595800005,2278.70136810001,e,21.0,0.7595264000119641,1,+1,756,-10.542601219277177,1.528880627330662,0.09022000231997018,2169124.0,-30.540490549988895,0.5519531264976258,0.011504451669262172,2172657.0,-6.549457418789334,1.225057059107344,-4.888665182979786,2220430.0,2270.387093110004,2266.8540931100038,2318.160093110004
146,3,21,Female,1,3,138.0,24,1,low,6 + 1 + 1 + 9 - 1,16,16,15,14,2280.2181882000004,2282.246308300004,2283.7611979000067,2288.778812999997,2289.792248900005,2289.7922541000007,2291.308657200003,2292.3253251999995,q,16.0,1.0134359000076074,1,+1,757,4.848352765578422,-0.25894274588983723,-0.013454427327928009,2182495.0,23.89278744325788,-0.1766541896678584,-0.12528627029132733,2186028.0,19.267164142973627,-2.097455054493415,0.06192634954985654,2193574.0,2283.7580931100038,2280.225093110004,2291.304093110004
147,3,21,Female,1,3,139.0,25,2,high,8 + 1 + 4 - 7 + 1,7,5,7,6,2293.8419602000067,2295.868554400004,2297.3833626999985,2302.4019921,2303.280242599998,2303.280248199997,2304.7969230000017,2305.813768699998,w,7.0,0.8782504999981029,1,+10,767,-4.502376142361112,-0.10824935827312121,-0.13900917908340182,2196117.0,27.4341229236984,0.6311054307067705,0.0604094366553769,2199650.0,1.670479848285506,-0.16723074888378786,-0.028734532974773686,2274686.0,2297.380093110004,2293.847093110004,2372.416093110004
148,3,21,Female,1,3,140.0,26,4,low,3 + 8 - 4 + 9 + 7,23,22,23,24,2307.3303853000107,2309.3553287000104,2310.8701913999976,2315.889082100009,2316.6482878000097,2316.648293300008,2318.16466770001,2319.1817675000057,w,23.0,0.759205700000166,1,+1,768,-16.268621993088374,-0.3624121305934702,0.10447511796894293,2209604.0,17.397185703662466,0.30808557191705166,-0.005650339599131415,2213137.0,11.544348321407005,-0.07684980999017199,0.023639661866747597,2247590.0,2310.867093110004,2307.334093110004,2345.320093110004
149,3,21,Female,1,3,141.0,27,3,low,3 + 1 + 6 - 8 + 9,11,13,11,12,2320.6984066000005,2322.726228200001,2324.241693000004,2329.2596067999984,2330.312179600005,2330.312184299997,2331.828201000011,2332.844544899999,w,11.0,1.052572800006601,1,+1,769,-4.136707733802435,1.0225458160357395,0.09128975154771157,2222975.0,-16.311564555645553,0.9532988947674319,0.09848013136237066,2226508.0,8.33771851718168,-0.6809046227929016,-0.14143178643880794,2261438.0,2324.238093110004,2320.705093110004,2359.168093110004
150,3,21,Female,1,3,142.0,28,4,low,8 + 4 - 5 + 7 - 6,8,7,6,8,2334.3611518000107,2336.3878419000102,2337.902928399999,2342.9214558000094,2343.8082227999985,2343.8082278000074,2345.3248240000103,2346.3418974000087,e,8.0,0.8867669999890495,1,+1,770,7.5314633323446145,1.0967208445972165,0.05382210876727034,2236636.0,-6.150368845610391,0.39884085502503464,0.0001659198294094999,2240170.0,7.693759503495471,-1.2297730535201437,0.06973861798885794,2314942.0,2337.900093110004,2334.366093110004,2412.672093110004
151,3,21,Female,1,3,143.0,29,3,high,8 + 5 + 1 - 7 + 9,16,16,17,14,2347.858415900002,2349.8846958000067,2351.399477800005,2356.4179455999983,2357.6562585000065,2357.656263500001,2359.1725753000064,2360.189618400007,q,16.0,1.238312900008168,1,+10,780,4.87457053590342,-0.4074874314932009,0.054616146258678056,2250133.0,29.068389270530908,0.27237833297657765,0.05560801751671285,2253666.0,28.25545704863282,-0.09873010470405319,0.04256004326512519,2430886.0,2351.396093110004,2347.863093110004,2528.616093110004
152,3,21,Female,1,3,144.0,30,2,high,9 + 6 + 1 + 7 + 1,24,24,23,25,2361.706303800005,2363.7343886000017,2365.2492573000054,2370.267128600012,2370.9042835,2370.9042888000117,2372.4207184999977,2373.437809700001,q,24.0,0.6371548999886727,1,+10,790,8.628407074810976,-0.39258576857239813,0.0894004430438966,2263982.0,12.802764704183895,-0.2530638661450384,0.15414432370000042,2267516.0,-5.29562311214106,-1.3536861715916366,-0.041093199663353897,2328670.0,2365.246093110004,2361.712093110004,2426.400093110004
153,3,21,Female,1,3,145.0,31,1,low,4 + 9 + 1 - 1 - 1,12,11,12,13,2374.954670600011,2376.9822306999995,2378.497397900006,2383.5153182000067,2384.232199899998,2384.232204800006,2385.7496250000117,2386.7668809000024,w,12.0,0.7168816999910632,1,+1,791,36.36042070127263,-0.17486276229108366,-0.07358919029689703,2277231.0,7.550423285417109,1.7239499969967573,-0.05270690239945619,2280764.0,-9.055055063694576,-1.3075427657775789,0.10394691255975852,2288015.0,2378.494093110004,2374.961093110004,2385.745093110004
154,3,21,Female,1,3,146.0,32,1,low,6 + 9 + 1 + 1 - 1,16,16,14,15,2388.2835605,2390.307861699999,2391.8233299999997,2396.84123250001,2397.6643397000007,2397.6643449999974,2399.1805022000044,2400.197117600008,q,16.0,0.8231071999907726,1,+1,792,5.22217826932909,0.274263009316444,0.010247478648432562,2290556.0,10.850230930078855,-0.4381369202200638,-0.08083368917061207,2294089.0,16.628613624448764,-0.3483075960111819,0.03781010237531879,2301445.0,2391.819093110004,2388.286093110004,2399.175093110004
155,3,21,Female,1,3,147.0,33,4,high,7 + 6 + 8 - 4 + 5,22,23,21,22,2401.7137374000013,2403.741565400007,2405.256699500009,2410.275239900002,2411.1602671,2411.160272100009,2412.676862500012,2413.693847600007,e,22.0,0.8850271999981487,1,+10,802,-0.2564683975092876,0.9530046681727073,-0.07885452573261587,2303990.0,5.571176339434832,1.008273977625989,-0.08807373667222218,2307523.0,-10.857639463793976,0.675904874102347,1.0013152285447229,2470733.0,2405.253093110004,2401.7200931100037,2568.463093110004
156,3,21,Female,1,3,148.0,34,2,low,4 + 8 + 1 + 1 - 5,9,9,11,8,2415.2106648000045,2417.2385829999985,2418.753408400007,2423.771284200004,2424.888345200001,2424.888350399997,2426.4047094999987,2427.4214298000006,q,9.0,1.117060999997193,1,+1,803,1.685635198597506,0.06050186309926531,-0.0300910943000241,2317487.0,10.866429217300142,-1.8750316980702681,-0.02395863774337781,2321020.0,3.8601434879369645,-0.17545162998322006,0.7476445647023326,2444214.0,2418.750093110004,2415.217093110004,2541.944093110004
157,3,21,Female,1,3,149.0,35,1,high,3 + 1 + 9 + 1 - 1,13,12,14,13,2428.938190500005,2430.9656428000017,2432.4808926999976,2437.4986609000043,2438.104259800006,2438.104264499998,2439.621090200002,2440.6380994000065,e,13.0,0.6055989000014961,1,+10,813,-23.354003949477562,1.1382288554185243,-0.09991460854600098,2331214.0,3.6016835290555393,0.5437376259440585,0.17377635944997172,2334747.0,19.530559068094743,-1.0491833863070106,-0.10031447295604012,2341886.0,2432.477093110004,2428.944093110004,2439.616093110004
158,3,21,Female,1,3,150.0,36,1,high,8 + 1 + 4 + 1 + 1,15,15,14,16,2442.154687500006,2444.1787115000043,2445.693699299998,2450.7113054000074,2451.4003066000005,2451.400311600009,2452.916811600008,2453.933788200011,q,15.0,0.6890011999930721,1,+10,823,-9.994805080513412,0.09047209984265958,0.08803553010649345,2344427.0,-0.35645550167158646,1.4637410902340227,0.06579417182487468,2347960.0,10.190465129340804,-0.645162507606833,0.049301387530364504,2355182.0,2445.690093110004,2442.157093110004,2452.9120931100038
159,3,21,Female,1,3,151.0,37,1,low,8 + 1 + 1 - 1 - 4,5,3,5,6,2455.45032850001,2457.4756390999974,2458.9908288000006,2464.009116900008,2464.9123017000093,2464.912306500002,2466.4287254000083,2467.445473,w,5.0,0.903184800001327,1,+1,824,-1.6051889872650253,-1.3790757146813313,0.01942246140667625,2357724.0,-50.35739253143759,1.740806138649873,0.07296037300220282,2361257.0,2.4379499229991666,-2.0307274873661196,0.048268763967599826,2368693.0,2458.987093110004,2455.454093110004,2466.423093110004
160,3,21,Female,1,4,152.0,0,1,high,3 + 1 + 8 + 1 + 1,14,14,16,13,2504.5803893999982,2506.606755400004,2508.1218514000066,2513.1411203000025,2513.712290100011,2513.7122948000037,2515.2286399000004,2516.246106999999,q,14.0,0.5711698000086471,1,+10,834,9.046618643317247,-0.6420379936127878,-0.09260557714892625,2406855.0,5.2761617013535265,-0.3685838415489744,0.09107271826078445,2410389.0,-7.785522489827052,-0.683386356284613,-0.34975854183720867,2417494.0,2508.119093110004,2504.585093110004,2515.224093110004
161,3,21,Female,1,4,153.0,1,3,high,7 - 1 + 8 - 6 + 4,12,13,12,11,2517.763236300001,2519.7884724000032,2521.3034128,2526.32174140001,2527.104280200001,2527.104285300011,2528.6206821000087,2529.6381096999976,w,12.0,0.7825387999910163,1,+10,844,43.94984314389705,0.25514337342942994,-0.0019303011578464258,2420036.0,-9.412757205742274,1.0630970581688017,-0.058077040549723735,2423570.0,-9.71307917144417,-1.6606973988108265,-0.005759088613295216,2457453.0,2521.300093110004,2517.766093110004,2555.183093110004
162,3,21,Female,1,4,154.0,2,2,high,5 + 7 - 8 + 1 + 1,6,8,7,6,2531.1548388000083,2533.1830251000065,2534.6977082000085,2539.716256300002,2540.4323710000026,2540.4323764,2541.9489787000057,2542.96607960001,e,6.0,0.7161147000006167,1,+10,854,31.326577000348347,-0.06015911752757752,0.10482142514886594,2433431.0,8.650987329413917,0.557967260248081,0.04691542061041476,2436964.0,-3.4474116071286947,0.24495264471759182,-0.06020848554120661,2484046.0,2534.694093110004,2531.161093110004,2581.776093110004
163,3,21,Female,1,4,155.0,3,3,low,2 - 4 + 9 + 7 + 1,15,13,16,15,2544.4828179000037,2546.510913799997,2548.026094300003,2553.044851800005,2553.672385900005,2553.6723913000023,2555.1888168000005,2556.20554000001,e,15.0,0.6275341000000481,1,+1,855,-27.936248150954007,0.34087517715253757,0.05650861759314152,2446759.0,-49.49814597559727,1.1736578237500108,-0.0707989965435678,2450292.0,-6.434187140578196,-0.9813422960371643,-0.11999423642889373,2567941.0,2548.022093110004,2544.489093110004,2665.6710931100038
164,3,21,Female,1,4,156.0,4,4,high,9 + 4 - 6 + 8 + 7,22,22,21,24,2557.7211443999986,2559.745631900005,2561.260832400003,2566.2791116000008,2566.952308599997,2566.9523134000046,2568.4684167000087,2569.484721800007,q,22.0,0.6731969999964349,1,+10,865,39.27879044091202,0.6810049722168876,0.13143987266382684,2459993.0,-43.10964692403249,0.7420401184710217,-0.051039928799478274,2463527.0,5.965237221863465,0.04896874347495128,-2.966350344884081,2511013.0,2561.257093110004,2557.723093110004,2608.743093110004
165,3,21,Female,1,4,157.0,5,2,high,6 + 1 + 8 + 7 - 1,21,19,21,23,2571.001680000001,2573.029797199997,2574.544995700009,2579.563342399997,2580.2643639000016,2580.2643690999976,2581.7810522000077,2582.798435000004,w,21.0,0.7010215000045719,1,+10,875,-26.901277337235644,0.9560248697472953,0.006403967613857198,2473277.0,18.028497725654802,0.665516873002777,0.004741147977373128,2476811.0,41.94954070786812,-1.5566562422242032,0.09790235051564511,2540045.0,2574.541093110004,2571.007093110004,2637.775093110004
166,3,21,Female,1,4,158.0,6,1,low,7 + 1 + 6 + 1 + 1,16,18,17,16,2584.314745100012,2586.3418389,2587.8569862000004,2592.874474299999,2593.4244244,2593.4244302000006,2594.941094599999,2595.9577889000066,e,16.0,0.549950100001297,1,+1,876,14.871289511287326,0.14092396407195462,0.015471804099736586,2486589.0,-14.203094509215418,0.6934988362656958,-0.01761507487858971,2490122.0,1.0207222993117044,0.7452041360508719,0.007538427873316822,2497205.0,2587.852093110004,2584.319093110004,2594.935093110004
167,3,21,Female,1,4,159.0,7,4,low,5 + 8 - 4 - 6 + 9,12,13,14,12,2597.4748083000013,2599.5000714000053,2601.0150741000107,2606.0333641000034,2607.232489000002,2607.2324943999997,2608.7490026000014,2609.765594099997,e,12.0,1.1991248999984236,1,+1,877,1.6038370475236654,1.7202588046523184,0.04369122776194834,2499747.0,25.320328753574515,1.6031139833021193,0.009564604545777566,2503281.0,-5.178481432845919,-0.3526334349889364,-0.07556067898225982,2689117.0,2601.011093110004,2597.477093110004,2786.847093110004
168,3,21,Female,1,4,160.0,8,1,low,5 + 6 + 1 + 1 + 1,14,13,14,16,2611.282181200004,2613.3086350000085,2614.8237195999973,2619.841328000009,2621.504378700003,2621.5043836999976,2623.0207891000027,2624.037804300009,w,14.0,1.6630506999936188,1,+1,878,0.7977055678140843,0.8029555712453984,0.052828544341805506,2513556.0,16.73840264197247,0.4555694721392216,0.11901476037884828,2517089.0,-3.483716183980423,0.2348067092977253,0.03399819539091342,2525285.0,2614.819093110004,2611.286093110004,2623.015093110004
169,3,21,Female,1,4,161.0,9,2,low,6 + 1 + 7 - 8 - 1,5,7,5,4,2625.554502200001,2627.5794971,2629.0943843999994,2634.1143526000087,2636.26459050001,2636.264595700006,2637.780682299999,2638.797144000011,w,5.0,2.1502379000012297,1,+1,879,5.99108173878662,0.047457811345158696,-0.028318324601910083,2527827.0,14.00417074619228,0.777153967444109,0.11649803458117614,2531362.0,13.377207303922212,1.092572537618747,-0.07756233553670677,2581149.0,2629.092093110004,2625.557093110004,2678.879093110004
170,3,21,Female,1,4,162.0,10,1,high,7 - 1 + 1 + 9 - 1,15,14,13,15,2640.313812000008,2642.341072299998,2643.8561026000098,2648.8742636000097,2650.1444660999987,2650.1444715000107,2651.661120500008,2652.6784204,e,15.0,1.2702024999889543,1,+10,889,7.932604517191507,1.3808163484815021,0.032167712367271006,2542588.0,8.277113976444909,0.022052923606042718,0.00818551000334189,2546122.0,12.218538255146019,0.33616309914199594,0.05165666696053095,2553925.0,2643.852093110004,2640.318093110004,2651.655093110004
171,3,21,Female,1,4,163.0,11,3,high,7 + 1 + 9 + 5 - 6,16,14,16,15,2654.1947672000097,2656.218383600004,2657.7336216000112,2662.7531935000006,2664.160420900007,2664.160425599999,2665.676825900009,2666.6937776999985,w,16.0,1.4072274000063771,1,+10,899,-38.95361608284513,-1.6127679195533116,-0.025963973358546832,2556466.0,-14.35351019995969,0.5613565989904821,-0.06116323748382735,2560000.0,-37.295194356402476,-1.5628705112669077,0.12302381189536571,2636013.0,2657.730093110004,2654.196093110004,2733.743093110004
172,3,21,Female,1,4,164.0,12,2,high,3 + 1 + 8 - 5 - 1,6,7,6,5,2668.2102087000094,2670.236984100004,2671.7510782000027,2676.769521299997,2677.368350500008,2677.3683554000017,2678.884725600001,2679.901728099998,w,6.0,0.598829200011096,1,+10,909,-54.060367303924096,-1.2364480392623562,-0.025317853811360758,2570484.0,13.930605451314952,1.9289658763841362,-0.08534165657860604,2574017.0,-23.416869990123494,-0.865862250808763,0.05262876706230646,2595397.0,2671.747093110004,2668.214093110004,2693.127093110004
173,3,21,Female,1,4,165.0,13,2,low,8 + 1 + 1 + 9 - 4,15,15,14,16,2681.4182531999977,2683.445643400002,2684.960663799997,2689.9786984000093,2691.6164378000103,2691.6164434000093,2693.1328535000066,2694.1503512000054,q,15.0,1.63773940000101,1,+1,910,-28.331672478397483,0.8210649391542422,-0.021550960202231018,2583692.0,3.889585163358159,1.879174855313864,0.1119243978485418,2587226.0,13.538662562453446,0.035991411505658544,0.06964847815081288,2608902.0,2684.956093110004,2681.422093110004,2706.632093110004
174,3,21,Female,1,4,166.0,14,2,high,7 + 1 + 9 - 1 - 8,8,8,6,7,2695.667430900008,2697.693011299998,2699.2078335999977,2704.2274927000108,2705.120547900005,2705.1205531000014,2706.6377838000044,2707.6546635999985,q,8.0,0.8930551999947056,1,+10,920,6.236418651942236,-0.37629596344256644,-0.05509341736994133,2597940.0,8.428079172917158,1.6175942408700905,-0.04880599667715946,2601475.0,-12.738330038111794,0.8477727114043057,-2.6759043762808816,2649396.0,2699.205093110004,2695.670093110004,2747.126093110004
175,3,21,Female,1,4,167.0,15,1,high,2 + 9 + 1 + 1 + 1,14,13,12,14,2709.171300000002,2711.198739200001,2712.71376910001,2717.7315096000093,2718.504528600009,2718.504534000007,2720.021062300002,2721.038399500001,e,14.0,0.773019000000204,1,+10,930,15.201707986082262,0.5071865673995597,-0.0032605422830231934,2611446.0,3.180283084887892,0.9313327892744532,0.018448781246239276,2614979.0,4.341071212872185,1.675555837069691,-0.07181308686574916,2622285.0,2712.709093110004,2709.176093110004,2720.015093110004
176,3,21,Female,1,4,168.0,16,3,high,8 + 3 + 1 - 7 + 9,14,12,14,15,2722.5550818000047,2724.57867670001,2726.093863300004,2731.113102600008,2732.2324372000003,2732.2324421000085,2733.749094700004,2734.766009400002,w,14.0,1.119334599992726,1,+10,940,-4.808745005211051,0.6953701269368788,0.18627251683357082,2624825.0,1.6959351819184505,0.4428571146366176,-0.1079565827907234,2628361.0,-17.049519167732218,-0.053185602067854054,-0.08032508436334518,2662574.0,2726.091093110004,2722.555093110004,2760.304093110004
177,3,21,Female,1,4,169.0,17,2,low,4 + 1 + 9 + 1 - 6,9,7,9,8,2736.282750600003,2738.307063,2739.8220379999984,2744.839501299997,2745.616431000002,2745.616435700009,2747.132665900004,2748.1498524000053,w,9.0,0.7769297000049846,1,+1,941,-56.64736365906612,1.001523275228176,-0.01605310083002931,2638554.0,6.915326119562772,1.31929537631857,-0.1634071949423086,2642087.0,-9.794396547649878,-0.8968216015462223,-0.085790808517614,2675781.0,2739.817093110004,2736.284093110004,2773.511093110004
178,3,21,Female,1,4,170.0,18,3,high,2 + 9 - 3 + 4 + 1,13,11,13,14,2749.6665498000075,2751.694959200002,2753.2100956000068,2758.22823790001,2758.792694500007,2758.7927000000054,2760.30958310001,2761.326637799997,w,13.0,0.5644565999973565,1,+10,951,15.065447099750841,0.4805454960805493,-0.027704216414567773,2651942.0,-0.20692395616767056,1.375766907223753,0.038241647027209114,2655475.0,-14.225134409054428,-0.4647179936027417,0.0065935703471105,2770789.0,2753.205093110004,2749.672093110004,2868.519093110004
179,3,21,Female,1,4,171.0,19,2,low,3 - 1 + 9 - 5 + 1,7,6,5,7,2762.8435655000067,2764.86866800001,2766.3839586000104,2771.4029591,2772.000523900002,2772.000528900011,2773.5169618000077,2774.5335773999977,e,7.0,0.5975648000021465,1,+1,952,15.860941711686998,1.1866711686587401,-0.05707566386607632,2665116.0,-7.2800100276642326,1.7336953673779307,0.0031511368561221165,2668650.0,16.30602086920377,0.9122655468050964,-0.05212554897252497,2702452.0,2766.380093110004,2762.846093110004,2800.182093110004
180,3,21,Female,1,4,172.0,20,4,low,4 + 7 + 8 - 3 + 9,25,25,26,24,2776.0501609000057,2778.0778872000083,2779.593026300005,2784.6125242999988,2785.336469300004,2785.336474099997,2786.853036600005,2787.8695582000078,q,25.0,0.7239450000051875,1,+1,953,-23.550041425625754,0.20562032389413964,0.039942112239629735,2678324.0,2.3254821145323694,1.1751945717525767,0.16110783995819888,2681859.0,-42.970675265294375,-1.6336804702732062,0.08557770444684731,2715773.0,2779.589093110004,2776.054093110004,2813.503093110004
181,3,21,Female,1,4,173.0,21,2,low,3 + 8 + 1 - 5 + 1,8,8,6,9,2789.386022100007,2791.418683600001,2792.934444600003,2797.953851400001,2798.672472799997,2798.672477900007,2800.1884987000085,2801.205228699997,q,8.0,0.7186213999957545,1,+1,954,6.381931208993084,-0.9587820748590725,0.013430354433017211,2691666.0,14.299537425821908,1.2562672215252624,0.09786981468926248,2695201.0,3.5354829246857875,0.3903918077072994,0.017096101399030506,2743252.0,2792.931093110004,2789.396093110004,2840.982093110004
182,3,21,Female,1,4,174.0,22,4,high,2 + 9 - 6 + 8 - 4,9,9,7,11,2802.7216056000034,2804.749138600004,2806.2639525999984,2811.2828410000075,2811.99257100001,2811.992576000004,2813.509000799997,2814.526226300004,q,9.0,0.7097300000023097,1,+10,964,15.09301200633594,0.8740840007189576,0.05157365727745877,2704996.0,-17.78883937565251,1.3222815196588775,-0.1122000410943278,2708529.0,17.499747523497618,-1.1562642970836245,1.7497280274986782,2730028.0,2806.259093110004,2802.726093110004,2827.7580931100038
183,3,21,Female,1,4,175.0,23,4,low,8 + 4 + 7 - 5 - 6,8,9,8,6,2816.0429042000032,2818.0713811000023,2819.5864164000086,2824.6048587999976,2826.248500300004,2826.2485051000112,2827.764924300005,2828.7815899999987,w,8.0,1.643641500006197,1,+1,965,-30.371889046262172,-0.3621183378117454,-0.06661220874999807,2718318.0,-20.3491931607019,1.6926845061683662,-0.04561927449100933,2721852.0,2.936260577939502,0.4826733300015711,0.07999820270846625,2756757.0,2819.582093110004,2816.048093110004,2854.487093110004
184,3,21,Female,1,4,176.0,24,2,low,5 + 9 - 8 + 1 + 1,8,8,7,9,2830.298100400003,2832.32651720001,2833.8414185,2838.8598097000067,2839.4725786000054,2839.472584100004,2840.9890030000097,2842.005532100011,q,8.0,0.6127688999986276,1,+1,966,-8.32601943194236,-0.7677569492903258,-0.16709461618594923,2732573.0,-3.6373238038388607,0.4568305939759414,0.04732248443969178,2736107.0,-9.45380978755571,1.152135186783199,-0.07558122629773822,2824077.0,2833.837093110004,2830.303093110004,2921.807093110004
185,3,21,Female,1,4,177.0,25,4,low,3 + 9 - 5 + 8 - 7,8,7,8,9,2843.5217594999995,2845.5488724000024,2847.0638167,2852.0824110000103,2852.976586400008,2852.976592200008,2854.493190100009,2855.509932300003,w,8.0,0.8941753999970388,1,+1,967,-15.425866067449654,0.1036060304173434,0.15343170069352707,2745796.0,11.49924066193401,1.5166050215417206,0.14009414047936075,2749329.0,-17.65684049468456,-0.17016654739209258,0.01605261431677829,2810812.0,2847.059093110004,2843.526093110004,2908.542093110004
186,3,21,Female,1,4,178.0,26,3,high,3 + 1 + 8 - 5 + 6,13,14,15,13,2857.0269058999984,2859.052928600009,2860.5680547000084,2865.585837999999,2867.0084909,2867.008496000009,2868.524879100005,2869.5420060000038,e,13.0,1.422652900000685,1,+10,977,-12.12190760961941,0.27243798443577827,0.020897074871267796,2759300.0,-5.94093541881487,-0.293487984246493,0.01925483977610254,2762833.0,-3.182771911674969,-1.4034247605494956,0.01954407352917209,2784044.0,2860.563093110004,2857.030093110004,2881.774093110004
187,3,21,Female,1,4,179.0,27,3,high,6 + 7 + 8 + 1 - 9,13,14,13,15,2871.0585002000007,2873.083088500003,2874.59818120001,2879.6173423,2880.26458480001,2880.264590000006,2881.780684700003,2882.7975056,w,13.0,0.6472425000101794,1,+10,987,-38.739136840206605,1.4756266394282074,0.04125806846623492,2773330.0,3.520484142998898,0.22008324767898113,-0.011567934829860738,2776863.0,4.75895886026536,0.008550519512175114,0.050946933454856014,2797348.0,2874.593093110004,2871.060093110004,2895.078093110004
188,3,21,Female,1,4,180.0,28,3,low,3 + 1 + 8 - 5 + 9,16,16,17,15,2884.3143937999994,2886.340925700002,2887.8561573000043,2892.8741359999985,2893.5685275,2893.5685325000086,2895.0848979,2896.1016951000056,q,16.0,0.6943915000010747,1,+1,988,20.435852708352414,-0.20397438204018492,0.010688068035251908,2786588.0,7.076176935077683,2.140144265347664,0.07706307763228648,2790121.0,14.446117053230001,0.014421827459687231,-0.21425124375244353,2973516.0,2887.851093110004,2884.318093110004,3071.246093110004
189,3,21,Female,1,4,181.0,29,4,high,3 + 9 - 4 + 7 + 6,21,21,19,20,2897.6184358000028,2899.6444270000065,2901.159556300001,2906.178115400005,2907.032675800001,2907.0326806000085,2908.5488035000017,2909.565578000009,q,21.0,0.8545603999955347,1,+10,998,-6.8844808903771675,-0.2084336596665377,0.02059418227743648,2799891.0,6.761644252359401,1.2970386319061333,0.024576793369439187,2803425.0,22.626080660165066,3.171640409907627,-2.3162931582879542,2850828.0,2901.155093110004,2897.621093110004,2948.558093110004
190,3,21,Female,1,4,182.0,30,2,high,7 + 5 + 1 - 1 - 8,4,4,3,2,2911.082321599999,2913.109278300006,2914.6243787999992,2919.642484199998,2920.296546400001,2920.29655140001,2921.812833300006,2922.830079699997,q,4.0,0.6540622000029543,1,+10,1008,-15.818642311235081,-2.214991171499224,2.5508125145566907,2813356.0,-2.0873752026973413,0.6599165866080856,-0.16737689218437324,2816889.0,-2.130483196047246,0.09855794671589724,0.044605627546759674,2837612.0,2914.619093110004,2911.086093110004,2935.342093110004
191,3,21,Female,1,4,183.0,31,2,low,6 + 1 + 1 + 8 - 9,7,7,5,9,2924.346748199998,2926.3735782000003,2927.888703999997,2932.9078641000087,2933.832586999997,2933.832592200008,2935.349035600011,2936.365960199997,q,7.0,0.92472289998841,1,+1,1009,-13.01392596046442,-0.9943747141632802,-0.042654562696997855,2826620.0,-1.5732084321454742,0.06955625330393023,0.1405027749516503,2830154.0,-4.247531518888874,-1.4868957384808787,-0.031792407560526925,2864044.0,2927.884093110004,2924.350093110004,2961.774093110004
192,3,21,Female,1,4,184.0,32,4,low,8 + 7 - 4 + 5 + 9,25,25,26,24,2937.882508499999,2939.909500599999,2941.424680000011,2946.4430900000007,2947.048692000011,2947.048697300008,2948.565083499998,2949.5816784000053,q,25.0,0.6056020000105491,1,+1,1010,29.86348760815227,-0.16330251687791275,0.09104660241771967,2840156.0,6.115654997602871,0.5364155708952696,0.06760440101811382,2843690.0,15.778672227887355,-2.1511151594054,-0.025315659640134713,2890829.0,2941.420093110004,2937.886093110004,2988.559093110004
193,3,21,Female,1,4,185.0,33,2,low,4 + 9 - 7 + 1 - 1,6,5,6,8,2951.098149500001,2953.125389599998,2954.641135700004,2959.6604480000096,2960.264692099998,2960.2646971000067,2961.7810508999974,2962.7977850000025,w,6.0,0.6042440999881364,1,+1,1011,3.133092009658675,0.9665875948586056,-0.05032493495215706,2853372.0,-14.856587142574366,0.41306168397246434,0.10042944806254717,2856907.0,-5.698315565461005,-1.1675482160558373,0.150241767582032,2877524.0,2954.637093110004,2951.102093110004,2975.254093110004
194,3,21,Female,1,4,186.0,34,2,low,3 + 8 - 5 + 1 + 1,8,6,9,8,2964.3144625999994,2966.3387586000026,2967.8536950999987,2972.87198180001,2973.744581600011,2973.744587100009,2975.2614630000025,2976.278156400004,e,8.0,0.8725998000008985,1,+1,1012,-6.306966719251113,-0.9339333163740662,-0.05366862106205428,2866585.0,-29.346860134326015,1.8541373380776545,-0.024339899197320047,2870118.0,19.48888463201959,-1.0473142834389817,1.9780121525782057,2921693.0,2967.848093110004,2964.315093110004,3019.423093110004
195,3,21,Female,1,4,187.0,35,4,high,7 + 8 - 4 + 6 - 5,12,13,11,12,2977.794729500005,2979.821132600002,2981.3362353999983,2986.3546068,2987.0485867000098,2987.048591700004,2988.5650546000106,2989.582294100008,e,12.0,0.693979900010163,1,+10,1022,6.730626162089887,1.7176758488448787,-0.06566896776967823,2880067.0,5.840538637350889,0.8356637735322261,0.026493622852066467,2883601.0,,,,,2981.331093110004,2977.797093110004,
196,3,21,Female,1,4,188.0,36,3,low,6 + 8 + 7 + 1 - 9,13,13,14,15,2991.099020300011,2993.123951600006,2994.6389632000064,2999.6572921000043,3004.673380100008,3004.673382599998,3006.189883800005,3007.2236599000025,,,,0,Too Slow!,1022,-2.125433500419419,1.86846783438956,-0.2891136093196285,2893370.0,26.27866923941074,2.1902845595766767,0.1131652854844094,2896904.0,2.215794601739006,0.33777811057717244,0.8096274731302815,2908469.0,2994.634093110004,2991.100093110004,3006.199093110004
197,3,21,Female,1,4,189.0,37,2,high,2 + 1 + 9 - 4 + 1,9,8,11,9,3008.74024140001,3010.7687269000016,3012.283829100008,3017.302681400004,3017.9127341999992,3017.9127395000105,3019.4294544000004,3020.4472771,e,9.0,0.6100527999951737,1,+10,1032,-38.88364442967846,-1.3354022221707735,-1.5714550796036324,2911014.0,-16.807746179711174,-0.600956902772313,-0.06437047639999127,2914549.0,,,,,3012.279093110004,3008.744093110004,
198,3,21,Female,1,5,190.0,0,3,low,5 + 6 + 7 - 1 - 9,8,9,8,7,3060.644292500001,3062.667985500011,3064.182595200007,3069.2024761000066,3069.7367335000017,3069.736738599997,3071.253374500011,3072.270176000005,w,8.0,0.5342573999951128,1,+1,1033,-2.70152662263407,1.3117302955853551,-0.3465911677292455,2962914.0,19.93795155402998,1.377020956489176,0.15467930937090424,2966449.0,,,,,3064.179093110004,3060.644093110004,
