,id,age,sex,cued,block,trial,trialinblock,efflev,rewlev,calc,corAns,option1,option2,option3,tstart,ITI1Time,probTime,respTime,selectTime,ITI2Time,fbTime,ITI3Time,key_press,chosenAns,RT,acc,feedback,total_points,cuescr,cuecor,cuezyg,cuetime,probscr,probcor,probzyg,probtime,fbscr,fbcor,fbzyg,fbtime,probtime_c,cuetime_c,fbtime_c
0,40,24,f,0,Practice,,0,1,0,4 + 1 + 9 + 1 + 1,16,14,15,16,63.17936090007424,,63.17936299997382,68.2071861999575,69.03956330008805,69.03956970013678,70.55647750012577,71.57710140012205,e,16.0,0.8323771001305431,1,Correct,0,,,,,2.753089087394202,-0.6605303091193928,-0.031234832983024763,62444.0,-18.57693606176701,-0.06065605993131307,0.05893163886902819,69814.0,63.19691336954934,,70.56691336954933
1,40,24,f,0,Practice,,1,1,0,3 + 1 + 1 + 8 - 1,12,10,12,11,73.09411970013753,,73.09412260004319,78.11507060006261,78.87125280010514,78.87125870003365,80.38828180008568,81.40648230002262,w,12.0,0.7561822000425309,1,Correct,0,,,,,-7.071668443188427,0.6116538757235555,-0.04550757172286124,72352.0,0.029891222337284695,-0.35183566313810566,-0.04849352428427278,79643.0,73.10491336954934,,80.39591336954933
2,40,24,f,0,Practice,,2,2,0,8 + 1 + 6 + 1 - 4,12,10,12,11,82.92430560011417,,82.92432230012491,87.94402100006118,88.55126620014198,88.55127159995027,90.06863060011528,91.08686830010264,w,12.0,0.6072452000807971,1,Correct,0,,,,,5.941850438982145,0.01226123451506922,0.13151697597817913,82181.0,-29.591810547981076,0.1336415370844488,-0.06855345300411897,89324.0,82.93391336954933,,90.07691336954933
3,40,24,f,0,Practice,,3,2,0,9 + 4 - 6 + 1 - 1,7,7,5,6,92.60488940007052,,92.60489269997925,97.62504389998504,99.4473747999873,99.44738100003453,100.96386849996634,101.9810729001183,q,7.0,1.822330900002271,1,Correct,0,,,,,-5.471483345918212,-0.3892515916572279,0.16115391534071755,91862.0,22.248460330851803,-0.6907648965102107,-0.04178181788235413,100218.0,92.61491336954933,,100.97091336954934
4,40,24,f,0,Practice,,4,3,0,9 + 3 - 5 + 6 + 7,20,22,20,21,103.49787480011582,,103.49787770002148,108.51830690004864,109.23939540004358,109.23940180009232,110.7560644999612,111.7735801001545,w,20.0,0.7210884999949485,1,Correct,0,,,,,-7.374611176731481,-0.4193003539107405,0.06984740786668753,102754.0,66.41885046104058,-0.06576529993059399,0.02065125176675986,110010.0,103.50691336954934,,110.76291336954934
5,40,24,f,0,Practice,,5,3,0,2 + 1 + 9 - 7 + 6,11,9,11,10,113.29043769999409,,113.29044060013256,118.30915640015156,118.80739030009136,118.80739680002443,120.32456009997986,121.34290509996936,w,11.0,0.4982338999398052,1,Correct,0,,,,,-12.304007355905629,0.02922025678969664,-0.0068302567326041785,112546.0,-47.2208604151155,-0.7236420399391346,-0.015205553041941489,119579.0,113.29891336954934,,120.33191336954933
6,40,24,f,0,Practice,,6,4,0,4 + 8 + 5 - 3 + 7,21,21,23,22,122.86011929996312,,122.86012229998596,127.88024269999003,128.4953815001063,128.495387500152,130.0121959000826,131.03067070012912,q,21.0,0.6151388001162559,1,Correct,0,,,,,15.71632577669573,1.0504429452367505,-0.0016044767942913207,122117.0,-3.7278298122498192,-0.13606612471535406,-0.06486787530273719,129267.0,122.86991336954934,,130.01991336954933
7,40,24,f,0,Practice,,7,4,0,5 + 8 - 4 + 6 + 9,24,22,23,24,132.54779810016043,,132.54780120006762,137.56759240012616,138.279325600015,138.2793322999496,139.79694569995627,140.81524000014178,e,24.0,0.7117331998888403,1,Correct,0,,,,,-20.62302663271483,0.6283351845911973,0.03737189230635285,131804.0,-12.067894365512927,0.5985592353604838,0.09751747040502323,139052.0,132.55691336954933,,139.80491336954933
8,40,24,f,1,0,0.0,0,3,high,5 + 7 + 1 - 4 + 6,15,13,15,17,232.29330680007115,234.31922019994815,235.8345379999373,240.85316419997253,241.4451046001632,241.4451093999669,242.9618230999913,243.97931240010075,w,15.0,0.5919404001906514,1,+10,10,-6.141967749369606,2.966806095991112,-0.9949103600349882,231555.0,4.2715554477585655,2.4926006161700975,-0.2349276620370393,235089.0,-7.392615690301644,0.4879249424685632,0.07619365000180012,242215.0,235.84191336954933,232.30791336954934,242.96791336954934
9,40,24,f,1,0,1.0,1,3,high,4 + 5 - 3 + 7 - 1,12,12,11,13,245.4961331000086,247.51814940012991,249.0334642000962,254.05224990006536,254.89320540009064,254.8932103000116,256.40986580005847,257.4274693999905,q,12.0,0.8409555000253022,1,+10,20,47.67519252573648,2.067249024383626,-0.06620066624593135,244754.0,-22.961278588403182,0.08655685031167693,-0.1720663831656375,248288.0,-11.75436774877843,0.45415101896643506,0.0315419013456002,255663.0,249.04091336954934,245.50691336954932,256.41591336954934
10,40,24,f,1,0,2.0,2,3,high,8 - 1 + 6 - 7 + 5,11,11,13,12,258.94436600012705,260.967224100139,262.4821198999416,267.50077380007133,269.37321799993515,269.3732241999824,270.8897751001641,271.90727940015495,w,13.0,1.8724441998638213,0,+0,20,12.433821157884978,0.07981564787811557,-0.03137955476678922,258203.0,-29.445454024580506,0.30973432267976264,-0.06052208844940976,261736.0,-5.79360268725737,1.0731579627325578,0.01346761708397004,322839.0,262.4889133695493,258.9559133695493,323.59191336954933
11,40,24,f,1,0,3.0,3,1,low,4 + 9 + 1 - 1 - 1,12,12,13,11,273.4238062000368,275.4471889999695,276.9626096000429,281.9808678999543,282.5730922999792,282.57309710001573,284.08971590013243,285.1065708999522,q,12.0,0.5922244000248611,1,+1,21,-1.1278969722946712,1.4079928661621217,0.006948457219959625,272683.0,22.53197986234313,-1.3348166988666765,0.04790790397149025,276216.0,-0.8866437657080457,0.028931881823314853,-0.017186076254599225,283342.0,276.96891336954934,273.4359133695493,284.0949133695493
12,40,24,f,1,0,4.0,4,4,high,8 + 4 + 7 - 5 - 6,8,7,9,8,286.623340500053,288.6502249999903,290.16521440004,295.1835366000887,295.82123500015587,295.8212403999641,297.33790779998526,298.3549647999462,e,8.0,0.6376984000671655,1,+10,31,53.68265720978488,0.7585583477739899,-0.1351107470239239,285886.0,36.55867328671079,-0.18722433336437483,0.18213666929163264,289419.0,-28.274815865878708,2.3735588231143607,0.002005894935279695,296591.0,290.1719133695493,286.63891336954936,297.34391336954934
13,40,24,f,1,0,5.0,5,2,low,5 + 8 + 1 - 1 + 9,22,23,22,21,299.8718918999657,301.899108099984,303.4142511000391,308.43269319995306,308.9491606000811,308.949165500002,310.4664950999432,311.48390919994563,w,22.0,0.5164674001280218,1,+1,32,12.658041014773477,-0.7209732537745648,0.13620979326726101,299135.0,15.742999462451895,1.006163243452706,-0.022972839280746893,302668.0,23.130941127400988,-0.3977682461856116,0.061547282162093486,309719.0,303.42091336954934,299.8879133695493,310.4719133695493
14,40,24,f,1,0,6.0,6,3,high,2 + 1 + 9 - 4 + 6,14,16,14,15,313.0004243000876,315.0269403001293,316.54219090007246,321.5621083001606,322.06911580008455,322.06912100012414,323.5856970001478,324.60391920013353,w,14.0,0.5070074999239296,1,+10,42,6.9869730534991294,0.8426284065724765,0.0027944304479685655,312262.0,1.111589952957111,0.388867961406568,0.06920538444385738,315798.0,11.080215227276394,-0.8959891384448628,0.07072989351064041,335991.0,316.55091336954933,313.01491336954933,336.7439133695493
15,40,24,f,1,0,7.0,7,3,low,6 + 7 + 8 + 1 - 9,13,13,14,15,326.1208349999506,328.14495240012184,329.6602769000456,334.67911919998005,335.2212012000382,335.22120620007627,336.7392422000412,337.7560982999857,q,13.0,0.5420820000581443,1,+1,43,-34.380550217853255,0.6970889739999695,0.02606858166112347,325380.0,-26.00465011106239,1.3451730437041363,-0.08799448054032588,328914.0,21.56536361119076,-3.174062433974804,-0.008843829507348522,407214.0,329.6669133695493,326.1329133695493,407.96691336954933
16,40,24,f,1,0,8.0,8,1,high,6 + 9 + 1 + 1 - 1,16,16,14,15,339.2729114999529,341.2976919999346,342.81302740005776,347.8312026001513,348.41321970010176,348.41322490014136,349.9303609000053,350.9477919000201,q,16.0,0.5820170999504626,1,+10,53,-25.3512897351487,-0.8917318850917422,0.09795851035636782,338533.0,16.02198546295845,0.3824098950931276,-0.004304328349094666,342066.0,-26.916291959046436,-0.3911251680215013,-0.03760764841987463,349183.0,342.8189133695493,339.28591336954935,349.9359133695493
17,40,24,f,1,0,9.0,9,4,low,9 + 3 - 5 + 8 + 6,21,23,19,21,352.46465989993885,354.4918446999509,356.00712780002505,361.026643600082,363.2612713000272,363.26127650006674,364.7779487001244,365.7948000000324,e,21.0,2.234627699945122,1,+1,54,18.893489414308153,0.19907952708918408,0.02711754316750281,351727.0,20.18023332197157,-0.31730713528582655,-0.009442924374595263,355262.0,6.228489048400311,-0.8977094653025359,-0.012581704090891321,364030.0,356.01491336954933,352.4799133695493,364.7829133695493
18,40,24,f,1,0,10.0,10,4,low,8 + 4 + 7 - 5 - 6,8,6,9,8,367.31136850011535,369.3332748999819,370.84856920014136,375.8673702001106,376.8772885000799,376.877293500118,378.3934915000573,379.41018020012416,e,8.0,1.0099182999692855,1,+1,55,21.782814251744774,1.436067775275129,0.02132738605544593,366569.0,-62.680274598349996,0.5310728996378486,0.07424732169976789,370102.0,10.650060646547887,0.714137040432183,-0.18565533101280662,377645.0,370.8549133695493,367.32191336954935,378.3979133695493
19,40,24,f,1,0,11.0,11,4,high,4 + 7 + 8 - 3 + 9,25,25,26,24,380.9270260999911,382.95486739999615,384.4701044000685,389.48897369997576,390.1572414000984,390.1572467000224,391.6739996001125,392.69143639993854,q,25.0,0.6682677001226693,1,+10,65,2.2948173667355363,2.8046874407335114,0.11750510594368246,380190.0,-16.766303383245496,0.16797767311124545,0.05372422278993794,383724.0,15.973688081246204,-1.6465067547063548,-0.05592627577617115,390926.0,384.4769133695493,380.94291336954933,391.6789133695493
20,40,24,f,1,0,12.0,12,3,high,3 + 1 + 8 - 5 + 9,16,17,15,16,394.2082193000242,396.2336864999961,397.74903820012696,402.7675098001491,406.445355300093,406.4453607001342,407.9619732999709,408.97921769996174,e,16.0,3.677845499943942,1,+10,75,-16.292059864639416,-0.5269404677003564,-0.18429511734181347,393469.0,21.539161212748557,-1.406666413549754,0.05778796329570324,397003.0,15.32536248408556,1.091200744847841,0.10812139561909939,629773.0,397.7559133695493,394.2219133695493,630.5259133695494
21,40,24,f,1,0,13.0,13,2,low,9 + 1 + 6 + 7 + 1,24,25,23,24,410.4959742999636,412.5224622001406,414.0373834001366,419.05654090014286,419.6292803001125,419.6292850000318,421.1458924000617,422.1627845000476,e,24.0,0.5727393999695778,1,+1,76,-26.580978677515578,0.539095163810571,0.054020914413352106,409757.0,19.996333951959603,2.114444325388959,-0.10764280006130567,413291.0,3.2865696907636064,-0.8439805271897765,0.1656997035405694,420398.0,414.04391336954933,410.50991336954934,421.15091336954936
22,40,24,f,1,0,14.0,14,1,low,5 + 6 + 1 + 1 + 1,14,14,16,13,423.6795388001483,425.7066866001114,427.2219617001247,432.2403142999392,433.7973335999996,433.7973382000346,435.31370660010725,436.3303533999715,w,16.0,1.5570193000603467,0,+0,76,11.615229437273662,0.7015891843780997,-0.046606351581631955,422941.0,3.6928476231365437,-0.7128759779519935,0.02473105504013473,426475.0,-49.69432481008541,-0.29898007701340035,-0.1230602224063948,474077.0,427.22791336954936,423.6939133695493,474.82991336954933
23,40,24,f,1,0,15.0,15,2,high,2 + 1 + 9 - 4 + 1,9,8,9,11,437.8481966999825,439.8758018999361,441.391030000057,446.4093226999976,446.9252753001638,446.9252802000847,448.44242660002783,449.4596098000184,w,9.0,0.5159526001662016,1,+10,86,7.4902931787355325,0.5721675523130845,0.10624076680816841,437110.0,5.233568756502406,-0.7274250891698459,0.10897114273180253,440644.0,-6.7264607688638165,0.16673860872585244,0.12903266708035277,447694.0,441.39691336954934,437.86291336954935,448.44691336954935
24,40,24,f,1,0,16.0,16,4,low,6 + 7 + 9 - 3 + 5,24,23,22,24,450.9761998001486,452.9997060000897,454.5148182001431,459.5331296999939,460.1332682000939,460.13327290001325,461.64936830010265,462.6660901999567,e,24.0,0.6001385001000017,1,+1,87,-16.36375774005178,-0.24583145599988399,0.04565648378396969,450235.0,-28.06580381522221,-0.014045933140617528,0.00182022759413214,453768.0,4.557053318322069,0.014782451117147488,-0.04902024321180698,460901.0,454.5209133695493,450.98791336954935,461.65391336954934
25,40,24,f,1,0,17.0,17,1,high,5 + 6 + 1 + 1 + 1,14,16,15,14,464.182979500154,466.2089289999567,467.7241921001114,472.7416352001019,473.3093467000872,473.30935200001113,474.8251811999362,475.8420764999464,e,14.0,0.5677114999853075,1,+10,97,-35.19853968963774,-0.231818786688188,-0.09737582312783277,463444.0,18.311532685966,-0.9175428922578863,0.07942166513243243,466976.0,-2.6319802286930702,-0.7015446828071639,-0.07564141574884164,613645.0,467.72891336954933,464.19691336954935,614.3979133695493
26,40,24,f,1,0,18.0,18,2,low,9 + 6 + 1 + 7 + 1,24,25,23,24,477.359004399972,479.3850609001238,480.9003250000533,485.9188914000988,486.421402100008,486.42140779993497,487.9380306000821,488.9555214000866,e,24.0,0.5025106999091804,1,+1,98,-9.39317481181812,-1.211912324142494,-0.07265980728792809,476619.0,-9.537438521127601,0.8164297631119863,0.12761036895809053,480153.0,6.611276208088632,0.26181238738768187,-0.05086100638789692,487190.0,480.90591336954935,477.37191336954936,487.94291336954933
27,40,24,f,1,0,19.0,19,2,low,5 + 1 + 7 - 6 + 1,8,6,7,8,490.4723207000643,492.49650500016287,494.01168190012686,499.0302393999882,499.4613346001133,499.4613393000327,500.9777343999594,501.9951154999435,e,8.0,0.431095200125128,1,+1,99,-0.8590174740474099,0.014167335235658385,-0.04492943789331627,489731.0,0.27916812951902603,-0.9592070457651865,0.1772724848550864,493265.0,-4.72488830137984,1.0749454868165005,0.11430073480932834,500229.0,494.0179133695493,490.4839133695493,500.9819133695493
28,40,24,f,1,0,20.0,20,2,low,2 + 1 + 9 - 4 + 1,9,11,8,9,503.51147260004655,505.535242700018,507.0505411000922,512.0703342000488,512.5413298001513,512.5413347999565,514.0573981001507,515.0742186999414,e,9.0,0.4709956001024693,1,+1,100,34.09680292560721,-0.05115017005036737,-0.021579588560036278,502770.0,-1.3428249127923744,-0.9332945497669396,0.13506201847502752,506305.0,13.065735379549624,-0.4882420168700401,-0.057803134035590675,513309.0,507.05791336954934,503.5229133695493,514.0619133695493
29,40,24,f,1,0,21.0,21,4,low,7 + 8 - 4 + 6 + 5,22,22,23,21,516.5906975001562,518.61745660007,520.1328682000749,525.151605400024,528.1493198999669,528.1493244001176,529.6660277000628,530.6832803001162,w,23.0,2.9977144999429584,0,+0,100,39.82733491834324,-0.6090204719765353,-0.03656877390398927,515852.0,19.45841175820361,-0.010513545186247697,0.18949823026494972,519386.0,5.246505309742429,-0.4799752488733615,0.16470581248346772,587110.0,520.1389133695493,516.6049133695493,587.8629133695493
30,40,24,f,1,0,22.0,22,2,high,3 + 8 - 5 + 1 + 1,8,6,9,8,532.2002195001114,534.2228419999592,535.7379413000308,540.756248800084,541.2614273000509,541.261432700092,542.7780053000897,543.7954063001089,e,8.0,0.5051784999668598,1,+10,110,-38.99486582074243,-0.48448512483408646,0.01437666668652704,531457.0,13.702043837123348,-0.12189696277779571,0.01961569820545206,534990.0,-0.0989449501155768,-1.3267656789509097,-0.01223590234745453,542030.0,535.7429133695493,532.2099133695493,542.7829133695493
31,40,24,f,1,0,23.0,23,3,low,8 + 4 + 1 - 7 + 9,15,13,16,15,545.3121100000571,547.3395273999777,548.8544386001304,553.8729706001468,558.8902972999495,558.8902998000849,560.406839299947,561.4285254001152,,,,0,Too Slow!,110,18.466291626403468,0.012538469102728378,0.017909267873821744,544573.0,19.808752602297325,0.666831544709515,0.17356639533049156,548107.0,-48.812186242043104,-1.0178783685015356,-0.015668958125104382,559662.0,548.8599133695493,545.3259133695493,560.4149133695494
32,40,24,f,1,0,24.0,24,2,high,5 - 8 + 7 + 1 + 1,6,7,6,8,562.9455488000531,564.9716237999965,566.4865717000794,571.5060578000266,573.1733901000116,573.173395199934,574.6903210999444,575.7078376000281,w,6.0,1.6673322999849916,1,+10,120,-12.36997340751502,-0.1633639534686644,-0.021240281457362675,562205.0,-20.450669245207376,-0.13174651805399407,0.27867993120439194,565739.0,,,,,566.4919133695494,562.9579133695494,
33,40,24,f,1,0,25.0,25,4,high,5 + 7 - 4 - 6 + 9,11,11,13,12,577.2249116001185,579.2504503999371,580.7654486999381,585.7851817000192,586.341477500042,586.3414823999628,587.8586278001312,588.8759040001314,q,11.0,0.5562958000227809,1,+10,130,16.35201012891373,-0.04942900617141088,-0.10072417431308955,576484.0,-8.815937896661517,-0.5349465970103662,-0.010181006807699289,580019.0,,,,,580.7719133695493,577.2369133695494,
34,40,24,f,1,0,26.0,26,4,high,6 + 9 + 7 - 3 - 5,14,15,13,14,590.3926969999447,592.4150827999692,593.9303484000266,598.9488932001404,599.7735385000706,599.7735435001086,601.2901578000747,602.3074731000233,e,14.0,0.8246452999301255,1,+10,140,-1.2775396718190675,1.213928891933481,-0.05556461422334191,589649.0,15.744571336460346,0.11413360910338621,-0.02209780632917413,593183.0,,,,,593.9359133695493,590.4019133695493,
35,40,24,f,1,0,27.0,27,1,high,8 + 1 + 4 + 1 + 1,15,14,16,15,603.8243848001584,605.849761400139,607.3647871001158,612.3828849000856,612.8774359000381,612.8774409000762,614.3939633001573,615.4111804000568,e,15.0,0.4945509999524802,1,+10,150,-40.19867608265266,-0.18158317740952068,0.0038245010056954243,603084.0,11.613768766988796,-0.3839742118251017,-0.034775029716589856,606617.0,,,,,607.3699133695493,603.8369133695493,
36,40,24,f,1,0,28.0,28,3,low,2 + 9 + 1 - 5 + 7,14,14,15,12,616.9278256001417,618.9521478000097,620.4674666000064,625.486027700128,629.0054842999671,629.0054902001284,630.5221423001494,631.538790800143,q,14.0,3.519456599839032,1,+1,151,-0.2109285948181583,1.2252225444025866,-0.10601383309646129,616186.0,-13.47055043204643,0.042372204220978205,0.019875297782651513,619720.0,,,,,620.4729133695494,616.9389133695494,
37,40,24,f,1,0,29.0,29,3,high,3 + 1 + 8 - 5 + 6,13,15,14,13,633.0556137000676,635.0794971000869,636.5948902999517,641.6144731999375,642.3574481001124,642.3574530000333,643.8739551000763,644.8910134001635,e,13.0,0.742974900174886,1,+10,161,27.495446066791768,-0.365801380056781,-0.04378726861505999,632313.0,-19.687232939739076,0.28648470149615424,0.0020402642057408826,635848.0,,,,,636.6009133695493,633.0659133695493,
38,40,24,f,1,0,30.0,30,3,low,3 + 8 - 7 - 1 + 9,12,14,13,12,646.4076267001219,648.4322534000967,649.947360200109,654.9655665000901,655.4935217001475,655.4935312999878,657.0101127999369,658.0269742000382,e,12.0,0.5279552000574768,1,+1,162,0.06411071769062104,-0.5430384682881648,0.061301777664829915,645666.0,-0.5890990378400662,-0.9594990544588837,0.06267145032425336,649199.0,,,,,649.9519133695493,646.4189133695494,
39,40,24,f,1,0,31.0,31,4,low,3 + 9 - 4 + 7 + 6,21,21,19,20,659.5438943000045,661.5726071000099,663.0878205001354,668.1064780000597,668.7095270999707,668.7095318001229,670.2259625000879,671.2427342000883,q,21.0,0.6030490999110043,1,+1,163,1.8373191185312852,1.316047648214398,-0.08194474322373901,658806.0,-18.378343244265,-0.9974361649807459,0.11093884079286798,662340.0,,,,,663.0929133695494,659.5589133695494,
40,40,24,f,1,0,32.0,32,1,high,2 + 1 + 9 + 1 - 1,12,12,11,13,672.760007899953,674.7835717000999,676.298780699959,681.3170247001108,681.8616190999746,681.8616239000112,683.3781959000044,684.396344800014,q,12.0,0.544594399863854,1,+10,173,-9.041562908917228,0.32681924225373127,-0.007657516903271544,672017.0,-1.118210830135589,-0.0681099499385116,0.04036939216307456,675550.0,,,,,676.3029133695493,672.7699133695494,
41,40,24,f,1,0,33.0,33,2,low,8 + 1 + 7 + 1 - 4,13,12,14,13,685.9134013000876,687.9416144001298,689.4567699001636,694.4752542001661,695.1254803000484,695.1254851000849,696.6423589000478,697.6597581999376,e,13.0,0.6502260998822749,1,+1,174,-25.887565000623653,0.1514302836355359,0.2508374929985462,685175.0,25.739094834320227,0.8193253103684484,0.17414562797765365,688708.0,,,,,689.4609133695493,685.9279133695493,
42,40,24,f,1,0,34.0,34,1,low,6 + 1 + 1 + 7 - 1,14,13,14,12,699.1768871000968,701.2026416000444,702.7177967999596,707.7358228999656,708.5096230001654,708.5096283999737,710.0262543000281,711.0431183001492,w,14.0,0.7738001001998782,1,+1,175,-7.538696719419006,0.25644292427970683,-0.10891513293477839,698436.0,-13.00027421151135,-0.34961268125653255,-0.27800160081042424,701969.0,,,,,702.7219133695494,699.1889133695494,
43,40,24,f,1,0,35.0,35,3,low,8 + 6 - 7 + 1 - 4,4,3,5,4,712.5598713001236,714.5873335001525,716.1023109999951,721.1213152001146,721.613607400097,721.6136126001365,723.1302461000159,724.1468768001068,e,4.0,0.4922921999823302,1,+1,176,-31.277513983864637,0.19215958044414982,0.08444322950640726,711821.0,4.3164558290703345,-0.5081244632363751,0.15197116018903056,715354.0,,,,,716.1069133695494,712.5739133695494,
44,40,24,f,1,0,36.0,36,4,low,2 + 9 - 3 + 5 + 8,21,22,21,23,725.6635394999757,727.6884157001041,729.203438000055,734.2233003999572,734.7654854001012,734.7654908001423,736.2825605000835,737.299487600103,w,21.0,0.5421850001439452,1,+1,177,-2.487957913665465,-1.2035793834332615,0.06196230921746859,724921.0,2.278882074260167,0.5857568613690294,-0.030409443144330695,728456.0,,,,,729.2089133695494,725.6739133695494,
45,40,24,f,1,0,37.0,37,3,low,4 + 7 - 3 + 5 - 1,12,13,12,11,738.8165158000775,740.843856099993,742.3590081001166,747.3778121999931,747.9174832000863,747.9174883000087,749.4339960999787,750.4506810000166,w,12.0,0.5396710000932217,1,+1,178,23.09085608853462,-0.8814095914656042,0.026255885708652116,738077.0,0.7953442632125949,-1.1039461982139764,-0.03166678506125242,741611.0,,,,,742.3639133695493,738.8299133695493,
46,40,24,f,1,1,38.0,0,4,low,7 + 6 - 4 + 9 - 5,13,14,13,12,765.1380902000237,767.1646583001129,768.6798636999447,773.7000003000721,774.1495581001509,774.1495630999561,775.6664110999554,776.6837311000563,w,13.0,0.4495578000787645,1,+1,179,-5.831247450986313,0.9061629492770535,0.14985837065179597,764397.0,-2.8338375315676103,0.3389311444925305,0.03317541232748944,767933.0,,,,,768.6859133695493,765.1499133695494,
47,40,24,f,1,1,39.0,1,3,low,6 + 8 + 7 + 1 - 9,13,14,15,13,778.2008675001562,780.2275758001488,781.7426438999828,786.7626921001356,787.5256024999544,787.5256076001097,789.0426290000323,790.0598369000945,e,13.0,0.7629103998187929,1,+1,180,14.705128297786736,0.449457668626736,-0.3055706262113156,777460.0,-0.11005988446559911,0.3652986491410317,0.12267016787174168,780996.0,,,,,781.7489133695493,778.2129133695494,
48,40,24,f,1,1,40.0,2,1,high,9 + 7 + 1 + 1 + 1,19,20,19,18,791.5771280000918,793.59924650006,795.1142977999989,800.1324212001637,800.9895622001495,800.9895667000674,802.5059058000334,803.5229656000156,w,19.0,0.8571409999858588,1,+10,190,12.05691779528629,-1.1619790810070922,-0.34744620008635785,790832.0,10.810100256862855,-0.2458917838226018,-0.010574555092016436,794365.0,,,,,795.1179133695493,791.5849133695493,
49,40,24,f,1,1,41.0,3,1,low,6 + 9 + 1 + 1 - 1,16,16,15,14,805.0401252000593,807.0639238001313,808.5798382000066,813.5980168001261,814.3896556999534,814.389660899993,815.9059566000942,816.9230554001406,q,16.0,0.791638899827376,1,+1,191,-1.8211686869467414,0.5646026815763365,0.11436800621299215,804296.0,2.847235644411427,0.17435231008041718,-0.025081725683178124,807831.0,,,,,808.5839133695494,805.0489133695494,
50,40,24,f,1,1,42.0,4,3,low,2 + 1 + 9 - 7 + 6,11,11,12,13,818.4397360000294,820.4663172999863,821.9815830001608,827.0013890000992,827.4696001999546,827.4696049001068,828.9859766000882,830.0029106000438,q,11.0,0.4682111998554319,1,+1,192,13.12678350485756,0.06499450344462154,0.203256261359253,817699.0,26.497491419149934,-0.5801146380936064,-0.0321004024098821,821234.0,,,,,821.9869133695494,818.4519133695493,
51,40,24,f,1,1,43.0,5,4,low,5 + 7 - 4 - 6 + 9,11,11,13,12,831.5197048000991,833.547375400085,835.0625478001311,840.0810155000072,840.6536608000752,840.6536660001148,842.1703373000491,843.1873041000217,q,11.0,0.5726453000679612,1,+1,193,-4.901141253587834,-0.860882215759764,-0.01688282371169736,830779.0,12.228339857018184,-1.822388823349832,0.2950428655602859,834313.0,,,,,835.0659133695493,831.5319133695493,
52,40,24,f,1,1,44.0,6,2,low,6 + 1 + 7 - 8 - 1,5,5,7,4,844.7041551000439,846.7304565999657,848.2457284999546,853.2645144001581,854.3977139000781,854.3977187001146,855.9139966000803,856.9308132000733,q,5.0,1.1331994999200106,1,+1,194,-1.8509776613112514,-0.4466743699021558,0.2802316942078469,843962.0,1.6904843868934893,0.11789928099656777,-0.001832046936904419,847497.0,,,,,848.2499133695493,844.7149133695493,
53,40,24,f,1,1,45.0,7,2,high,7 + 6 + 1 + 8 + 1,23,23,22,21,858.447309799958,860.4734084000811,861.9886849999893,867.0069590001367,867.7576638001483,867.7576689000707,869.2748345001601,870.293343000114,q,23.0,0.7507048000115901,1,+10,204,11.167231130775464,-0.5765437941495737,0.02811278917533011,857705.0,3.893131486248306,-0.6840615138265411,0.3128929369070488,861239.0,,,,,861.9919133695494,858.4579133695494,
54,40,24,f,1,1,46.0,8,3,high,9 - 5 - 1 - 6 + 8,5,4,7,5,871.8101028001402,873.8355250000022,875.3508359000552,880.3691018000245,882.0697536000516,882.0697592000943,883.5863675000146,884.6034812999424,e,5.0,1.7006518000271171,1,+10,214,-23.745619544717,-1.9080686103078541,-0.018034291490483412,871068.0,-5.493820569068353,0.13731293816724222,-0.08519361939699621,874601.0,,,,,875.3539133695493,871.8209133695493,
55,40,24,f,1,1,47.0,9,3,high,5 + 6 - 4 - 1 + 7,13,15,14,13,886.1202021001372,888.143464300083,889.6586949001066,894.6776944999583,895.3736268000212,895.3736324000638,896.8899699000176,897.9072517999448,e,13.0,0.6959323000628501,1,+10,224,3.237326994609824,1.5777367760745618,-0.02602618262198164,885376.0,-13.92592958608725,-1.4789342687997067,-0.01010417651940232,888910.0,,,,,889.6629133695493,886.1289133695493,
56,40,24,f,1,1,48.0,10,3,high,8 + 5 + 1 - 7 + 9,16,16,17,14,899.4241345999762,901.450853999937,902.9656855000648,907.9840307999402,910.725726600038,910.7257316999604,912.2423074999824,913.259473900078,q,16.0,2.7416958000976592,1,+10,234,16.778872271989012,-0.24668823747563629,0.10227748553173055,898683.0,4.097383894632187,-0.6373422195090477,0.11828251414951385,902216.0,,,,,902.9689133695493,899.4359133695493,
57,40,24,f,1,1,49.0,11,2,high,9 + 4 + 5 + 1 - 1,18,19,17,18,914.7764094001614,916.8011553001124,918.3164538999554,923.3343965001404,923.9736264001112,923.9736312001478,925.4904793000314,926.5077822001184,e,18.0,0.6392298999708146,1,+10,244,-54.17529356123897,-0.27561764017642876,0.1302862344986273,914033.0,-2.5935146435889287,0.9250607209797463,0.007162600807200548,917566.0,,,,,918.3189133695494,914.7859133695493,
58,40,24,f,1,1,50.0,12,2,low,7 + 1 + 9 - 1 - 8,8,7,8,6,928.024585600011,930.0532836001366,931.568501800066,936.5868240001146,937.3176899000536,937.317694599973,938.8341709999368,939.85085180006,w,8.0,0.73086589993909,1,+1,245,-4.823166521707082,-0.6415722034352349,-0.052959525497616955,927285.0,24.086256989936203,-0.0051229703944617455,0.2484685137321747,930819.0,,,,,931.5719133695493,928.0379133695493,
59,40,24,f,1,1,51.0,13,4,low,4 + 7 - 8 + 9 - 3,9,11,8,9,941.3674101000652,943.3931003999896,944.909027500078,949.9274478999432,950.5816516000776,950.5816564001144,952.0981442001648,953.1148220000324,e,9.0,0.6542037001345307,1,+1,246,27.479698472496864,-0.5387993930047319,0.11786642117036883,940625.0,-7.511290532240896,-0.8020102774177023,-0.016760599024518985,944159.0,,,,,944.9119133695493,941.3779133695493,
60,40,24,f,1,1,52.0,14,3,low,7 - 6 + 8 + 1 + 7,17,15,16,17,954.63159679994,956.658916400047,958.1741611000616,963.1929296001326,964.8216977000702,964.8217025999912,966.3378507001324,967.354904399952,q,15.0,1.628768099937588,0,+0,246,0.27459988741084373,-0.44532130465013076,0.06294143017625498,953891.0,5.346508565022631,-0.49637998990947807,0.07839654036240584,957425.0,,,,,958.1779133695493,954.6439133695493,
61,40,24,f,1,1,53.0,15,1,low,8 + 1 + 1 + 1 - 3,8,9,8,6,968.8713736000936,970.8971629000736,972.4124127000103,977.430829900084,977.9897056000772,977.9897104999982,979.506165200146,980.5229762000964,w,8.0,0.558875699993223,1,+1,247,-1.6029900588849766,-0.22887006213223238,-0.23031579417562642,968129.0,-12.976477367428128,0.08042697909701779,-0.056513460816316474,971662.0,,,,,972.4149133695494,968.8819133695494,
62,40,24,f,1,1,54.0,16,3,low,4 + 1 + 8 + 9 - 5,17,18,17,19,982.0397924999706,984.0659857001156,985.5812197001652,990.5993925000076,991.0777851999736,991.0777900000104,992.5941159999928,993.6109770999756,w,17.0,0.4783926999662071,1,+1,248,4.654833868672373,0.4400233494383574,0.1109997654475785,981297.0,-21.669840001286325,-0.40676294161277227,1.0850695783399225,984831.0,,,,,985.5839133695494,982.0499133695494,
63,40,24,f,1,1,55.0,17,2,low,6 + 1 + 1 + 7 - 9,6,6,4,8,995.1277732001618,997.1537204999476,998.6690748999828,1003.6872732001356,1004.2456892000046,1004.2456943001598,1005.7624836999456,1006.779391600052,q,6.0,0.5584159998688847,1,+1,249,-16.517454787083608,1.0115998473335175,-0.043812023168244396,994385.0,2.7043944410529583,-0.15580971635928975,0.029459925073259896,997919.0,,,,,998.6719133695493,995.1379133695493,
64,40,24,f,1,1,56.0,18,2,high,4 + 9 - 7 + 1 - 1,6,5,6,8,1008.2961591000204,1010.3216165001504,1011.8369620000012,1016.8561838001478,1017.3977404001636,1017.3977453999688,1018.914182400098,1019.9313636000734,w,6.0,0.5415566000156105,1,+10,259,0.05512516501512721,0.07102670242840858,0.11940719806629718,1007553.0,-10.46604843085623,0.18607737878798503,-0.060937728369150346,1011087.0,,,,,1011.8399133695493,1008.3059133695493,
65,40,24,f,1,1,57.0,19,4,high,5 + 7 - 4 + 8 + 6,22,23,22,24,1021.4481002001556,1023.474068999989,1024.9897454001475,1030.008545000106,1030.4297573000658,1030.4297619999852,1031.9459057999777,1032.9632405999582,w,22.0,0.4212122999597341,1,+10,269,8.004104639632843,0.7177582398665816,-0.038564586218988506,1020705.0,-6.415925603281375,-0.6326424254404248,-0.08486643250071424,1024240.0,,,,,1024.9929133695493,1021.4579133695494,
66,40,24,f,1,1,58.0,20,3,high,7 - 1 + 8 - 6 + 4,12,12,11,13,1034.479739200091,1036.5035474000033,1038.018323400058,1043.0368940001354,1043.7417097999714,1043.7417145001236,1045.2582712001167,1046.275618399959,q,12.0,0.7048157998360693,1,+10,279,-14.692873421035236,-0.04483774032581245,0.09847703412644648,1033735.0,-4.698448386438865,-0.23261117591727043,-0.05911948531036071,1037268.0,,,,,1038.0209133695494,1034.4879133695492,
67,40,24,f,1,1,59.0,21,1,high,4 + 8 + 1 - 1 - 1,11,9,13,11,1047.7922596000135,1049.819391800091,1051.333738300018,1056.351939199958,1057.7418366000056,1057.7418422000485,1059.2577508001125,1060.2749487000983,e,11.0,1.38989740004763,1,+10,289,-8.617221577494975,-0.45503006328565654,-0.1503445380259958,1047050.0,22.951349202657937,-0.07779962780967598,-0.0921230602238452,1050583.0,,,,,1051.3359133695494,1047.8029133695493,
68,40,24,f,1,1,60.0,22,4,low,7 + 6 - 9 + 8 - 3,9,8,7,9,1061.7919123000463,1063.8193831001408,1065.33446240006,1070.3533871001564,1074.9019051000942,1074.901910400018,1076.418732299935,1077.4357513000723,e,9.0,4.548517999937758,1,+1,290,0.6760321524092365,-0.9103949294085094,-0.21244633677290192,1061050.0,-3.321181976302176,0.4128913187529335,0.03980914799198709,1064584.0,,,,,1065.3369133695494,1061.8029133695493,
69,40,24,f,1,1,61.0,23,3,high,3 - 7 + 5 + 1 + 9,11,11,13,12,1078.9659841000102,1081.024364599958,1082.5396126001142,1087.5580256001558,1088.141753999982,1088.1417587001342,1089.6583694999572,1090.6754428001586,q,11.0,0.5837283998262137,1,+10,300,50.435980383779096,-2.9356286011149137,0.15027154571973766,1078255.0,13.037299738419982,1.4787783143887818,-1.1188044686986423,1081789.0,,,,,1082.5419133695493,1079.0079133695494,
70,40,24,f,1,1,62.0,24,1,high,5 + 1 + 1 + 6 + 1,14,13,16,14,1092.1921651000157,1094.2635520000476,1095.7788110000547,1100.797104400117,1101.3099200001452,1101.3099247000646,1102.826487099985,1103.84380719997,e,14.0,0.5128156000282615,1,+10,310,-4.864637449524821,-0.6012916870354612,0.2068754659950558,1091495.0,-11.306804981923836,0.7775257877782895,0.16511298989328682,1095028.0,,,,,1095.7809133695494,1092.2479133695492,
71,40,24,f,1,1,63.0,25,2,low,7 + 8 + 1 + 9 + 1,26,26,24,25,1105.3607695000246,1107.393498599995,1108.908825600054,1113.9272396001031,1114.4937919001095,1114.4937968000304,1116.0102508000564,1117.027120999992,q,26.0,0.5665523000061512,1,+1,311,6.100026339822895,-1.187969938899517,0.1561277643936585,1104625.0,11.59567410100084,-1.0740292066741777,-0.1816163340295256,1108158.0,,,,,1108.9109133695492,1105.3779133695493,
72,40,24,f,1,1,64.0,26,1,high,2 + 1 + 9 + 1 + 1,14,14,12,13,1118.5437755000312,1120.5713527000044,1122.0866662999615,1127.1047273001168,1127.829845600063,1127.829850499984,1129.3463388001546,1130.363534500124,q,14.0,0.7251182999461889,1,+10,321,-4.067451964241338,0.22911856592996038,0.019330449958192775,1117802.0,23.161372829397557,-1.2741959603969057,0.0003548084791376027,1121335.0,,,,,1122.0879133695494,1118.5549133695492,
73,40,24,f,1,1,65.0,27,2,low,6 + 1 + 1 + 7 - 9,6,4,6,8,1131.880564799998,1133.90642260015,1135.4220525999554,1140.4421914000995,1140.9258634001017,1140.9258684001395,1142.442389700096,1143.459170000162,w,6.0,0.4836720000021159,1,+1,322,-1.5007422807873638,-1.0083882735345195,-0.012861160366669067,1131137.0,-42.931695992644734,0.23222044314232093,0.005845760428134561,1134673.0,,,,,1135.4259133695493,1131.8899133695493,
74,40,24,f,1,1,66.0,28,2,low,4 + 1 + 9 + 1 - 6,9,8,9,7,1144.9756291999947,1146.9995079000946,1148.5147736000365,1153.532754600048,1154.0219018999487,1154.0219068999868,1155.538456800161,1156.5555821000598,w,9.0,0.489147299900651,1,+1,323,-24.6543576768293,0.849756567746514,-0.07105859383913482,1144230.0,-18.405405200548167,-0.019414960311785023,0.056419560183081696,1147763.0,,,,,1148.5159133695493,1144.9829133695494,
75,40,24,f,1,1,67.0,29,1,low,7 + 1 + 6 + 1 + 1,16,16,18,17,1158.072394500021,1160.1090272001456,1161.6242526001297,1166.642837200081,1167.0619479001034,1167.0619529001417,1168.578311600024,1169.595817100024,q,16.0,0.4191107000224292,1,+1,324,7.747676808213736,0.6209944770691873,0.04367508980366219,1157339.0,12.042231032117785,-1.327975560650815,0.10840172852607433,1160873.0,,,,,1161.6259133695494,1158.0919133695493,
76,40,24,f,1,1,68.0,30,2,low,9 + 6 + 1 + 7 + 1,24,23,25,24,1171.112427199958,1173.1392707000489,1174.6542557000648,1179.6722091000993,1182.4458848999348,1182.4458902000915,1183.9621924001258,1184.9791651000269,e,24.0,2.7736757998354733,1,+1,325,-14.67414814862065,-2.057036300124336,0.223876869432041,1170370.0,2.780961347484876,-1.1603717843821126,-0.0685215122987437,1173903.0,,,,,1174.6559133695494,1171.1229133695492,
77,40,24,f,1,1,69.0,31,3,high,4 + 8 - 9 + 1 + 7,11,11,13,9,1186.4960060999729,1188.5222694000695,1190.0375181999989,1195.058110699989,1195.7338604000397,1195.7338652000765,1197.250406099949,1198.2679121000692,q,11.0,0.675749700050801,1,+10,335,-12.473313353743888,0.07174129108427607,0.12589640417880243,1185753.0,-26.912485626197256,-0.6015608322704669,0.03443918743383123,1189288.0,,,,,1190.0409133695493,1186.5059133695493,
78,40,24,f,1,1,70.0,32,2,high,5 + 9 - 8 + 1 + 1,8,7,9,8,1199.7847122999374,1201.8175866999663,1203.3329583001323,1208.350813600002,1209.2859694999645,1209.2859742001165,1210.802221900085,1211.8191486999858,e,8.0,0.9351558999624104,1,+10,345,14.868167207642058,-0.5748142366467164,-0.11470685084450838,1199048.0,-11.922656931110069,-0.07577197423871951,0.02773177722613318,1202581.0,,,,,1203.3339133695492,1199.8009133695493,
79,40,24,f,1,1,71.0,33,2,high,8 + 1 + 9 + 1 - 5,14,15,13,14,1213.33600999997,1215.3593393000774,1216.874848500127,1221.8927325000986,1222.549860100029,1222.54986499995,1224.0661776999475,1225.0834056001622,e,14.0,0.6571275999303907,1,+10,355,21.9102835918918,-0.08401740115615652,0.017502802584663746,1212590.0,4.961298956467896,-0.19029064499068582,-0.010715906387649632,1216123.0,,,,,1216.8759133695494,1213.3429133695493,
80,40,24,f,1,1,72.0,34,4,high,4 + 7 + 9 - 5 + 7,22,23,22,24,1226.600066800136,1228.6365424001124,1230.1517964000814,1235.1717116001528,1235.5501308001112,1235.550135700032,1237.0665520001205,1238.084215000039,w,22.0,0.3784191999584436,1,+10,365,-25.014006561967133,-0.2768379488749648,-0.15240115950565003,1225867.0,-4.8133019829966415,-1.5430992329384914,-0.01011327707741616,1229402.0,,,,,1230.1549133695494,1226.6199133695493,
81,40,24,f,1,1,73.0,35,1,high,7 - 1 + 9 + 1 - 1,15,15,13,14,1239.6009981001262,1241.6262745000422,1243.14121729997,1248.1597780999728,1248.789877400035,1248.78988200007,1250.3066382999532,1251.3238123999909,q,15.0,0.6300993000622839,1,+10,375,13.352032894827232,-0.17107490474321985,-0.00972803435770997,1238856.0,5.8463085605040686,-0.39491364438849086,0.08254074734985473,1242390.0,,,,,1243.1429133695494,1239.6089133695493,
82,40,24,f,1,1,74.0,36,4,high,7 + 6 + 8 - 4 + 5,22,22,23,21,1252.840625599958,1254.8655765999574,1256.381001699949,1261.3992266000714,1261.8860246001277,1261.88602970005,1263.4028289001435,1264.4201730000786,q,22.0,0.4867980000562966,1,+10,385,21.693335398866687,0.3285789940362669,0.003982664404556635,1252096.0,-24.395309386727547,-1.2313537628484799,0.024004375616084372,1255629.0,,,,,1256.3819133695492,1252.8489133695493,
83,40,24,f,1,1,75.0,37,1,low,2 + 9 + 1 + 1 + 1,14,14,12,13,1265.9370159001555,1267.9642938000616,1269.4795367000625,1274.4986261001322,1274.9660219000652,1274.966026799986,1276.4824685000349,1277.4992174000945,q,14.0,0.4673957999330014,1,+1,386,4.5137102613278435,0.4625237234269388,0.17750683056713878,1265194.0,-3.833547132863208,-0.5899841701612978,0.5136440971969738,1268728.0,,,,,1269.4809133695494,1265.9469133695493,
84,40,24,f,1,2,76.0,0,2,low,6 + 1 + 8 + 7 - 1,21,19,23,21,1298.5461961999536,1300.5735462999437,1302.0887422000524,1307.1093507001642,1307.6379426999483,1307.6379476999864,1309.1547976001166,1310.1716318000108,e,21.0,0.528591999784112,1,+1,387,24.86933058867779,-0.565836620731968,-0.29429554061378416,1297802.0,-18.381848108677055,0.22570831420431148,0.10842214168716735,1301338.0,,,,,1302.0909133695493,1298.5549133695492,
85,40,24,f,1,2,77.0,1,3,high,7 - 5 + 9 + 1 - 4,8,8,9,7,1311.688625599956,1313.7140355999582,1315.2292514999865,1320.2484599000309,1320.893982999958,1320.8939877001103,1322.4101395001635,1323.4274192999585,q,8.0,0.6455230999272317,1,+10,397,22.242261251081302,1.5034604221284766,0.02484489582326832,1310944.0,15.96151498953462,0.06847875240239265,0.04814695931966817,1314477.0,,,,,1315.2299133695494,1311.6969133695493,
86,40,24,f,1,2,78.0,2,2,high,9 + 5 - 6 + 1 - 1,8,9,7,8,1324.9442135000136,1326.969519900158,1328.4847989000846,1333.504116500029,1333.95005330001,1333.950058300048,1335.4665361000225,1336.4842443000523,e,8.0,0.4459367999807,1,+10,407,-45.21642581129686,0.12312900143650207,-0.20132426256638225,1324199.0,-6.556510548334353,-0.05670657488800135,-0.019722256521944592,1327733.0,,,,,1328.4859133695493,1324.9519133695494,
87,40,24,f,1,2,79.0,3,1,low,8 + 1 + 5 + 1 + 1,16,15,16,17,1338.0010133001488,1340.0267185999546,1341.541878100019,1346.5596118001267,1347.5420699000824,1347.542074800003,1349.058398900088,1350.075728500029,w,16.0,0.9824580999556928,1,+1,408,1.2512851945289363,0.21052925494577757,0.06023376325458929,1337256.0,-14.942022986012796,-1.1990783985586129,0.12008333895991341,1340789.0,,,,,1341.5419133695493,1338.0089133695494,
88,40,24,f,1,2,80.0,4,4,low,3 + 8 - 7 + 9 - 5,8,9,8,7,1351.59245620016,1353.619540899992,1355.1346573999615,1360.1553092999384,1362.414037400158,1362.4140421999618,1363.9304484000895,1364.9472708001267,w,8.0,2.258728100219741,1,+1,409,10.903289399923622,0.00106283594309442,0.09231766294345056,1350849.0,-9.056589753970846,1.0003803274151544,-0.02183408245995211,1354384.0,,,,,1355.1369133695493,1351.6019133695493,
89,40,24,f,1,2,81.0,5,4,low,8 + 3 - 4 + 5 + 9,21,22,23,21,1366.4641828001477,1368.488280000165,1370.0034678000957,1375.0216352001298,1375.6780235001352,1375.6780286000576,1377.1944866999984,1378.2122110000346,e,21.0,0.6563883000053465,1,+1,410,-12.027599807319046,-0.6336774362718911,0.049890622440207144,1365718.0,-45.41499194637172,-0.34848788169657663,-0.13440138343232388,1369251.0,,,,,1370.0039133695493,1366.4709133695494,
90,40,24,f,1,2,82.0,6,4,high,5 + 8 - 4 - 6 + 9,12,12,14,13,1379.728704100009,1381.754548100056,1383.269815000007,1388.288714100141,1389.1420706999488,1389.1420756001023,1390.658534700051,1391.6759778000414,q,12.0,0.8533565998077393,1,+10,420,-30.8184696179732,-0.29303546736311503,0.10964391092098635,1378984.0,-8.12171218189204,-0.1363469728150788,0.13994433765421954,1382517.0,,,,,1383.2699133695494,1379.7369133695493,
91,40,24,f,1,2,83.0,7,1,low,8 + 1 + 1 - 1 - 4,5,6,3,5,1393.1921882000752,1395.2203859,1396.7356658999342,1401.7538024000823,1402.3500451000873,1402.3500525001436,1403.8670522000175,1404.8840950999877,e,5.0,0.5962427000049502,1,+1,421,5.925365437222164,-0.6027977512522646,0.05419970362238913,1392449.0,-12.67279714607511,-0.2107294272729323,0.14597951278919963,1395983.0,,,,,1396.7359133695493,1393.2019133695494,
92,40,24,f,1,2,84.0,8,4,high,5 + 6 - 4 + 7 + 9,23,24,25,23,1406.4009573999792,1408.426863900153,1409.9421278999653,1414.9605932999402,1415.6701339001302,1415.670139099937,1417.1866650001612,1418.203974199947,e,23.0,0.7095406001899391,1,+10,431,0.7102646732386511,0.5054244189124848,0.08672746305939127,1405656.0,7.650416492681343,0.1759959061474179,0.046908737878953666,1409190.0,,,,,1409.9429133695494,1406.4089133695493,
93,40,24,f,1,2,85.0,9,3,high,4 + 1 + 8 + 9 - 5,17,18,19,17,1419.7208372999448,1421.7453682001214,1423.2606306001544,1428.2791262001265,1430.486138400156,1430.4861437999643,1432.0026881999802,1433.01981540001,e,17.0,2.207012200029567,1,+10,441,15.988768277935696,0.7326187089874159,-0.0963226677169784,1418974.0,17.16899271184761,-0.4566735086981,-0.00013831473247183368,1422508.0,,,,,1423.2609133695494,1419.7269133695493,
94,40,24,f,1,2,86.0,10,4,high,3 + 9 - 5 + 8 - 7,8,8,7,9,1434.5362913000863,1436.5625110000838,1438.077833400108,1443.0964565000031,1443.5420848000797,1443.5420898001175,1445.058001999976,1446.0754691001491,q,8.0,0.4456283000763505,1,+10,451,-8.886828616006289,0.5802405426068189,0.09565108108905096,1433791.0,12.660544951730317,0.013177752887393979,0.0957055819352488,1437325.0,,,,,1438.0779133695494,1434.5439133695493,
95,40,24,f,1,2,87.0,11,2,high,3 - 1 + 9 - 5 + 1,7,5,6,7,1447.592361500021,1449.6199531999882,1451.1353680000177,1456.1534651000984,1456.7021755001042,1456.7021806000266,1458.2185402000323,1459.2353908000514,e,7.0,0.5487104000058025,1,+10,461,4.175242148350348,0.16708651582959,-0.06720934769509834,1446849.0,14.744610456017016,-0.4283139700319891,0.11161069398936863,1450382.0,,,,,1451.1349133695494,1447.6019133695493,
96,40,24,f,1,2,88.0,12,4,high,9 + 8 - 5 - 7 + 6,11,13,10,11,1460.7523119000252,1462.7779618001075,1464.2929541999474,1469.3130093000364,1469.8941073000897,1469.894112400012,1471.4105531999376,1472.4287052000873,e,11.0,0.5810980000533164,1,+10,471,10.594060292344723,0.7992524992850063,0.22613889765729267,1460007.0,9.34165920996265,-1.0209122421568617,0.09325540360256102,1463542.0,,,,,1464.2949133695492,1460.7599133695494,
97,40,24,f,1,2,89.0,13,2,low,5 + 7 - 8 + 1 + 1,6,6,7,8,1473.9454012999777,1475.9730692999435,1477.4882493000478,1482.5067952000536,1483.014196000062,1483.0142010001,1484.5307080999482,1485.5474293001462,q,6.0,0.5074008000083268,1,+1,472,-18.174677602079655,0.6257249420772455,0.04119521112080249,1473202.0,25.305691594126635,-0.5416552068589233,-0.042201328806078964,1476735.0,,,,,1477.4879133695492,1473.9549133695493,
98,40,24,f,1,2,90.0,14,1,high,4 + 7 + 1 - 1 - 1,10,9,11,10,1487.0639490000904,1489.0907992001155,1490.606151400134,1495.6252421999816,1496.110162399942,1496.1101675999817,1497.6265100000892,1498.6437552000862,e,10.0,0.4849201999604702,1,+10,482,-5.707260441956007,-0.9309555803996936,-0.016250569205094934,1486318.0,30.484570522320006,-0.1957144639427213,-0.19794889217184397,1489854.0,,,,,1490.6069133695494,1487.0709133695493,
99,40,24,f,1,2,91.0,15,3,low,6 - 1 + 7 - 8 + 9,13,11,13,12,1500.160668700002,1502.1859792999458,1503.701253999956,1508.7206654001493,1509.174197999993,1509.1742031001486,1510.690766799962,1511.707781800069,w,13.0,0.4535325998440385,1,+1,483,-4.477265146074705,-0.32983185349430144,0.1159746594947002,1499414.0,-32.48277515809305,-0.2724376951167775,0.0876760464896833,1502948.0,,,,,1503.7009133695494,1500.1669133695493,
100,40,24,f,1,2,92.0,16,4,low,2 + 9 - 4 + 8 + 7,22,22,21,23,1513.2245482001454,1515.2505262000486,1516.7657564999536,1521.7841868000105,1522.6062984000891,1522.6063036001287,1524.1227599000558,1525.1404355999548,q,22.0,0.8221116000786424,1,+1,484,17.996785618683617,-0.5884988426147135,-0.08643433023391256,1512479.0,-7.72551629258146,-1.0188000380831035,0.052173775286327384,1516013.0,,,,,1516.7659133695493,1513.2319133695494,
101,40,24,f,1,2,93.0,17,1,low,3 + 1 + 9 + 1 + 1,15,15,17,14,1526.6581761001144,1528.6848206000868,1530.1998848000076,1535.2182503000367,1535.686191600049,1535.686196600087,1537.2029584001284,1538.21976909996,q,15.0,0.4679413000121712,1,+1,485,-11.481770029235603,0.49480242712118105,-0.13076251915617654,1525913.0,16.380971382862395,0.6037782068823656,0.24076909118684386,1529446.0,,,,,1530.1989133695492,1526.6659133695493,
102,40,24,f,1,2,94.0,18,1,high,9 + 1 + 1 + 7 - 1,17,16,17,19,1539.7365133999847,1541.7632526999805,1543.2785041001623,1548.2966367001643,1548.7741823999677,1548.7741874000058,1550.291129300138,1551.3087536999956,w,17.0,0.4775456998031586,1,+10,495,9.297115586524935,0.8013055585053825,0.00592138451535007,1538992.0,11.13951360776229,0.22468194154472165,0.07260401371111991,1542525.0,,,,,1543.2779133695494,1539.7449133695493,
103,40,24,f,1,2,95.0,19,3,low,9 - 1 + 5 - 6 + 8,15,17,14,15,1552.825579599943,1554.849492300069,1556.3648620999884,1561.3828947001605,1564.8383895000445,1564.838396700099,1566.3551072000992,1567.3719198000615,e,15.0,3.455494799884036,1,+1,496,-2.1136643411931146,1.3942091828721983,0.1514751780852608,1552078.0,8.979850083830632,-0.4840737606078651,-0.006812094339379682,1555611.0,,,,,1556.3639133695494,1552.8309133695493,
104,40,24,f,1,2,96.0,20,2,low,3 + 9 + 1 - 5 + 1,9,9,7,8,1568.8885999999477,1570.9155391000677,1572.4307047999464,1577.449767000042,1577.942212200025,1577.94221680006,1579.4588403000962,1580.4755939000752,q,9.0,0.4924451999831944,1,+1,497,3.0310576017908275,-1.267577485328875,-0.030065929170939754,1568144.0,18.62996923986238,-0.47447414914543007,0.06534459143789806,1571678.0,,,,,1572.4309133695494,1568.8969133695493,
105,40,24,f,1,2,97.0,21,1,low,7 + 1 + 4 + 1 - 1,12,13,12,11,1581.9920469000936,1584.0185331001412,1585.5336752999574,1590.5522789999377,1592.6223135001492,1592.6223188999577,1594.1397774999496,1595.157082100166,w,12.0,2.0700345002114773,1,+1,498,26.724229158079343,0.7013959101966005,-0.024957413636852666,1581247.0,7.931591107571835,-0.3053066704592844,-0.07835669546708579,1584780.0,,,,,1585.5329133695493,1581.9999133695494,
106,40,24,f,1,2,98.0,22,4,high,9 + 4 - 6 + 8 + 7,22,24,22,21,1596.6741353999823,1598.7006461999845,1600.2158838000614,1605.2357157000806,1606.77429890004,1606.7743039999625,1608.2916878000833,1609.3089990001172,w,22.0,1.5385831999592483,1,+10,508,-43.435105667135225,-0.19104035017392373,-0.0012376598492183088,1595928.0,-20.941595418711998,1.0768676046952255,-0.08328619033410578,1599464.0,,,,,1600.2169133695493,1596.6809133695494,
107,40,24,f,1,2,99.0,23,3,low,9 + 3 - 4 + 6 + 7,21,22,21,23,1610.825762100052,1612.8502865999471,1614.3655900000597,1619.3839479000308,1619.7903329001274,1619.7903379001657,1621.3067282000557,1622.3238291000016,w,21.0,0.406385000096634,1,+1,509,-0.7753493360613115,-1.4518326813984466,0.6571354169768093,1610078.0,5.337785660625546,0.34504277897289803,0.16881738651869038,1613612.0,,,,,1614.3649133695494,1610.8309133695493,
108,40,24,f,1,2,100.0,24,4,low,5 + 7 - 4 + 6 + 9,23,24,25,23,1623.8407082001213,1625.8668337999843,1627.3817378999663,1632.3999807999935,1632.9902256000787,1632.9902307000011,1634.506794899935,1635.52354630013,e,23.0,0.5902448000852019,1,+1,510,-17.775588612939007,-0.2471265902316926,-0.012417461867080926,1623094.0,-16.41027572719215,-1.1334128654145186,0.1030112892617403,1626628.0,,,,,1627.3809133695493,1623.8469133695494,
109,40,24,f,1,2,101.0,25,1,low,6 + 1 + 8 + 1 + 1,17,16,17,15,1637.040751399938,1639.0678938000929,1640.58322879998,1645.601734700147,1646.1742635001428,1646.1742684000635,1647.6906980001368,1648.708254700061,w,17.0,0.57252879999578,1,+1,511,14.311386236083422,-0.1525467233534279,-0.163719548275165,1636295.0,-39.42182595839951,-0.45366256622271894,0.21030624647245055,1639829.0,,,,,1640.5819133695493,1637.0479133695494,
110,40,24,f,1,2,102.0,26,4,high,8 + 7 - 4 + 5 + 9,25,26,25,24,1650.2252808001358,1652.2509522000328,1653.766786799999,1658.7854041000828,1660.2143741999753,1660.2143792000134,1661.7309875001663,1662.7484761001542,w,25.0,1.4289700998924673,1,+10,521,-18.36478685336551,0.18924349991911882,0.0014914745323462153,1649479.0,-27.541837176203707,1.370835628695671,0.12906030129411672,1653013.0,,,,,1653.7659133695493,1650.2319133695494,
111,40,24,f,1,2,103.0,27,4,low,5 + 9 - 4 + 7 + 6,23,24,25,23,1664.265204400057,1666.2909032001626,1667.8061426000204,1672.8243279999588,1673.2862520001363,1673.286256399937,1674.8023415000644,1675.819044100121,e,23.0,0.4619240001775324,1,+1,522,21.598425957127194,0.9570674681287175,-0.24006366170141424,1663519.0,1.8031875122138272,0.10901402477703925,0.2361002493135569,1667052.0,,,,,1667.8049133695492,1664.2719133695493,
112,40,24,f,1,2,104.0,28,1,high,2 + 1 + 1 + 9 - 1,12,13,11,12,1677.3360727999825,1679.3618360999972,1680.8774087999482,1685.8957167000044,1686.4543031000069,1686.454308200162,1687.9707633999642,1688.9880361999385,e,12.0,0.5585864000022411,1,+10,532,-6.931625659841323,0.5378062230633658,0.11514935252063796,1676589.0,-9.671618910434827,-1.291220804363542,0.21177532778560182,1680123.0,,,,,1680.8759133695494,1677.3419133695493,
113,40,24,f,1,2,105.0,29,4,low,3 + 8 - 4 + 9 + 6,22,21,23,22,1690.504783099983,1692.5299589999486,1694.045480699977,1699.0646163001657,1699.4942739999387,1699.4942811999936,1701.0106937000528,1702.0275914999656,e,22.0,0.4296576997730881,1,+1,533,33.358651201684914,0.5005966243272928,0.10688787895058627,1689757.0,14.351076668911578,0.5036300665972568,-0.22505736102430363,1693292.0,,,,,1694.0449133695492,1690.5099133695494,
114,40,24,f,1,2,106.0,30,4,high,3 + 9 - 5 + 6 + 8,21,22,23,21,1703.5447242001535,1705.571394700091,1707.0863040001132,1712.1045212000608,1712.6063129999677,1712.6063179001212,1714.1229125000536,1715.1400405000895,e,21.0,0.5017917999066412,1,+10,543,-32.561179088163684,0.053867958022333795,-0.016087633839098947,1702799.0,15.475942423636738,1.0403980477984165,-0.059478710652311806,1706332.0,,,,,1707.0849133695494,1703.5519133695493,
115,40,24,f,1,2,107.0,31,1,high,8 - 1 + 1 + 6 + 1,15,16,14,15,1716.656800800003,1718.6802854000125,1720.195987300016,1725.2137450000737,1725.6304436000064,1725.6304487001617,1727.1470433999784,1728.1645452000666,e,15.0,0.4166985999327153,1,+10,553,-0.9693782775732807,-0.2911079563801868,0.0925239521569079,1715908.0,-1.5932910563629648,-0.25235903464073584,0.17295605831811334,1719441.0,,,,,1720.1939133695494,1716.6609133695492,
116,40,24,f,1,2,108.0,32,3,high,3 + 1 + 6 - 8 + 9,11,12,13,11,1729.6824298000429,1731.707338799955,1733.2224340999965,1738.240059700096,1738.782303800108,1738.7823090001475,1740.2988657001406,1741.3160825001542,e,11.0,0.5422441000118852,1,+10,563,-8.12642389076079,-1.2870758899870731,-0.0494179794597569,1728934.0,-22.08069724773977,-0.3452783509818591,-0.07546038576485992,1732468.0,,,,,1733.2209133695494,1729.6869133695493,
117,40,24,f,1,2,109.0,33,4,high,2 + 9 - 6 + 8 - 4,9,7,9,11,1742.8328879999465,1744.859162400011,1746.374623700045,1751.393455100013,1752.4384765001014,1752.4384816000238,1753.9557652999647,1754.973459500121,w,9.0,1.0450214000884444,1,+10,573,-15.045947018339344,1.095292490734134,0.07120231218019213,1742086.0,12.219467673200409,0.5354474982970787,-0.06429789463355684,1745620.0,,,,,1746.3729133695492,1742.8389133695493,
118,40,24,f,1,2,110.0,34,2,low,8 + 1 + 1 + 9 - 4,15,14,16,15,1756.4902315000072,1758.5180622001644,1760.0331800000276,1765.0513145001603,1765.670312799979,1765.6703177001327,1767.1867717001587,1768.2036087999586,e,15.0,0.618998299818486,1,+1,574,17.553802862742586,0.2806461547466901,0.033627256653093074,1755745.0,-5.7959872773851835,-0.3636319151838565,0.06951254861587941,1759278.0,,,,,1760.0309133695494,1756.4979133695492,
119,40,24,f,1,2,111.0,35,1,low,2 + 1 + 9 + 1 - 1,12,11,12,13,1769.7202320001088,1771.746527099982,1773.2615976999514,1778.282164500095,1778.8223288001027,1778.8223340001423,1780.3388245999813,1781.355902600102,w,12.0,0.5401643000077456,1,+1,575,-3.0066305272458393,-0.2600819323763961,0.08028012895923964,1768974.0,11.796282404662286,-0.3453802912469701,0.22161853958610922,1772509.0,,,,,1773.2619133695493,1769.7269133695493,
120,40,24,f,1,2,112.0,36,4,low,7 + 6 - 9 + 8 - 3,9,9,8,7,1782.8725406001322,1784.8997593000531,1786.415089200018,1791.4336131000891,1792.7344707001466,1792.7344756000675,1794.251224100124,1795.2688188999891,q,9.0,1.3008576000574976,1,+1,576,14.173414216823948,0.44960920226446266,0.04399986621279006,1782127.0,-35.07469415752588,0.0029516828273221662,-0.034591783117930985,1785660.0,,,,,1786.4129133695494,1782.8799133695493,
121,40,24,f,1,2,113.0,37,1,low,2 + 9 + 1 + 1 + 1,14,13,12,14,1796.7856030999685,1798.8119529001417,1800.3270173000635,1805.3458163000175,1805.806386600016,1805.8063920000568,1807.323104799958,1808.3399883001111,e,14.0,0.4605702999979257,1,+1,577,-27.647002472774062,0.1307958859238818,-0.023802370979955745,1796038.0,12.242632618226853,-1.160380442822504,0.06282844370761054,1799573.0,,,,,1800.3259133695494,1796.7909133695493,
122,40,24,f,1,3,114.0,0,4,low,4 + 9 - 7 + 8 + 5,19,19,20,21,1826.8661372000352,1828.8940888999496,1830.4092600001024,1835.428169199964,1836.8545389000792,1836.8545441001188,1838.3710732001343,1839.3877207001208,q,19.0,1.426369700115174,1,+1,578,15.032417066344646,-2.896111033275056,-0.09963092394252371,1826120.0,-2.176742506662819,-0.048334744684920494,-0.035275082871401686,1829654.0,,,,,1830.4069133695493,1826.8729133695492,
123,40,24,f,1,3,115.0,1,3,high,2 + 1 + 9 - 5 + 6,13,13,11,14,1840.904823899968,1842.932175999973,1844.4474084000103,1849.4658101999669,1850.18249060004,1850.1824956000785,1851.6986249000763,1852.7152921999805,q,13.0,0.7166804000735283,1,+10,588,10.99326661650418,0.593729502585969,2.0945166164194013,1840159.0,-2.0819196482255435,-1.1843710915953798,-0.4493482686716419,1843692.0,,,,,1844.4449133695493,1840.9119133695494,
124,40,24,f,1,3,116.0,2,1,high,7 + 1 + 5 + 1 - 1,13,14,13,12,1854.2322301999664,1856.2563021001408,1857.771439400036,1862.7894977999383,1865.0624937000684,1865.062498900108,1866.578960499959,1867.596399100032,w,13.0,2.2729959001298994,1,+10,598,15.158997968168695,2.8731756248908864,0.14779759916850188,1853483.0,1.8696227181145844,-1.1191814318336695,-0.0347842753196943,1857016.0,,,,,1857.7689133695494,1854.2359133695493,
125,40,24,f,1,3,117.0,3,2,low,9 + 4 - 6 + 1 - 1,7,8,7,9,1869.11303030001,1871.138746100012,1872.6542788001243,1877.6723985001445,1878.1344127999616,1878.1344175999984,1879.6507019000128,1880.668007900007,w,7.0,0.4620142998173833,1,+1,599,22.04713374906941,-0.8074069100746595,0.3170989304932659,1868365.0,65.82582491599435,-0.2153323175788584,0.049777102743849166,1871899.0,,,,,1872.6519133695492,1869.1179133695493,
126,40,24,f,1,3,118.0,4,4,low,6 + 5 - 7 + 8 - 9,3,5,4,3,1882.1848194000777,1884.2118691001087,1885.7268374999985,1890.7453459999524,1891.6705736999863,1891.6705788001416,1893.1869588999543,1894.2041929000989,e,3.0,0.9252277000341564,1,+1,600,22.005281346959126,-0.17887432117670343,0.01891060066363992,1881438.0,0.46021811032993165,0.048444109674084856,-0.05486765074989908,1884971.0,,,,,1885.7239133695493,1882.1909133695494,
127,40,24,f,1,3,119.0,5,4,low,9 + 7 - 5 + 8 + 6,25,27,25,24,1895.7208452001212,1897.7448412000667,1899.2600122001024,1904.2784881000407,1904.7184687999545,1904.7184737999924,1906.234939400107,1907.2518712000456,w,25.0,0.4399806999135762,1,+1,601,-11.888914918671261,-0.3128752065249927,0.0489580330550865,1894971.0,-23.827206995111453,0.3041090413317171,0.11568849699125239,1898505.0,,,,,1899.2579133695494,1895.7239133695493,
128,40,24,f,1,3,120.0,6,1,high,8 + 1 + 1 + 1 - 4,7,7,5,8,1908.7696082999464,1910.795122000156,1912.310330500128,1917.3280921000987,1920.02246080013,1920.0224655000493,1921.539191100048,1922.5564205001572,q,7.0,2.694368700031191,1,+10,611,-4.633071949018605,-1.0741586025001784,0.030633659091704235,1908021.0,26.964683358471515,0.08144593089347296,0.050577962165409884,1911554.0,,,,,1912.3069133695494,1908.7739133695493,
129,40,24,f,1,3,121.0,7,1,high,9 + 8 + 1 + 1 - 1,18,18,17,19,1924.073176500155,1926.097523600096,1927.6127270001448,1932.6305837000252,1933.070493400097,1933.070498400135,1934.587306200061,1935.6044749000573,q,18.0,0.4399097000714391,1,+10,621,-34.354806672048156,0.08817448647420534,-2.5367444809800204,1923323.0,-14.830986582630459,-0.5184340768826523,-0.16082139688432529,1926857.0,,,,,1927.6099133695493,1924.0759133695494,
130,40,24,f,1,3,122.0,8,4,high,4 + 7 + 8 - 3 + 9,25,25,24,26,1937.1211839001624,1939.1476002000272,1940.66369029996,1945.6822051999625,1946.8307458001652,1946.830750999972,1948.347019799985,1949.3639845999423,q,25.0,1.1485406002029777,1,+10,631,-5.367997900170565,0.9622399246458366,-0.08743123000431785,1936374.0,-1.510290069646107,1.2930155586231091,-0.14228259700367896,1939908.0,,,,,1940.6609133695492,1937.1269133695494,
131,40,24,f,1,3,123.0,9,1,high,5 + 8 - 1 + 1 + 1,14,16,14,12,1950.8808311000464,1952.9071078000125,1954.422329900088,1959.4407745001367,1960.134487099945,1960.1344924001023,1961.650997100165,1962.668355599977,w,14.0,0.6937125998083502,1,+10,641,8.97923765567742,-0.3380746777880397,-0.11455585918732347,1950133.0,5.262291348444695,0.6030884673885621,0.15659649634711115,1953667.0,,,,,1954.4199133695492,1950.8859133695494,
132,40,24,f,1,3,124.0,10,2,low,3 + 8 + 1 - 5 + 1,8,8,6,9,1964.1851530000567,1966.2126216001343,1967.7287588000763,1972.746532000136,1973.4464970000556,1973.4465020000932,1974.9631676999848,1975.9801690999884,q,8.0,0.6999649999197572,1,+1,642,-3.2070440988548743,0.4207542243838862,0.17567250609359863,1963438.0,-2.7551536503567293,-0.15392204594107728,0.05292604440476012,1966973.0,,,,,1967.7259133695493,1964.1909133695494,
133,40,24,f,1,3,125.0,11,2,high,4 + 7 + 1 + 1 - 8,5,7,5,4,1977.496973200003,1979.5228959999515,1981.0378241001165,1986.0579864999745,1986.5826094001527,1986.5826143999584,1988.099184999941,1989.1164063001047,w,5.0,0.524622900178656,1,+10,652,11.713208765328034,0.14983089639996017,0.005213728866122924,1976749.0,9.670249010034524,-1.2771192022262126,0.08274793648746681,1980284.0,,,,,1981.0369133695494,1977.5019133695494,
134,40,24,f,1,3,126.0,12,2,low,8 + 1 + 4 - 7 + 1,7,7,6,5,1990.6331104000565,1992.6598964000584,1994.175178900128,1999.1938185000329,1999.8145606999751,1999.814565500012,2001.3311413000336,2002.3480247000696,q,7.0,0.6207421999424696,1,+1,653,7.4517200830718755,-0.16113106736684912,-0.037412982066493905,1989885.0,-18.690098922539597,1.043943102861868,-0.05504401038079032,1993419.0,,,,,1994.1719133695494,1990.6379133695493,
135,40,24,f,1,3,127.0,13,4,high,8 + 4 - 5 + 7 - 6,8,7,6,8,2003.865054300055,2005.8901905000675,2007.405362100108,2012.4254773999564,2012.8474894999529,2012.8474948001092,2014.3636772001628,2015.3813914000057,e,8.0,0.4220120999962091,1,+10,663,10.32379043040071,0.7046080782163733,-0.024924677657469196,2003115.0,7.2098417873714045,-0.3567389522367197,0.08807602504846512,2006651.0,,,,,2007.4039133695494,2003.8679133695493,
136,40,24,f,1,3,128.0,14,3,low,3 + 8 - 7 + 1 + 9,14,12,13,14,2016.898038899992,2018.921668400057,2020.4365720001515,2025.455059800064,2025.9266035000328,2025.9266095000785,2027.4429134000093,2028.4601328000424,e,14.0,0.4715436999686062,1,+1,664,-28.287516542268186,0.41490109014463705,0.874809178768873,2016147.0,-4.056266249232751,-0.5791469559377207,-0.07019752304127147,2019680.0,,,,,2020.4329133695494,2016.8999133695493,
137,40,24,f,1,3,129.0,15,2,high,6 + 1 + 8 + 5 - 1,19,17,18,19,2029.9768688001204,2032.0026060000528,2033.5179663000165,2038.5360849001445,2039.0305433999747,2039.0305482000117,2040.5468987999484,2041.5640589999969,e,19.0,0.4944584998302161,1,+10,674,-23.211383868130927,0.6421223190734846,0.18682477991062085,2029228.0,-19.260003836517534,-0.18768109592926585,-0.06755043651180559,2032761.0,,,,,2033.5139133695493,2029.9809133695494,
138,40,24,f,1,3,130.0,16,4,high,6 + 9 + 7 - 3 - 5,14,14,13,12,2043.0811122001612,2045.108660500031,2046.623939600075,2051.642476200126,2053.1667172000743,2053.1667224999983,2054.683511500014,2055.701181899989,q,14.0,1.5242409999482334,1,+10,684,-0.03724955323455781,-0.7462712886616014,0.0845957224202376,2042334.0,-32.34442773610657,1.594275435397953,-0.013574309578911814,2045868.0,,,,,2046.6209133695493,2043.0869133695494,
139,40,24,f,1,3,131.0,17,3,high,5 + 1 + 7 - 8 + 6,11,11,13,9,2057.217987400014,2059.241117400117,2060.7560203000903,2065.7744648000225,2066.3026841999963,2066.3026897001546,2067.8193602999672,2068.8366561001167,q,11.0,0.5282193999737501,1,+10,694,-10.424594198898731,2.3824109194645873,-0.10615999077543559,2056466.0,28.14693493390543,0.21066154348579147,0.12382600683910061,2059999.0,,,,,2060.751913369549,2057.218913369549,
140,40,24,f,1,3,132.0,18,3,low,8 - 7 + 9 + 1 + 4,15,15,16,14,2070.353230800014,2072.37470080005,2073.889936800115,2078.9082800000906,2079.3826631000265,2079.382668199949,2080.899688699981,2081.9165440001525,q,15.0,0.4743830999359488,1,+1,695,7.476566492200762,-0.6349464178493509,0.0006078725871256907,2069600.0,-1.2642919289742203,-0.3634906904741477,0.07841492635040614,2073133.0,,,,,2073.885913369549,2070.3529133695492,
141,40,24,f,1,3,133.0,19,2,high,6 + 1 + 1 + 8 - 9,7,9,5,7,2083.4330994000197,2085.4584644001443,2086.9735723000485,2091.991630200064,2092.9106489999685,2092.910653800005,2094.4274351000786,2095.444762900006,e,7.0,0.919018799904734,1,+10,705,-52.10320348043943,-0.19671664348169138,-0.2818332200429101,2082683.0,2.3502768431600174,-1.7480684294417435,0.03191305089958707,2086217.0,,,,,2086.9699133695494,2083.4359133695493,
142,40,24,f,1,3,134.0,20,1,low,5 + 1 + 1 + 9 + 1,17,16,19,17,2096.961428300012,2098.989001699956,2100.504131700145,2105.521735599963,2106.086742900079,2106.086749000009,2107.6030979000498,2108.620111800032,e,17.0,0.5650073001161218,1,+1,706,4.251390476412546,1.3091251108719755,-0.13467013939526828,2096214.0,5.695774969519735,-0.9866646369948793,-0.03782902875713989,2099747.0,,,,,2100.499913369549,2096.9669133695493,
143,40,24,f,1,3,135.0,21,3,high,7 - 1 + 9 - 5 + 4,14,14,13,15,2110.137246000115,2112.162259500008,2113.6773608999792,2118.695699600037,2119.1666780000087,2119.166683300165,2120.683152199956,2121.700141499983,q,14.0,0.4709783999715,1,+10,716,9.207938595972696,0.022138557056276653,0.0548630128498544,2109387.0,13.148121151553124,0.3813472389338468,-0.0869167914456963,2112921.0,,,,,2113.673913369549,2110.1399133695495,
144,40,24,f,1,3,136.0,22,4,high,5 + 8 - 6 + 7 + 4,18,17,19,18,2123.216860700166,2125.241306700045,2126.7564932999667,2131.774980999995,2133.0627272999845,2133.062732900027,2134.5793943000026,2135.596423299983,e,18.0,1.2877462999895215,1,+10,726,-17.70709712031893,0.9670123869054681,-0.023635958062399265,2122466.0,21.234152425247984,0.9019374206486548,-0.0492632579341028,2126000.0,,,,,2126.7529133695493,2123.218913369549,
145,40,24,f,1,3,137.0,23,3,high,2 - 4 + 9 + 7 + 1,15,13,16,15,2137.112899699947,2139.139582300093,2140.654939700151,2145.673218900105,2147.734740700107,2147.734745800029,2149.251371700084,2150.268493900076,e,15.0,2.061521800002083,1,+10,736,26.104480323848477,0.2787422349790356,-0.010598424866588685,2136364.0,9.460842654090033,-0.06343069201578366,0.1629794567182703,2139898.0,,,,,2140.6509133695495,2137.1169133695494,
146,40,24,f,1,3,138.0,24,1,high,3 + 1 + 1 + 9 - 1,13,13,12,14,2151.7861238000914,2153.8131647000555,2155.3283671999816,2160.3464463001583,2160.718734600116,2160.718740100041,2162.235251900041,2163.252553800121,q,13.0,0.3722882999572903,1,+10,746,13.352529734668652,0.010650851607723943,-0.03234463217108763,2151037.0,-22.674016540100038,-0.679343906859299,-0.1418089396607114,2154571.0,,,,,2155.3239133695492,2151.789913369549,
147,40,24,f,1,3,139.0,25,1,low,7 + 1 + 4 + 1 - 1,12,14,13,12,2164.7693503999617,2166.796558600152,2168.311480100034,2173.330074999947,2173.926781400107,2173.9267866001464,2175.4432586000767,2176.459816900082,e,12.0,0.5967064001597464,1,+1,747,-7.177752256368599,0.3212728300175396,-0.02231373795981617,2164021.0,-15.208756323162788,0.20300900839226,0.12237242469651788,2167554.0,,,,,2168.3069133695494,2164.7739133695495,
148,40,24,f,1,3,140.0,26,2,high,4 + 8 + 1 + 1 - 5,9,8,9,11,2177.9769522999413,2180.0029537000228,2181.518504100153,2186.536728500156,2187.254721000092,2187.2547258001287,2188.771089400165,2189.7882896999363,w,9.0,0.717992499936372,1,+10,757,8.449265663762986,1.113780350873351,-0.004322599093398827,2177227.0,11.334066542166719,-1.63855062666768,0.15765812995701745,2180761.0,,,,,2181.5139133695493,2177.979913369549,
149,40,24,f,1,3,141.0,27,2,high,4 + 8 + 1 + 1 - 6,8,9,7,8,2191.305040100124,2193.328782299999,2194.844032400055,2199.8624232001603,2200.4707395001315,2200.4707450999413,2201.987165000057,2203.004317000042,e,8.0,0.6083162999711931,1,+10,767,-24.958331210399955,-0.3581846600395968,-0.008139047757213191,2190554.0,-1.1361351399261856,0.029153060760385152,-0.10513759410001833,2194087.0,,,,,2194.8399133695493,2191.3069133695494,
150,40,24,f,1,3,142.0,28,2,high,4 + 9 + 1 - 7 - 1,6,6,5,8,2204.521562300157,2206.5465717001352,2208.061756900046,2213.0797031000257,2213.6787231999915,2213.6787278000265,2215.195131600136,2216.212263100082,q,6.0,0.5990200999658555,1,+10,777,3.9695140017201567,0.5417317692364136,-0.03353585983703833,2203771.0,1.0275201873590234,0.08489086811726398,0.060542253616173713,2207304.0,,,,,2208.0569133695494,2204.5239133695495,
151,40,24,f,1,3,143.0,29,2,low,4 + 9 - 7 + 1 - 1,6,6,5,8,2217.729120800039,2219.7562241000123,2221.2714782000985,2226.290026400005,2226.774797799997,2226.7748027001508,2228.2913248999976,2229.308121500071,q,6.0,0.4847713999915868,1,+1,778,-15.460224265935835,0.07157063830095556,-0.14542944224456456,2216979.0,-6.117977923979037,-0.17817021307683678,0.07989639256182057,2220514.0,,,,,2221.2669133695495,2217.731913369549,
152,40,24,f,1,3,144.0,30,1,low,7 + 1 + 4 + 1 - 1,12,12,13,11,2230.8249091999605,2232.8493807001505,2234.364600700093,2239.3846138000954,2239.822718300158,2239.822723099962,2241.3396618000697,2242.3563176000025,q,12.0,0.4381045000627637,1,+1,779,-6.373434338531105,-0.2209175369644747,0.015621135541674658,2230074.0,25.61602339318703,0.11556518782835745,0.14613371097819194,2233608.0,,,,,2234.3609133695495,2230.8269133695494,
153,40,24,f,1,3,145.0,31,3,low,7 - 1 + 8 - 6 + 4,12,13,11,12,2243.8732068000827,2245.900549100013,2247.416403700132,2252.434674800141,2252.9428016999736,2252.9428070001304,2254.459279499948,2255.476193099981,e,12.0,0.5081268998328596,1,+1,780,6.259285966617686,-0.7771991063914978,-0.03654109519916382,2243125.0,17.381683802498486,0.2285479650677198,0.06248170483219706,2246659.0,,,,,2247.4119133695494,2243.8779133695493,
154,40,24,f,1,3,146.0,32,3,high,5 + 6 + 7 - 1 - 9,8,8,9,7,2256.992932500085,2259.016330700135,2260.531486199936,2265.5498603000306,2266.022829100024,2266.022834399948,2267.5394735001028,2268.5566972000524,q,8.0,0.4729687999933958,1,+10,790,12.867407376260722,0.2639329466554168,-0.061151731362841355,2256240.0,-14.538259884889152,-0.7527697464351863,0.10557444113042025,2259774.0,,,,,2260.526913369549,2256.992913369549,
155,40,24,f,1,3,147.0,33,3,high,4 + 7 + 1 + 9 - 5,16,18,16,17,2270.073479200015,2272.096175200073,2273.611348300008,2278.6297131001484,2280.04702450009,2280.0470291001257,2281.563598900102,2282.5811670999974,w,16.0,1.417311399942264,1,+10,800,15.839539658015406,1.12586197490557,0.011402474174968757,2269320.0,18.015265102579278,-0.0877103118679301,0.0346661400410444,2272853.0,,,,,2273.6059133695494,2270.0729133695495,
156,40,24,f,1,3,148.0,34,4,high,3 + 8 - 4 + 9 + 7,23,24,23,22,2284.097683200147,2286.1232527999678,2287.638536600163,2292.657016400015,2296.158948400058,2296.158953699982,2297.6755339000374,2298.692910599988,w,23.0,3.50193200004287,1,+10,810,1.619730014386378,-6.113459411411407,-0.018912048005968796,2283347.0,-6.230701340699387,0.6127580373263708,0.14028974163440733,2286881.0,,,,,2287.633913369549,2284.0999133695495,
157,40,24,f,1,3,149.0,35,4,low,8 + 4 + 7 - 5 - 6,8,8,9,6,2300.209763900144,2302.23580470006,2303.750963900005,2308.771469900152,2309.5589316000696,2309.5589370001107,2311.0757482000627,2312.092468200018,q,8.0,0.7874616999179125,1,+1,811,-8.896139697110815,0.8033811874724623,0.10930606540510235,2299459.0,15.498786321673311,-0.22820659006783828,0.1771636892904731,2302994.0,,,,,2303.7469133695495,2300.211913369549,
158,40,24,f,1,3,150.0,36,1,low,3 + 1 + 8 - 1 + 1,12,13,12,10,2313.608982200036,2315.635370800039,2317.15049010003,2322.168796099955,2322.5429523000494,2322.5429569999687,2324.0590737999883,2325.075409400044,w,12.0,0.3741562000941485,1,+1,812,19.580336930137015,0.5026897508393535,-0.03309458838922241,2312860.0,-48.34539607269696,-1.6844421870411788,0.050674139929105744,2316392.0,,,,,2317.144913369549,2313.6129133695495,
159,40,24,f,1,3,151.0,37,2,low,8 + 1 + 9 + 1 - 4,15,15,16,14,2326.592422900023,2328.6186345999595,2330.1340771000832,2335.15241300012,2336.910967800068,2336.91097289999,2338.427656700136,2339.4450073000044,q,15.0,1.7585547999478877,1,+1,813,12.797973912142783,-0.42898042562649685,-0.009246704614713996,2325842.0,-2.390360499465517,-0.49674507227762277,0.015238470525485992,2329376.0,,,,,2330.1289133695495,2326.5949133695494,
160,40,24,f,1,4,152.0,0,2,low,2 + 9 + 1 + 1 - 5,8,7,6,8,2347.394455099944,2349.419716099976,2350.934801999945,2355.954236400081,2356.5190189999994,2356.519024700159,2358.0357452000026,2359.0527340001427,e,8.0,0.5647825999185443,1,+1,814,-10.087616226899616,9.709919093992273,-0.3203453632007254,2346643.0,-34.69728242337041,-1.4881888859625185,0.14422810910275263,2350178.0,,,,,2350.930913369549,2347.3959133695494,
161,40,24,f,1,4,153.0,1,3,high,2 + 9 - 3 + 4 + 1,13,13,11,14,2360.569457100006,2362.595240599941,2364.110098700039,2369.129200699972,2369.5988170001656,2369.598821599968,2371.115798600018,2372.1335754001047,q,13.0,0.4696163001935929,1,+10,824,14.299285925453834,0.6259283830019129,0.042521439919807946,2359818.0,-11.801920958916861,-0.5264049757883935,-0.034677207810401844,2363352.0,,,,,2364.104913369549,2360.5709133695495,
162,40,24,f,1,4,154.0,2,1,high,7 - 1 + 1 + 9 - 1,15,15,13,14,2373.6504311000463,2375.6750368999783,2377.18993660016,2382.2082106999587,2382.638865099987,2382.638870400144,2384.155209900113,2385.172443600138,q,15.0,0.4306544000282883,1,+10,834,3.876116320830164,0.4295718139433973,0.03681910614226558,2372898.0,20.25874982205116,-0.09206710878335578,0.02987580793503164,2376431.0,,,,,2377.1839133695494,2373.6509133695495,
163,40,24,f,1,4,155.0,3,3,high,8 + 3 + 1 - 7 + 9,14,12,14,15,2386.6889802999794,2388.7131391000003,2390.228434700053,2395.2472063000314,2395.975009900052,2395.9750145999715,2397.4915923001245,2398.5088019999675,w,14.0,0.7278036000207067,1,+10,844,-13.226634523904437,-0.5323281042345034,-0.06646828096199164,2385936.0,-15.245137863060787,-0.04288279993980382,0.04686602437402998,2389470.0,,,,,2390.222913369549,2386.6889133695495,
164,40,24,f,1,4,156.0,4,1,low,5 + 9 - 1 + 1 + 1,15,13,15,17,2400.025655600009,2402.052721100161,2403.568116700044,2408.586145899957,2409.007026900072,2409.0070321001112,2410.523577200016,2411.540482799988,w,15.0,0.4208810001146048,1,+1,845,-5.324412461600133,-0.8934902553551858,0.09369843549731471,2399276.0,-8.56964885110856,0.06810988519687378,-0.1237406617598038,2402809.0,,,,,2403.5619133695495,2400.028913369549,
165,40,24,f,1,4,157.0,5,3,low,5 - 1 - 4 + 6 + 7,13,13,14,15,2413.057609300129,2415.0825469000265,2416.597766699968,2421.6177385000046,2422.1109800999984,2422.1109851000365,2423.627501500072,2424.6441643999424,q,13.0,0.4932415999937802,1,+1,846,-35.24625212396019,-0.1978203644717631,0.07528490672672783,2412306.0,-26.700626423109295,-0.4193219634813108,-0.054456242824107326,2415840.0,,,,,2416.5929133695495,2413.0589133695494,
166,40,24,f,1,4,158.0,6,4,low,7 + 8 - 4 + 6 - 5,12,12,11,13,2426.1605688000564,2428.1878521000035,2429.7030813000165,2434.721658100141,2435.206962600117,2435.206967800157,2436.723643900128,2437.7407522001304,q,12.0,0.4853044999763369,1,+1,847,4.9107011604813815,-0.6552394714587244,-0.0459218380904689,2425411.0,-6.850290629105054,-0.23565858667561113,-0.015080393537483028,2428944.0,,,,,2429.6969133695493,2426.1639133695494,
167,40,24,f,1,4,159.0,7,1,low,6 + 1 + 8 + 1 - 1,15,13,14,15,2439.2575370999984,2441.2840871000662,2442.799237600062,2447.818519999972,2448.270925299963,2448.27093060012,2449.787156000035,2450.8038880999666,e,15.0,0.4524052999913692,1,+1,848,33.9653177035884,-0.3832562768166561,-0.04988119699729743,2438507.0,-0.9344199714417614,0.7034310257461218,0.09720629689905658,2442041.0,,,,,2442.7939133695495,2439.2599133695494,
168,40,24,f,1,4,160.0,8,2,high,3 + 1 + 8 - 5 - 1,6,6,5,7,2452.3207257001195,2454.348217200022,2455.863318100106,2460.881897300016,2461.255010199966,2461.255015300121,2462.771519900067,2463.788820600137,w,5.0,0.3731128999497741,0,+0,848,-4.082212238649497,-0.3192981307752305,0.01141702725014837,2451571.0,-16.342236509742854,-0.004255229478880906,-0.032980599156584134,2455104.0,,,,,2455.856913369549,2452.3239133695492,
169,40,24,f,1,4,161.0,9,4,high,8 + 5 - 4 + 7 + 9,25,24,25,26,2465.30562749994,2467.3314044999424,2468.846226399997,2473.86621639994,2474.271322699962,2474.2713293000124,2475.7881323001347,2476.805306799942,w,25.0,0.405106300022453,1,+10,858,28.89095810051451,0.8301147974851366,0.09413226125912422,2464554.0,7.549965358132729,-0.9470351853375423,0.07057313723062575,2468089.0,,,,,2468.8419133695493,2465.3069133695494,
170,40,24,f,1,4,162.0,10,2,low,6 + 8 + 1 + 1 - 7,9,11,8,9,2478.3220218000934,2480.3494524999987,2481.8646603000816,2486.8830194999464,2487.3351321001537,2487.335137200076,2488.851230300032,2489.8681809001137,e,9.0,0.4521126002073288,1,+1,859,-46.509016018508284,0.05360099089319448,0.005723142283640126,2477572.0,1.6588100992658887,-1.648664645168493,0.20234290256607967,2481105.0,,,,,2481.8579133695494,2478.3249133695494,
171,40,24,f,1,4,163.0,11,4,high,2 + 5 - 3 + 9 + 8,21,21,19,22,2491.3850257000886,2493.4116379001644,2494.9268283001147,2499.9452619999647,2500.5189767000265,2500.518981500063,2502.0351124000736,2503.0520975999534,q,21.0,0.5737147000618279,1,+10,869,7.462746054350616,0.33440603676862146,0.15062863854570296,2490634.0,-8.905020578201954,0.5734222158486553,0.06575066431297127,2494168.0,,,,,2494.9209133695495,2491.3869133695493,
172,40,24,f,1,4,164.0,12,2,high,7 + 5 + 1 - 1 - 8,4,4,3,2,2504.5688048000447,2506.5940322999377,2508.109261099948,2513.128243900137,2513.6789575000294,2513.678962300066,2515.195268600015,2516.212253100006,q,4.0,0.5507135998923331,1,+10,879,-17.073488193185895,0.5902208239098226,-0.11308056490158336,2503816.0,12.783486853092452,-0.6807347261905861,-0.008915137067451395,2507350.0,,,,,2508.1029133695492,2504.568913369549,
173,40,24,f,1,4,165.0,13,2,high,7 + 6 + 1 - 1 - 8,5,5,3,4,2517.7286541999783,2519.752320399973,2521.267489900114,2526.286849800032,2529.1749456999823,2529.174950600136,2530.6914487001486,2531.7086438999977,q,5.0,2.888095899950713,1,+10,889,-5.0996798857239085,-0.4212420714764633,-0.010287004606089223,2516974.0,3.8544747573162095,-0.25000252864624706,0.04849164117297322,2520509.0,,,,,2521.2619133695493,2517.7269133695495,
174,40,24,f,1,4,166.0,14,1,high,7 - 1 + 8 + 1 - 1,14,12,13,14,2533.225494500017,2535.252844200004,2536.768801700091,2541.787727399962,2542.3110406000637,2542.311045800103,2543.827859299956,2544.8452304000966,e,14.0,0.5233132001012564,1,+10,899,-16.001253334884964,0.8325458437373472,0.09220655711232695,2532475.0,19.682760508961564,0.37035233212757657,-0.005152651219567428,2536009.0,,,,,2536.7619133695493,2533.2279133695492,
175,40,24,f,1,4,167.0,15,4,high,3 + 8 - 5 + 9 - 7,8,7,8,6,2546.3617426999845,2548.386077800067,2549.901016900083,2554.919230700005,2555.399019600125,2555.3990244001616,2556.915444400161,2557.9327939001378,w,8.0,0.4797889001201838,1,+10,909,11.37953374128285,0.3487874008817622,-0.0244588969300068,2545608.0,-8.681299617053783,-0.711528759181407,0.05025889971572828,2549141.0,,,,,2549.8939133695494,2546.3609133695495,
176,40,24,f,1,4,168.0,16,1,low,3 + 1 + 9 + 1 - 1,13,14,13,12,2559.449496400077,2561.4771362999454,2562.992418900132,2568.0107688000426,2568.4550851001404,2568.455090200063,2569.9724215001334,2570.989368000068,w,13.0,0.4443163000978529,1,+1,910,11.617007163730184,0.26337301459255613,-0.04219523160605476,2558699.0,7.882221518180222,-0.014727594687329315,-0.032155194104099616,2562233.0,,,,,2562.9859133695495,2559.4519133695494,
177,40,24,f,1,4,169.0,17,3,low,3 + 8 + 1 + 5 - 9,8,8,7,9,2572.506116400007,2574.5329901999794,2576.048832600005,2581.06676860014,2581.5510019001085,2581.5510068000294,2583.0677643001545,2584.084835299989,q,8.0,0.4842332999687642,1,+1,911,11.945885192289266,-0.20353217301820425,-0.012263447511494663,2571755.0,16.593301313067595,0.20392311365596427,-0.08140662356570916,2575289.0,,,,,2576.0419133695495,2572.5079133695494,
178,40,24,f,1,4,170.0,18,2,high,3 + 9 - 1 - 5 + 1,7,7,6,5,2585.6024811000098,2587.6293711999897,2589.1444457999896,2594.1624654000625,2594.607257100055,2594.6072629999835,2596.1236857001204,2597.1409801000264,q,7.0,0.4447916999924928,1,+10,921,12.706944531707224,-0.9028616063417232,0.1555998611267757,2584851.0,-3.7977530411061906,-0.4138808836408856,0.032476306259432874,2588384.0,,,,,2589.1369133695493,2585.6039133695494,
179,40,24,f,1,4,171.0,19,1,high,6 + 9 + 1 + 1 - 1,16,16,15,14,2598.6577457000967,2600.6834917999804,2602.199104900006,2607.2173264999874,2607.743128699949,2607.7431338001043,2609.2596569000743,2610.2767950000707,q,16.0,0.5258021999616176,1,+10,931,-16.513424097367853,0.7346104541035485,0.017142063157014276,2597905.0,32.76417906000191,-0.15383142639153924,-0.03996331266158504,2601439.0,,,,,2602.191913369549,2598.6579133695495,
180,40,24,f,1,4,172.0,20,3,low,5 + 6 - 4 - 1 + 8,14,14,16,15,2611.793479300104,2613.8167004999705,2615.332286500139,2620.350236900151,2620.9670033000875,2620.967008000007,2622.48316240008,2623.5000014000107,e,15.0,0.6167663999367505,0,+0,931,-1.2132657055072058,-0.15114297439990665,0.0010780268655725678,2611038.0,16.954238142330574,-0.6730705613843693,-0.009498532219834432,2614572.0,,,,,2615.3249133695494,2611.7909133695493,
181,40,24,f,1,4,173.0,21,2,high,2 + 9 - 4 + 1 + 1,9,11,8,9,2625.0167730001267,2627.042158300057,2628.557382900035,2633.575633100001,2634.1031284001656,2634.103134199977,2635.6191706000827,2636.6362994001247,e,9.0,0.5274953001644462,1,+10,941,-13.947120205399598,0.6625672496501327,0.0511199299189149,2624264.0,9.382313847995965,-1.261332350815688,0.02617914209079042,2627797.0,,,,,2628.5499133695494,2625.0169133695495,
182,40,24,f,1,4,174.0,22,3,low,6 - 1 + 7 - 8 + 9,13,11,12,13,2638.15361379995,2640.1816982999444,2641.6968294000253,2646.7154171001166,2647.207066599978,2647.2070713001303,2648.724383499939,2649.741237099981,e,13.0,0.4916494998615235,1,+1,942,2.449055212416292,0.7648493996586421,0.025307323931910597,2637403.0,-2.0341050959013005,0.14389695844175776,0.007064483028374369,2640937.0,,,,,2641.6899133695492,2638.155913369549,
183,40,24,f,1,4,175.0,23,4,high,4 + 8 + 9 - 3 + 7,25,26,24,25,2651.257947700098,2653.2810792000964,2654.796378799947,2659.8150200000964,2662.847160600126,2662.847165700048,2664.3638337999582,2665.3809454999864,e,25.0,3.032140600029379,1,+10,952,16.33446846701359,0.8512026484239836,0.09734364675573293,2650503.0,-7.539651352713486,-1.1472405380745574,0.0016549011760322863,2654036.0,,,,,2654.7889133695494,2651.2559133695495,
184,40,24,f,1,4,176.0,24,2,high,5 - 1 + 1 + 8 + 9,22,22,21,23,2666.8984710001387,2668.9229518999346,2670.438352599973,2675.456748299999,2675.975064400118,2675.975069000153,2677.491578300018,2678.508850600105,q,22.0,0.5183161001186818,1,+10,962,-22.605573043846235,1.6214158378859818,0.059200381318490924,2666144.0,-11.261976074476452,-0.09338139955410352,0.00537658055924739,2669678.0,,,,,2670.430913369549,2666.896913369549,
185,40,24,f,1,4,177.0,25,2,high,6 + 1 + 7 + 5 - 1,18,18,17,16,2680.025433399948,2682.0510784999933,2683.566446500132,2688.584712699987,2689.127082100138,2689.127086800057,2690.643883800134,2691.6610712001566,q,18.0,0.5423694001510739,1,+10,972,2.6145842027690804,-0.04416135662573595,-0.04191548069351425,2679272.0,-9.401656668633665,0.7437685547449142,0.138635452843904,2682806.0,,,,,2683.5589133695494,2680.0249133695493,
186,40,24,f,1,4,178.0,26,1,low,9 + 8 + 1 + 1 - 1,18,17,18,20,2693.178050900111,2695.2056307999883,2696.721225100104,2701.740274700104,2702.343145400053,2702.343150200089,2703.8596141999587,2704.876611800166,w,18.0,0.6028706999495625,1,+1,973,-10.035795412609716,0.5191065155505346,-0.016840494703132425,2692426.0,-3.0373852381684365,-0.15615499565351865,0.006488464054658083,2695962.0,,,,,2696.7149133695493,2693.1789133695493,
187,40,24,f,1,4,179.0,27,1,high,3 + 1 + 8 + 1 + 1,14,12,13,14,2706.393310100073,2708.4210039000027,2709.936416000128,2714.9545265999623,2715.4711108000483,2715.471115600085,2716.9878797000274,2718.00507770013,e,14.0,0.5165842000860721,1,+10,983,20.01283788663671,-1.2829100224130592,-0.15544088004550738,2705642.0,1.143095443455807,-0.5758798957727009,0.061985060935222824,2709176.0,,,,,2709.9289133695493,2706.394913369549,
188,40,24,f,1,4,180.0,28,3,low,7 + 1 + 9 + 5 - 6,16,16,14,15,2719.521966000088,2721.545795300044,2723.060840799939,2728.0793520000298,2729.1832682001404,2729.1832731000613,2730.699988400098,2731.721288200002,q,16.0,1.1039162001106888,1,+1,984,-1.6973109439014937,-1.4908611598058732,-0.11820604825446512,2718767.0,22.530760551777632,-0.1835633954268836,0.19960128297080315,2722300.0,,,,,2723.0529133695495,2719.519913369549,
189,40,24,f,1,4,181.0,29,1,low,3 + 1 + 1 + 8 - 1,12,14,12,13,2733.237442899961,2735.26462380006,2736.780559499981,2741.799792200094,2742.279301099945,2742.2793058999814,2743.795918200165,2744.8125343001448,w,12.0,0.4795088998507708,1,+1,985,6.647215344184105,-0.23023494629497954,-0.01687208530540718,2732485.0,-16.68649046490704,-1.396390345996383,-0.10651222250822245,2736020.0,,,,,2736.7729133695493,2733.2379133695495,
190,40,24,f,1,4,182.0,30,1,high,6 + 1 + 1 + 9 - 1,16,16,15,14,2746.3296336000785,2748.357070900034,2749.87222800008,2754.8901978000067,2755.39916660008,2755.3991721000057,2756.9619535999373,2757.979467400117,q,16.0,0.5089688000734895,1,+10,995,-2.233835760710029,0.6921995508946885,0.0036953852801029363,2745578.0,-8.295846973865554,0.2858974306973572,0.09466908889218306,2749111.0,,,,,2749.863913369549,2746.3309133695493,
191,40,24,f,1,4,183.0,31,1,high,4 + 1 + 1 + 7 - 1,12,14,12,13,2759.4961964001413,2761.5202896001283,2763.035390000092,2768.054543500068,2769.047182300128,2769.0471884999424,2770.563836000161,2771.580970800016,w,12.0,0.9926388000603764,1,+10,1005,14.032065891144217,0.03272206530547095,-0.03052273444056408,2758741.0,16.226733326855836,0.3891872063817985,0.09910860033786606,2762274.0,,,,,2763.026913369549,2759.4939133695493,
192,40,24,f,1,4,184.0,32,3,low,7 + 5 + 9 + 1 - 6,16,16,15,14,2773.097687300062,2775.123777500121,2776.6395543001126,2781.658944200026,2782.4712505999487,2782.471255900105,2783.9876890000887,2785.00503739994,q,16.0,0.812306399922818,1,+1,1006,3.908910067493702,0.11265570408520631,-0.07943879299000978,2772344.0,22.26600507836886,-0.2747869177587354,0.09956735497089908,2775880.0,,,,,2776.6329133695494,2773.0969133695494,
193,40,24,f,1,4,185.0,33,1,low,3 + 1 + 8 + 1 + 1,14,16,14,13,2786.521829700097,2788.548569600098,2790.0641318000853,2795.0817397001665,2795.5592132001184,2795.559218000155,2797.076052600052,2798.0928877000697,w,14.0,0.4774734999518841,1,+1,1007,-32.133285487270264,-0.06535156244752471,0.08889351017914615,2785769.0,5.6031018287567225,0.22821371827552817,0.05820228638257574,2789303.0,,,,,2790.055913369549,2786.521913369549,
194,40,24,f,1,4,186.0,34,2,high,7 + 5 + 1 + 9 + 1,23,23,22,21,2799.609607800143,2801.6357176001184,2803.151017999975,2808.1707419999875,2808.783225000137,2808.78323010006,2810.2999508001376,2811.3169305999763,q,23.0,0.6124830001499504,1,+10,1017,-1.0089381830314341,0.4608820896904886,0.16049247797721566,2798856.0,-6.760617341036408,0.2969162321097816,-0.008076285189984489,2802391.0,,,,,2803.1439133695494,2799.6089133695496,
195,40,24,f,1,4,187.0,35,3,low,6 + 1 + 8 + 7 - 9,13,13,15,14,2812.8335588001646,2814.8606775000226,2816.375866000075,2821.3945629000664,2821.847236200003,2821.8472414000425,2823.364167199936,2824.381824700162,q,13.0,0.4526732999365777,1,+1,1018,-18.454349547864602,0.8288718539825055,-0.013140504666649067,2812081.0,-10.643345354734972,0.578259758494732,0.09281509188496617,2815615.0,,,,,2816.367913369549,2812.8339133695495,
196,40,24,f,1,4,188.0,36,4,low,6 + 9 - 7 + 8 - 5,11,11,13,12,2825.898770000087,2827.924980000127,2829.4402578000445,2834.460435500136,2835.12723079999,2835.127235400025,2836.643255500123,2837.6595960001,q,11.0,0.6667952998541296,1,+1,1019,-18.191249138791527,0.8466078989867185,-0.006686823995768698,2825146.0,-21.828419759964493,0.3544512640533881,0.09431362013107636,2828681.0,,,,,2829.4339133695494,2825.8989133695495,
197,40,24,f,1,4,189.0,37,3,low,4 + 8 - 3 + 5 - 1,13,13,14,12,2839.1765404001344,2841.2049366000574,2842.720115600154,2847.7382771000266,2848.1913940000813,2848.1913993000053,2849.7078968000133,2850.724782099948,q,13.0,0.4531169000547379,1,+1,1020,-1.0862040873043757,0.6130575920146129,0.048784260617551034,2838425.0,29.461173392284316,-0.7197201521264329,-0.032307694155454536,2841959.0,,,,,2842.711913369549,2839.1779133695495,
198,40,24,f,1,5,190.0,0,3,high,6 - 1 + 7 - 8 + 9,13,11,13,12,2856.299062000122,2858.324346000096,2859.83956220001,2864.858342099935,2865.247409499949,2865.247414099984,2866.763596200152,2867.780616499949,w,13.0,0.3890674000140279,1,+10,1030,-7.680687348157518,-0.36147636248353443,0.07094317265896577,2855545.0,21.521658723799707,-0.7208041670641769,0.07511551669543182,2859079.0,,,,,2859.8319133695495,2856.2979133695494,
199,40,24,f,1,5,191.0,1,4,low,4 + 7 - 8 + 9 - 4,8,8,9,7,2869.29728249996,2871.323013199959,2872.838262400124,2877.85675720009,2878.399350200081,2878.399355100002,2879.915968599962,2880.9328686001245,q,8.0,0.5425929999910295,1,+1,1031,9.940775085220078,0.2509891488625975,0.05228878103195855,2868543.0,6.769140288923396,-0.724447190397278,-0.02252408942589068,2872077.0,,,,,2872.8299133695496,2869.2959133695495,
