,id,age,sex,cued,block,trial,trialinblock,efflev,rewlev,calc,corAns,option1,option2,option3,tstart,ITI1Time,probTime,respTime,selectTime,ITI2Time,fbTime,ITI3Time,key_press,chosenAns,RT,acc,feedback,total_points,cuescr,cuecor,cuezyg,cuetime,probscr,probcor,probzyg,probtime,fbscr,fbcor,fbzyg,fbtime,probtime_c,cuetime_c,fbtime_c
0,42,20,F,0,Practice,,0,1,0,4 + 1 + 9 + 1 + 1,16,16,14,15,380.9714101999998,,380.9714125000173,386.28784429997904,388.44770590000553,388.4477116999915,389.9649875999894,390.9887121000211,q,16,2.1598616000264883,1,Correct,0,,,,,30.17840748998688,-0.13306211739456053,0.08659026341051268,197707.0,1.385685932534873,-0.6622204853846503,-0.011848095164799899,206408.0,381.60836803969846,,390.3093680396985
1,42,20,F,0,Practice,,1,1,0,3 + 1 + 1 + 8 - 1,12,11,10,12,392.50682429998415,,392.5068278000108,397.5295813999837,399.071741199994,399.07174729998223,400.58862420002697,401.6066141999909,e,12,1.5421598000102676,1,Correct,0,,,,,-28.023220316054307,0.5442808880935868,0.07741248923968058,208949.0,5.309285820650109,0.7142478691424143,-0.2549827303005312,217026.0,392.8503680396985,,400.9273680396985
2,42,20,F,0,Practice,,2,2,0,8 + 1 + 6 + 1 - 4,12,10,11,12,403.1239963999833,,403.1240018000244,408.1427032999927,408.9355472999741,408.9355532000191,410.4525665999972,411.4693093000096,e,12,0.7928439999814145,1,Correct,0,,,,,4.167680693201335,-0.49699579967334984,-0.1816556881293221,219562.0,-21.418971884044076,-0.7832945182035589,0.08923318414477666,226889.0,403.4633680396985,,410.7903680396985
3,42,20,F,0,Practice,,3,2,0,9 + 4 - 6 + 1 - 1,7,5,7,6,412.98609020002186,,412.986093399988,418.0055859999848,418.5835781000205,418.5835849000141,420.1002119000186,421.1172017999925,w,7,0.5779921000357717,1,Correct,0,,,,,26.465479522189874,0.6135745316805306,0.010587798311220142,229425.0,-5.389995191380834,-0.24208927745123887,0.11171985761424286,236537.0,413.3263680396985,,420.4383680396985
4,42,20,F,0,Practice,,4,3,0,9 + 3 - 5 + 6 + 7,20,21,20,22,422.6340555999777,,422.63405890000286,427.6529036000138,428.6076464999933,428.6076524999808,430.1243150000228,431.14205919997767,w,20,0.9547428999794648,1,Correct,0,,,,,1.754793548160496,-0.169762285969826,0.0374428793085777,239073.0,-26.646401533846877,-0.26077114512131416,-0.04097207212941245,246561.0,422.97436803969845,,430.4623680396985
5,42,20,F,0,Practice,,5,3,0,2 + 1 + 9 - 7 + 6,11,11,10,9,432.6586877999944,,432.65869100001873,437.6786836999818,438.3036181000061,438.3036235999898,439.820252000005,440.8383693000069,q,11,0.6249344000243582,1,Correct,0,,,,,16.446145512802993,-0.46972307101914446,0.6093297772894157,249098.0,4.351403891841258,-0.07480871598777217,0.06664307255339685,256258.0,432.9993680396985,,440.15936803969845
6,42,20,F,0,Practice,,6,4,0,4 + 8 + 5 - 3 + 7,21,22,21,23,442.3554419000284,,442.35544509999454,447.37571240001125,447.8635555999936,447.863561599981,449.38044480001554,450.398456200026,w,21,0.4878431999823078,1,Correct,0,,,,,-8.736482827605117,-0.2234826639206391,0.04625336809535119,258795.0,28.49822866706509,0.02268496601590453,-0.534661553395333,265818.0,442.6963680396985,,449.71936803969845
7,42,20,F,0,Practice,,7,4,0,5 + 8 - 4 + 6 + 9,24,24,23,22,451.9161427000072,,451.9161461999756,456.9361527999863,457.8236519999919,457.82365819998085,459.3405997999944,460.35875650000526,q,24,0.8874992000055499,1,Correct,0,,,,,-0.9731914798495769,0.19483290345215654,-0.22044074751784692,268355.0,8.73743447800792,-0.16897327409950336,-0.09389536145836397,275778.0,452.2563680396985,,459.6793680396985
8,42,20,F,1,0,0.0,0,4,high,6 + 5 - 7 + 8 - 9,3,3,5,4,578.0371065000072,580.0932922000065,581.6079281999846,586.6411733999848,588.7490765000111,588.7490830000024,590.2658825999824,591.2830354999751,q,3,2.1079031000263058,1,+10,10,-32.17486178603408,-1.0307952576260515,-2.311696040448439,394512.0,-7.378851065422296,-0.25924660206897787,-9.869476740714491,398060.0,23.913446087223267,-0.445062376583238,-14.878540286095387,406702.0,581.9613680396985,578.4133680396985,590.6033680396985
9,42,20,F,1,0,1.0,1,4,low,3 + 9 - 5 + 8 - 7,8,9,8,7,592.7996821000124,594.8393929000013,596.3544864999712,601.3730888999999,601.89308910002,601.8930944000022,603.4094431999838,604.4262748999754,w,8,0.5200002000201494,1,+1,11,20.118272738673245,0.966051113783307,-12.769792536295654,409258.0,-3.879224713124369,0.9443178895188593,-9.560013705939099,412792.0,6.82034038530663,0.1718867097473522,-0.7339196881400749,419845.0,596.6933680396985,593.1593680396984,603.7463680396985
10,42,20,F,1,0,2.0,2,3,low,8 + 3 + 1 - 7 + 9,14,15,12,14,605.9430816000095,607.9923780999961,609.5073170000105,614.5257717000204,615.1170946999919,615.1170997999725,616.6335082000005,617.6508629000164,e,14,0.5913229999714531,1,+1,12,12.893733701141263,1.562274753298615,0.09889061117817644,422411.0,18.798428024693294,0.5621934142547831,-0.23554288988539707,425945.0,-16.696489400047945,1.0468559859149198,-1.9973879921729312,433069.0,609.8463680396985,606.3123680396984,616.9703680396985
11,42,20,F,1,0,3.0,3,4,low,5 + 7 - 4 + 8 + 6,22,24,23,22,619.1672352000023,621.1932358000195,622.708360699995,627.7267449999927,628.1811006999924,628.1811056999722,629.697167699982,630.7144005000009,q,24,0.4543556999997236,0,+0,12,-33.53684431667518,1.1536920254910816,1.887288526628256,435612.0,-2.1240298947882827,-0.5676353998718362,-0.12409775918511334,439146.0,21.39601658807443,0.8477472314613874,0.32663121840488074,472565.0,623.0473680396985,619.5133680396984,656.4663680396984
12,42,20,F,1,0,4.0,4,3,high,8 + 6 - 7 + 1 - 4,4,5,3,4,632.2314456999884,634.3260785000166,635.8412665000069,640.8599558999995,641.5411090999842,641.541114600026,643.057615800004,644.0748245000141,e,4,0.681153199984692,1,+10,22,-7.800439188710186,0.8659936255781835,0.13178935150530613,448745.0,6.542663443207445,-0.32886136172414204,-0.11447532842836683,452279.0,-7.688656798261707,0.3542452480011056,0.17143189925003988,459493.0,636.1803680396985,632.6463680396985,643.3943680396985
13,42,20,F,1,0,5.0,5,4,high,5 + 6 - 4 + 7 + 9,23,23,25,24,645.5914765999769,647.6169090999756,649.1320606999798,654.1502621999825,654.6130536000128,654.6130590999965,656.1295389999868,657.1466123000137,q,23,0.4627914000302553,1,+10,32,-25.118679461281815,0.6925437145230955,0.06357017741671278,462036.0,43.33014126620747,-0.24793717653731306,0.08169133815837659,465569.0,12.65450055671508,0.6335656859204004,1.0325471744647472,485685.0,649.4703680396985,645.9373680396984,669.5863680396985
14,42,20,F,1,0,6.0,6,4,high,3 + 8 - 4 + 9 + 7,23,23,24,22,658.663344200002,660.6901215999969,662.2051790999831,667.2238097999943,667.733038300008,667.7330435999902,669.2494097999879,670.2666568999994,q,23,0.5092285000137053,1,+10,42,-8.738845277691675,0.3601210710120819,9.896369630588271,475109.0,-18.492226880953087,0.5750696122952244,3.299045964380392,478642.0,16.536847687262934,0.08682166018671289,0.1629862680905152,499005.0,662.5433680396984,659.0103680396985,682.9063680396985
15,42,20,F,1,0,7.0,7,4,low,8 + 3 - 4 + 5 + 9,21,22,21,23,671.7834265999845,673.8105979000102,675.3255140000256,680.3440865000011,681.0530522000045,681.0530572999851,682.5695671000285,683.5862100999802,w,21,0.7089657000033185,1,+1,43,-18.315482962798345,-0.24653681041643383,-1.6802605438218245,488229.0,-11.852141559161973,0.5141489515512383,0.07800862360424432,491763.0,-23.878403717476782,0.8538710908586316,-0.29833402000845544,512294.0,675.6643680396985,672.1303680396984,696.1953680396985
16,42,20,F,1,0,8.0,8,4,low,8 + 4 - 5 + 7 - 6,8,8,7,6,685.102787700016,687.1256519000162,688.6409611999989,693.6596721999813,694.3410242000245,694.3410293000052,695.8584105999907,696.8759011999937,q,8,0.6813520000432618,1,+1,44,-27.88720619995084,-0.12003263444882428,0.049927037515803185,501544.0,29.715637970575273,0.2163736498665223,4.872298463951868,505078.0,1.2931712082256084,0.46164410397152267,-0.8419730024195466,525429.0,688.9793680396984,685.4453680396985,709.3303680396984
17,42,20,F,1,0,9.0,9,4,high,6 + 9 - 7 + 8 - 5,11,11,13,12,698.3926811999991,700.4194594,701.9345577000058,706.9535123999813,707.4778752999846,707.4778804000234,708.9937726000207,710.0107146999799,q,11,0.5243629000033252,1,+10,54,-24.517414210175446,1.1310114935430051,-0.3890871213659035,514838.0,11.23460373648085,-0.8494973960840237,-0.1600419171503109,518372.0,-9.027003215889547,0.2450043893649294,-0.22831900647806602,538725.0,702.2733680396984,698.7393680396984,722.6263680396985
18,42,20,F,1,0,10.0,10,4,low,5 + 7 - 4 - 6 + 9,11,13,12,11,711.5271613000077,713.5535512000206,715.0687200999819,720.0891827999731,720.7729781999951,720.7729839999811,722.2894526000018,723.306220599974,e,11,0.6837954000220634,1,+1,55,46.138222480624954,0.41926824210114244,-1.2294729714295904,527972.0,5.065717217521328,0.797235652542196,-0.11120462501202333,531508.0,22.074254223992014,1.3244843016413936,-0.06434714253670482,632341.0,715.4093680396985,711.8733680396984,816.2423680396985
19,42,20,F,1,0,11.0,11,2,low,3 + 1 + 8 - 5 - 1,6,5,6,7,724.8227991000167,726.9239906999865,728.4391912000137,733.4579025999992,734.1489861999871,734.1489914000267,735.6653798000189,736.6820799999987,w,6,0.6910835999879055,1,+1,56,-11.565818841852863,0.20265192400956789,-0.18960133768521947,541342.0,-80.40883726939848,-0.2228346344272687,-3.697199276052535,544876.0,11.395474027141518,-0.8260959979726064,-0.42885337285797664,552101.0,728.7773680396984,725.2433680396985,736.0023680396985
20,42,20,F,1,0,12.0,12,2,high,8 + 1 + 9 + 1 - 5,14,13,14,15,738.1987594999955,740.2744207999785,741.7896664,746.8091494999826,747.5169970000279,747.5170026000123,749.0333108999766,750.0504556000233,w,14,0.7078475000453182,1,+10,66,-2.3909038476430453,0.5080989943361285,-0.1603534298283087,554693.0,10.613346828106721,-0.5723611622209228,0.17833095859768466,558228.0,-2.3909649384934824,0.6407789791854892,-0.13815844911148556,565469.0,742.1293680396984,738.5943680396985,749.3703680396985
21,42,20,F,1,0,13.0,13,1,high,9 + 7 + 1 + 1 + 1,19,19,20,18,751.5672594999778,753.6057320000255,755.1208847999806,760.1401453000144,760.6689516999759,760.6689569000155,762.1857388999779,763.2029144000262,q,19,0.5288063999614678,1,+10,76,23.0057021073723,0.20099636889262218,0.8127490411020788,568024.0,2.693940998001689,-0.03787378342689118,0.16867675277429672,571559.0,-2.6635778687923786,-0.3604059637271195,2.128180185584907,578621.0,755.4603680396984,751.9253680396985,762.5223680396984
22,42,20,F,1,0,14.0,14,2,low,6 + 1 + 1 + 8 - 9,7,5,9,7,764.7195097000222,766.7450670999824,768.2601983000059,773.2792070999858,773.8209509999724,773.8209563000128,775.3373514999985,776.3541861000122,e,7,0.5417438999866135,1,+1,77,-17.80128486905666,-0.6191659315948801,-7.1005443495851495,581164.0,-10.568917998159714,-0.03808263164704151,-0.47137949383672906,584698.0,9.075385148733758,-0.06543979993522875,3.407982937144014,591773.0,768.5993680396984,765.0653680396985,775.6743680396985
23,42,20,F,1,0,15.0,15,2,low,9 + 4 + 5 + 1 - 1,18,18,19,17,777.8709647000069,779.8939451000188,781.4088767999783,786.4270353000029,787.0209770000074,787.0209821999888,788.5374662000104,789.5539873000234,q,18,0.5939417000045069,1,+1,78,-20.19185917411165,0.1686308742749385,-0.943907166856718,594312.0,20.097905309321405,0.1924405726461087,-0.06924658072721712,597845.0,-3.9947978082585003,0.6391123288813985,0.1011981001415787,604973.0,781.7463680396985,778.2133680396985,788.8743680396984
24,42,20,F,1,0,16.0,16,1,low,9 + 8 + 1 + 1 - 1,18,18,19,17,791.0707032000064,793.0937588000088,794.6089321000036,799.627167699975,800.1409666999825,800.1409725000267,801.6574931999785,802.6747523000231,q,18,0.5137990000075661,1,+1,79,14.845920070979703,0.5824387919287739,-0.39221739285766866,607512.0,-10.455157858729248,0.585296427063354,-0.20523142404802464,611046.0,21.338218978914412,0.058070361635095935,-0.24790699579583508,618093.0,794.9473680396985,791.4133680396984,801.9943680396984
25,42,20,F,1,0,17.0,17,4,high,9 + 3 - 5 + 8 + 6,21,23,19,21,804.191136199981,806.2190815000213,807.7341977999895,812.7523020000081,814.3889154000208,814.3889206000022,815.9055091000046,816.922745799995,e,21,1.6366134000127204,1,+10,89,18.148917672975657,0.6964145150008063,0.1535339290811253,620637.0,-20.466270608659084,-0.22208103000753265,0.21463152038309063,624171.0,-0.8145971773394329,0.09730113754612502,0.07864386251501188,686333.0,808.0723680396985,804.5383680396984,870.2343680396984
26,42,20,F,1,0,18.0,18,2,high,5 - 1 + 1 + 8 + 9,22,22,21,23,818.4395007999847,820.4645345999743,821.9799394999864,826.9991037999862,828.1649608999724,828.164966100012,829.6813899999834,830.698828099994,q,22,1.1658570999861697,1,+10,99,13.185063706228789,-0.6198542625106933,-0.04893070536108457,634883.0,-3.7979326943941696,0.30148944821004964,-0.030413452333038826,638417.0,1.1748761651092057,0.5200430313458098,0.13666509147604167,646117.0,822.3183680396985,818.7843680396985,830.0183680396984
27,42,20,F,1,0,19.0,19,3,low,7 + 1 + 9 + 5 - 6,16,14,16,15,832.2157406000188,834.2424800000153,835.7574728999753,840.7758142999955,841.8449683000217,841.8449737000046,843.3614945000154,844.378323699988,w,16,1.069154000026174,1,+1,100,-1.2016802763093768,0.5533200926560298,0.4400695781761139,648660.0,-33.96986389213629,-0.062065570612061194,0.23274723993353064,652194.0,10.251207089786845,0.7241947043435251,0.05712246472185445,659796.0,836.0953680396984,832.5613680396984,843.6973680396985
28,42,20,F,1,0,20.0,20,2,high,9 + 5 - 6 + 1 - 1,8,7,9,8,845.8951140000136,847.9201536999899,849.4352796999738,854.4537977,855.1409712000168,855.1409765999997,856.6573105999851,857.6747034,e,8,0.6871735000167973,1,+10,110,-20.539322919655632,-0.676647260851408,0.4530789129737798,662339.0,-5.336023144834687,0.28966822512836465,-6.435119610262789,665873.0,9.555792732759354,-0.32461326540589575,8.399109896905289,673093.0,849.7743680396985,846.2403680396985,856.9943680396984
29,42,20,F,1,0,21.0,21,4,high,7 + 6 + 8 - 4 + 5,22,23,22,21,859.1914992000093,861.217169600015,862.7323390999809,867.7507178999949,868.3810308999964,868.3810363999801,869.8976859999821,870.9150360000203,w,22,0.6303130000014789,1,+10,120,-6.0692868719857636,0.5410829738578009,3.9566218222406775,675635.0,7.9419583832020155,0.7568839356272941,-3.5452046715182988,679169.0,-2.6818987050172183,1.316823136399143,-3.086941838497917,794004.0,863.0703680396985,859.5363680396985,977.9053680396985
30,42,20,F,1,0,22.0,22,1,high,8 + 1 + 1 + 1 - 3,8,9,6,8,872.4313617000007,874.4568230999867,875.9718433999806,880.9901099000126,881.8848585999804,881.8848639000207,883.4013878999976,884.4184628999792,e,8,0.8947486999677494,1,+10,130,2.77191308028939,-0.1229653439687004,0.693865708612285,688875.0,11.253196866822393,-0.33156094155069127,-1.3773728254807347,692408.0,8.97771094277791,0.47540199068067324,0.06208732360454672,699837.0,876.3093680396985,872.7763680396985,883.7383680396985
31,42,20,F,1,0,23.0,23,3,low,6 - 1 + 7 - 8 + 9,13,12,13,11,885.9352453000029,887.9604550999939,889.4753778000013,894.4939831999945,895.0528423999785,895.0528475000174,896.5691328999819,897.5857456999947,w,13,0.5588591999839991,1,+1,131,17.27352623429195,0.6754086201713303,0.011747336092384764,702379.0,-20.162381944657618,0.20941216101247573,0.030309824899787063,705912.0,8.936328128746306,0.038321962786151964,0.048460216172962145,713004.0,889.8133680396985,886.2803680396985,896.9053680396985
32,42,20,F,1,0,24.0,24,2,low,7 + 6 + 1 + 8 + 1,23,23,21,22,899.102316799981,901.130924600002,902.6465742000146,907.6651006999892,908.332848799997,908.3328540999792,909.8491988999886,910.866262800002,q,23,0.6677481000078842,1,+1,132,10.679980432525756,0.3298032938311004,0.08098647761136135,715549.0,-20.50368347362566,0.12534682718036327,-0.37893674134097477,719083.0,1.6178563956612386,0.30262792127975846,4.333327207614898,726284.0,902.9843680396984,899.4503680396984,910.1853680396985
33,42,20,F,1,0,25.0,25,1,low,4 + 1 + 1 + 7 - 1,12,14,12,13,912.3829253999866,914.408127599978,915.9232624000288,920.943110399996,921.4929127999932,921.4929179999745,923.0093773999834,924.0260786999715,w,12,0.5498023999971338,1,+1,133,17.69256535651775,0.22097029187556227,-1.0240837622359606,728826.0,-10.723461448517302,0.2768838144051564,-1.5690315696399342,732361.0,20.41988799304069,0.6810270154916904,0.62242907560017,739444.0,916.2623680396985,912.7273680396985,923.3453680396984
34,42,20,F,1,0,26.0,26,2,high,3 + 8 + 1 - 5 + 1,8,6,8,9,925.5425942000002,927.5693459999748,929.084531600005,934.1038693999872,934.8848709000158,934.8848802000284,936.4013757000212,937.418410299986,w,8,0.7810015000286512,1,+10,143,7.655591964140239,0.3852484282715256,-0.15649237659574045,741987.0,28.772247970133602,-0.6438673759137394,0.43933774729376607,745522.0,-0.04728873859719407,0.5946789067449503,-0.28173539078649856,752836.0,929.4233680396985,925.8883680396984,936.7373680396985
35,42,20,F,1,0,27.0,27,2,high,4 + 9 - 7 + 1 - 1,6,5,8,6,938.9597189999768,940.983774900029,942.499136700004,947.5177365000128,948.51675900002,948.516764800006,950.0339622999892,951.0511357000214,e,6,0.9990225000074132,1,+10,153,-9.760368416075217,0.35031609638203554,0.32833079771930773,755402.0,5.927046452729802,-0.3889102946276468,0.5640145154443572,758936.0,-3.657317313263377,0.5734881012961028,-1.5025302197328223,766469.0,942.8373680396985,939.3033680396985,950.3703680396985
36,42,20,F,1,0,28.0,28,1,low,9 + 1 + 1 + 7 - 1,17,16,19,17,952.56786499999,954.5929066999817,956.1081214000004,961.1261764999944,961.6608188999816,961.6608241000212,963.1775606999872,964.1943739000126,e,17,0.5346423999872059,1,+1,154,42.65224609534469,0.03573291007658863,-0.7657713504130088,769011.0,5.75225775698253,0.18390158374758547,0.20814460427109083,772544.0,10.861087947364492,0.08541636055624302,-1.5155308366811973,779612.0,956.4453680396985,952.9123680396984,963.5133680396984
37,42,20,F,1,0,29.0,29,4,high,2 + 9 - 6 + 8 - 4,9,9,11,7,965.711358200002,967.73979349999,969.2549756999942,974.2734117999788,976.0527335000224,976.052739000006,977.5692685000248,978.5865347000072,q,9,1.7793217000435106,1,+10,164,-31.48092160742328,0.18851169569139792,1.8397521035658775,782158.0,31.134681897049866,0.3887714603014141,-5.115361800781411,785691.0,-7.492187791898036,-0.35927862856077475,-0.12566479355963311,820868.0,969.5923680396985,966.0593680396985,1004.7693680396985
38,42,20,F,1,0,30.0,30,1,high,7 + 1 + 4 + 1 - 1,12,11,12,13,980.1025374999736,982.1261540999984,983.6411698000156,988.6594698000116,989.556816599972,989.5568226000178,991.0732190000126,992.0901351000066,w,12,0.8973467999603599,1,+10,174,-3.074106711063994,-0.1440399522538911,0.6750968554904277,796544.0,-11.564459234228059,0.4522659285518045,-0.5066000834305169,800077.0,29.749389159403982,1.276837472429269,-0.1823853047881956,807508.0,983.9783680396985,980.4453680396985,991.4093680396985
39,42,20,F,1,0,31.0,31,4,low,3 + 8 - 5 + 9 - 7,8,7,8,6,993.6068036999786,995.6301207999932,997.1454232999822,1002.1639978999738,1002.9167269999743,1002.9167324000156,1004.4332567999954,1005.4499499999802,w,8,0.7527291000005789,1,+1,175,15.6983738542177,0.8192379897288493,0.4235766460018753,810048.0,18.88776118174246,0.5045898051096174,0.9635192189841635,813582.0,4.604335943293252,0.9632412441268827,-0.041926045603216444,860348.0,997.4833680396985,993.9493680396985,1044.2493680396983
40,42,20,F,1,0,32.0,32,1,low,6 + 9 + 1 + 1 - 1,16,15,14,16,1006.9665990999785,1008.993557800015,1010.5087875999744,1015.5270897999872,1016.0846973999868,1016.084702800028,1017.6009578999948,1018.6175124000292,e,16,0.5576075999997556,1,+1,176,5.080496413376031,0.3830276646555215,0.3255291937002971,823411.0,8.594125067542077,-0.31006216627281624,-0.29834025049284385,826945.0,10.926016422657398,-0.3445513483390128,0.6615763566683515,834035.0,1010.8463680396985,1007.3123680396984,1017.9363680396984
41,42,20,F,1,0,33.0,33,2,high,4 + 9 - 7 + 1 - 1,6,8,6,5,1020.1342907000216,1022.1597973000024,1023.67470839998,1028.6931607999722,1029.1808449000237,1029.180850400007,1030.697391900001,1031.714989,w,6,0.4876841000514105,1,+10,186,43.15888628490544,0.32412930108802707,-0.45348305215405826,836578.0,-6.221038944663828,-0.35996843535070155,-0.3220724053561588,840111.0,-11.750453566100397,-0.04746801111355925,0.4326753863540982,847133.0,1024.0123680396985,1020.4793680396984,1031.0343680396986
42,42,20,F,1,0,34.0,34,4,low,5 + 7 - 4 - 6 + 9,11,13,11,12,1033.231680799974,1035.25588110002,1036.7711249000276,1041.7896981000083,1042.396723199985,1042.396728600026,1043.9130359999835,1044.930312099983,w,11,0.6070250999764539,1,+1,187,-7.116059390443361,0.3140913500623488,-0.42941618853883323,849674.0,5.294010156938231,-0.025246510601089067,0.7891758110640472,853207.0,-9.43833360511695,-0.05674091038209106,0.06552674983019102,900682.0,1037.1083680396985,1033.5753680396983,1084.5833680396986
43,42,20,F,1,0,35.0,35,2,high,7 + 1 + 9 - 1 - 8,8,6,7,8,1046.4470824999737,1048.4735681000166,1049.9895055000088,1055.007950900006,1055.596711500024,1055.5967166000046,1057.1131243000273,1058.1301399000222,e,8,0.5887606000178494,1,+10,197,8.499151048543647,0.05052313838081224,-0.09168460766171505,862891.0,9.412367003643459,0.5018914694418068,0.5243618185406178,866426.0,-14.234079596143198,-0.044092284018763195,-0.12481532022467956,873548.0,1050.3273680396985,1046.7923680396984,1057.4493680396986
44,42,20,F,1,0,36.0,36,2,low,3 + 9 - 1 - 5 + 1,7,7,5,6,1059.6467964000185,1061.6750775999972,1063.1903394000256,1068.2085011000163,1069.5246939000208,1069.524699200003,1071.0406137999962,1072.057418500015,q,7,1.316192800004501,1,+1,198,-34.30082601031563,0.05293163878241858,0.9313582215161658,876093.0,1.034658155471897,0.462939500204647,-1.174766326395666,879626.0,20.418084613413782,0.7566170865356199,-0.19313965925037557,887475.0,1063.5273680396986,1059.9943680396984,1071.3763680396985
45,42,20,F,1,0,37.0,37,4,high,4 + 7 + 8 - 3 + 9,25,25,24,26,1073.5741400999832,1075.6008536000154,1077.1161208000267,1082.1343364000204,1082.7166654000175,1082.716670599999,1084.2335221000249,1085.264205900021,q,25,0.5823289999971166,1,+10,208,13.834984478162285,-0.5715576559215596,-1.0696298892393212,890018.0,-3.407066307619738,0.07961129671399503,-0.30523275903718083,893553.0,11.575968144452498,1.6943559834555817,0.18876246779449302,936444.0,1077.4543680396985,1073.9193680396984,1120.3453680396983
46,42,20,F,1,1,38.0,0,1,low,6 + 1 + 8 + 1 - 1,15,15,14,13,1095.944082200003,1097.9696872999775,1099.484954899992,1104.504388500005,1105.0048206999782,1105.00482620002,1106.5216989999751,1107.5388686999795,q,15,0.5004321999731474,1,+1,209,-1.8560064239384273,5.0126683558113205,0.6944968981065078,912387.0,21.281750112849483,-0.4158028029626335,0.5438426599918915,915922.0,-19.026014293109025,-0.34007862844834325,-0.20494492153732802,922956.0,1099.8233680396984,1096.2883680396985,1106.8573680396985
47,42,20,F,1,1,39.0,1,4,low,3 + 9 - 5 + 6 + 8,21,23,21,22,1109.0566352999886,1111.0840515000164,1112.599158200028,1117.6177417999716,1118.4927319000126,1118.4927372999955,1120.0096291999798,1121.0264620999806,w,21,0.8749901000410318,1,+1,210,9.226996740407241,0.2877888351956539,-1.8479367156696016,925501.0,-8.56791865399658,-0.2591023513128432,-0.10785244167232921,929035.0,-22.565251785908725,0.9186918087761855,-0.3216016264742003,1055507.0,1112.9363680396984,1109.4023680396986,1239.4083680396984
48,42,20,F,1,1,40.0,2,3,low,6 + 1 + 8 + 7 - 9,13,13,14,15,1122.5432701000243,1124.5694450999729,1126.0847873999735,1131.1032047999906,1131.6846367000253,1131.6846421000082,1133.2011621000129,1134.2181173000135,q,13,0.5814319000346586,1,+1,211,3.326789059914811,-0.029134845051512315,-0.13189061997680485,938987.0,12.79924421612629,-0.3680377798165049,-0.04190477979075258,942521.0,-12.890442918627732,0.9191999126766834,-0.03250944385261212,949636.0,1126.4223680396985,1122.8883680396984,1133.5373680396983
49,42,20,F,1,1,41.0,3,1,low,2 + 1 + 9 + 1 - 1,12,11,13,12,1135.734766700014,1137.7599231000058,1139.275153100025,1144.2938790000044,1144.9966984000057,1144.9967036999878,1146.5131995999836,1147.5299919000245,e,12,0.7028194000013173,1,+1,212,3.137258980241924,-0.7964534479283829,0.5609625222578094,952177.0,13.347079181006547,-0.5148036934600944,-0.4564747331937884,955711.0,-34.80268944818957,-0.316766962462915,-0.143289944062734,962947.0,1139.6123680396986,1136.0783680396985,1146.8483680396985
50,42,20,F,1,1,42.0,4,1,high,6 + 1 + 1 + 9 - 1,16,14,16,15,1149.0464401000063,1151.0718947999994,1152.587710199994,1157.6062749000266,1158.420695499983,1158.420701100025,1159.9371185000057,1160.9545022000093,w,16,0.8144205999560654,1,+10,222,1.337516153744641,0.38005049941275626,-0.05953694352809036,965489.0,5.277765708313973,0.24325671913557212,0.9131986577266891,969024.0,7.870426116736748,1.1070340589265064,0.034163430705421494,976372.0,1152.9253680396985,1149.3903680396984,1160.2733680396984
51,42,20,F,1,1,43.0,5,1,low,2 + 9 + 1 + 1 + 1,14,14,13,12,1162.4711475999793,1164.4974991999916,1166.0127157000245,1171.0307665999862,1171.7086330999737,1171.7086386000155,1173.224860300019,1174.241634099977,q,14,0.6778664999874309,1,+1,223,-31.872600470157842,-0.9651533323268828,-0.057395055524099625,978915.0,3.516576635496011,-0.7256072580615909,0.5158951241371352,982448.0,-23.42443529616102,-0.037919435631041054,14.24821755453329,989659.0,1166.3493680396984,1162.8163680396983,1173.5603680396985
52,42,20,F,1,1,44.0,6,2,low,8 + 1 + 4 - 7 + 1,7,7,6,5,1175.7582619999885,1177.7821259999764,1179.2973251999938,1184.3168536999729,1184.7886229000287,1184.78862810001,1186.3049860000028,1187.3219043000136,q,7,0.47176920005586,1,+1,224,-15.273406145242447,-0.5199980109485001,0.01801945300710628,992199.0,-9.110536361657648,-0.35302808008367004,-0.539258648179926,995734.0,13.654993356080125,-0.26834771771542254,-0.05859514892170958,1002739.0,1179.6353680396985,1176.1003680396984,1186.6403680396984
53,42,20,F,1,1,45.0,7,3,high,4 + 1 + 8 + 9 - 5,17,18,19,17,1188.8388371000185,1190.8646108999965,1192.379747400002,1197.397919400013,1198.0447063000174,1198.0447115999996,1199.561087200011,1200.578078599996,e,17,0.646786900004372,1,+10,234,20.082760510642807,0.371537795344139,-0.7884692743584747,1005282.0,-16.870094479054522,1.1570906418103952,-0.16190862059211053,1008815.0,15.911653179894726,0.1878568030071377,0.04947097195058903,1015995.0,1192.7163680396984,1189.1833680396985,1199.8963680396985
54,42,20,F,1,1,46.0,8,2,high,6 + 1 + 7 + 5 - 1,18,16,18,17,1202.0949511000072,1204.1204194999882,1205.6354324999847,1210.6537309000269,1211.1485537000117,1211.1485589999938,1212.6658128999989,1213.6830702999723,w,18,0.4948227999848313,1,+10,244,9.820288558848695,-0.5814826003182989,0.8616822121663357,1018538.0,-20.4832625715205,-0.13649923771714034,2.4813359802269694,1022071.0,-9.326943743812876,-0.40976630119494306,0.16077235537064416,1029100.0,1205.9723680396985,1202.4393680396984,1213.0013680396983
55,42,20,F,1,1,47.0,9,4,high,8 + 4 + 7 - 5 - 6,8,9,6,8,1215.1995684999856,1217.2263936999952,1218.742027900007,1223.7603828000138,1224.2285960000008,1224.228601299983,1225.7455545000266,1226.762631700025,w,6,0.4682131999870762,0,+0,244,-6.980018482333602,1.0846992806035283,3.7017300303216967,1031644.0,-4.63097181174845,0.09112727380611263,-1.0095057218792869,1035178.0,12.473819023813512,0.09179175313501364,-0.28517786982896043,1174987.0,1219.0793680396987,1215.5453680396986,1358.8883680396984
56,42,20,F,1,1,48.0,10,4,low,7 + 8 - 4 + 6 + 5,22,23,22,21,1228.2799864999834,1230.3055537000182,1231.820627100009,1236.838885699981,1237.5565188999751,1237.5565240000142,1239.072922900028,1240.0904667000286,w,22,0.7176331999944523,1,+1,245,3.3019178727889216,-0.3825848466272772,2.6521603724348495,1044723.0,-20.026460089205123,-0.09865096815181884,-1.3078000758307882,1048256.0,21.922739861569678,0.4955221089068522,-0.3886742775225551,1227995.0,1232.1573680396987,1228.6243680396983,1411.8963680396982
57,42,20,F,1,1,49.0,11,3,low,4 + 8 - 3 + 5 - 1,13,13,14,12,1241.6073966000113,1243.634247799986,1245.1493311999948,1250.1673166999826,1251.5245087000076,1251.524513899989,1253.0408752000076,1254.0577519999931,w,14,1.357192000024952,0,+0,245,8.609256567908654,0.7458740235300221,-0.7003271859388809,1058051.0,8.466234511083108,0.6022150098295502,-0.6764534645909639,1061585.0,7.374634232017396,0.10946013538564126,0.33846212874538173,1122467.0,1245.4863680396984,1241.9523680396983,1306.3683680396985
58,42,20,F,1,1,50.0,12,2,low,3 + 9 + 1 - 5 + 1,9,9,8,7,1255.5745089999982,1257.6007014000206,1259.115876100026,1264.1337967999862,1264.7406031999851,1264.7406085000257,1266.2570751999738,1267.273791100015,q,9,0.6068063999991864,1,+1,246,-0.6727311209685567,0.6861002824548845,5.535407618271712,1072018.0,-24.644897095872295,-0.3685542025560564,-2.2435984351168248,1075551.0,-37.453622706417434,-0.03309927725182238,0.04918949220029667,1082691.0,1259.4523680396983,1255.9193680396984,1266.5923680396986
59,42,20,F,1,1,51.0,13,1,high,8 + 1 + 4 + 1 + 1,15,16,14,15,1268.7904314000043,1270.8173181000166,1272.3325163000263,1277.3504345000256,1277.9885209000204,1277.9885319999885,1279.5049652999733,1280.5225971000036,e,15,0.6380863999947906,1,+10,256,7.476424677551439,0.0196191254372855,-0.1589487257244464,1085234.0,-4.202309968749968,-0.6980163476775458,-0.17331740097775628,1088767.0,-13.78830754733243,-0.7976378041758609,1.1711788506951075,1095939.0,1272.6683680396986,1269.1353680396983,1279.8403680396987
60,42,20,F,1,1,52.0,14,1,high,3 + 1 + 9 + 1 + 1,15,17,14,15,1282.0395507999929,1284.0639306000085,1285.5788618000224,1290.5971696000197,1291.2685824999935,1291.2685878999764,1292.7860792999854,1293.8035783999949,e,15,0.6714128999738023,1,+10,266,15.257572192433214,0.3712079995138122,0.6276876201746289,1098481.0,4.567758759080405,0.017855639615700802,0.4049568880647483,1102014.0,-0.9006894469855125,0.3931813336684895,-0.3499669005128254,1109220.0,1285.9153680396985,1282.3823680396986,1293.1213680396986
61,42,20,F,1,1,53.0,15,3,low,5 + 6 + 7 - 1 - 9,8,7,8,9,1295.3198674999876,1297.3445753999986,1298.859660200018,1303.8781424000044,1304.5165871999925,1304.5165922999731,1306.033367600001,1307.050190799986,w,8,0.6384447999880649,1,+1,267,10.173448445119801,1.2036850690428456,0.1643229520897398,1111761.0,18.03035684571622,0.018248091448866965,-0.059278209798488746,1115295.0,7.514323541397905,-0.32969428895372754,-0.036598841871126275,1148778.0,1299.1963680396984,1295.6623680396983,1332.6793680396986
62,42,20,F,1,1,54.0,16,1,low,7 - 1 + 9 + 1 - 1,15,14,15,13,1308.5669301999733,1310.5930003999963,1312.1083017999772,1317.126947899989,1317.700572600006,1317.700577999989,1319.2169840999995,1320.2335267000017,w,15,0.5736247000168078,1,+1,268,-30.130175683911304,0.33217504580064183,0.6656951362638996,1125010.0,-4.226341426304883,-0.2822491434280372,-0.12122230194471273,1128544.0,-9.931286018307265,0.5833779334644573,2.793940832465828,1135651.0,1312.4453680396987,1308.9113680396986,1319.5523680396986
63,42,20,F,1,1,55.0,17,3,low,8 - 1 + 6 - 7 + 5,11,13,11,12,1321.7501777000143,1323.777810300002,1325.292614099977,1330.3126491000294,1330.8284866000176,1330.828491799999,1332.3442388999974,1333.360762599972,w,11,0.5158374999882653,1,+1,269,-2.206592776577067,0.3085850226297562,0.1557811453208755,1138195.0,23.74382004336738,0.1529773188160326,-0.8455752095616722,1141729.0,-8.418137446139749,0.05889845175384112,-0.19737362195974706,1161947.0,1325.6303680396986,1322.0963680396985,1345.8483680396985
64,42,20,F,1,1,56.0,18,3,high,7 - 6 + 8 + 1 + 7,17,16,17,15,1334.877230299986,1336.9019410000185,1338.417074900004,1343.4348320999998,1343.9965389000135,1343.9965441999957,1345.5129877,1346.530060200021,w,17,0.5617068000137806,1,+10,279,37.38350448564783,0.11521751995504248,0.2264185933925149,1151318.0,-9.4325620696292,-0.11281704921327007,-0.23575323171394347,1154852.0,15.921223386707782,-1.6907032801788802,-0.1360196194315293,1188234.0,1338.7533680396987,1335.2193680396986,1372.1353680396983
65,42,20,F,1,1,57.0,19,4,high,6 + 9 + 7 - 3 - 5,14,13,14,12,1348.046985300025,1350.072281599976,1351.5880062999786,1356.6062820000225,1357.036466300022,1357.0364718000055,1358.5528259000275,1359.5698095000116,w,14,0.4301842999993823,1,+10,289,-0.7376253941507649,0.5707801786735685,0.011153440997761166,1164489.0,2.518847361204256,-0.6130091313744335,0.09197692385565626,1168023.0,-5.600033613106213,-1.0243791245608507,1.1450330155058315,1307514.0,1351.9243680396985,1348.3903680396984,1491.4153680396985
66,42,20,F,1,1,58.0,20,3,low,3 - 7 + 5 + 1 + 9,11,13,12,11,1361.0862692000228,1363.113919400028,1364.6291436000029,1369.6474766000174,1370.2844825999928,1370.2844877999742,1371.8007767000236,1372.8176842000105,e,11,0.6370059999753721,1,+1,290,5.017524259894106,0.11462112776806554,-1.183210838428315,1177530.0,9.885954354156956,0.2781960743827967,-0.8523835240264406,1181064.0,22.703195364742665,-0.05135624696458807,0.04267236522015594,1201458.0,1364.9653680396987,1361.4313680396986,1385.3593680396984
67,42,20,F,1,1,59.0,21,3,low,6 - 1 + 7 - 8 + 9,13,12,11,13,1374.334895899985,1376.3610726000045,1377.876526899985,1382.8946289999876,1383.508408499998,1383.508413599979,1385.0248618000187,1386.0416040000273,e,13,0.6137795000104234,1,+1,291,8.068165427369351,-0.036942603091509874,-0.29956376466328916,1190778.0,6.102039353951209,-0.13160017399043733,-0.9190423026155159,1194312.0,43.063525979093384,0.15051717583344848,-0.117889387007585,1294154.0,1378.2133680396983,1374.6793680396986,1478.0553680396984
68,42,20,F,1,1,60.0,22,2,low,3 + 8 - 5 + 1 + 1,8,8,9,6,1387.558191100019,1389.585612600029,1391.10047830001,1396.1188718000194,1396.8444148999988,1396.844420199981,1398.3612404000014,1399.377995799994,q,8,0.7255430999794044,1,+1,292,-44.462461175365654,0.2461125261585062,0.4079189917140651,1204002.0,10.349848060391341,0.06856555384384366,0.4652475489767447,1207536.0,6.8729218258753075,0.10364967878779652,-0.6020401339301387,1214795.0,1391.4373680396984,1387.9033680396983,1398.6963680396984
69,42,20,F,1,1,61.0,23,4,high,7 + 6 - 9 + 8 - 3,9,8,9,7,1400.894539300003,1402.921445199987,1404.4366334999795,1409.456481900008,1410.0444808999891,1410.044486699975,1411.560887300002,1412.5780158999842,w,9,0.5879989999812096,1,+10,302,-16.570065024059474,0.5799773082566455,1.3058658647498005,1217338.0,13.292864426511438,0.10968106187975568,0.3732999865890658,1220873.0,-3.563048483522088,-0.2626765755158722,-0.16464206538551562,1413506.0,1404.7743680396984,1401.2393680396985,1597.4073680396987
70,42,20,F,1,1,62.0,24,1,high,3 + 1 + 8 + 1 + 1,14,12,14,13,1414.0947433999972,1416.1179881999851,1417.6331790999975,1422.6506564000156,1423.5083672999754,1423.508372500015,1425.0247072000057,1426.0421184999868,w,14,0.857710899959784,1,+10,312,-13.187876398287166,-4.990332165771089,-12.728164619624382,1230535.0,6.686907273773112,-0.11127825879339381,-0.27708213080847344,1234068.0,-9.08023413360204,0.24982353498183585,0.20775247455585832,1241458.0,1417.9693680396986,1414.4363680396987,1425.3593680396984
71,42,20,F,1,1,63.0,25,1,low,5 + 6 + 1 + 1 + 1,14,16,13,14,1427.5585463999887,1429.5839257999903,1431.0991033000173,1436.1165899999903,1436.652369700023,1436.6523753000074,1438.168851799972,1439.1861634000088,e,14,0.5357797000324354,1,+1,313,3.5415939133280556,0.14542508168135493,-0.11944964733488139,1244001.0,20.422112948594524,0.17132275103316275,-0.16856473131413052,1247533.0,-2.838432959640734,0.34287213342699063,-0.16846231449634086,1254602.0,1431.4343680396983,1427.9023680396986,1438.5033680396987
72,42,20,F,1,1,64.0,26,2,high,9 + 6 + 1 + 7 + 1,24,23,24,25,1440.7028298000223,1442.7318850000156,1444.2470308999764,1449.2659186000235,1449.6924092000118,1449.692414499994,1451.208753500017,1452.2263524999726,w,24,0.4264905999880284,1,+10,323,11.285728374762925,0.23228819894440678,0.015674552041354817,1257148.0,-2.682941679728099,0.3063286037550812,0.26511591041660143,1260682.0,17.11104751146526,-1.329874859521568,0.35671618135576244,1267642.0,1444.5833680396986,1441.0493680396985,1451.5433680396986
73,42,20,F,1,1,65.0,27,1,high,3 + 1 + 8 - 1 + 1,12,10,12,13,1453.7426452999937,1455.768058000016,1457.283192700008,1462.3196325000026,1462.8923593999934,1462.892364499974,1464.4086831000168,1465.4254433999886,w,12,0.5727268999908119,1,+10,333,2.7797325274651072,0.17049052199029324,0.2530180004593565,1270184.0,-4.269022161000181,-0.31433531729702,-0.014321027361730465,1273736.0,42.633839836094694,-0.35964246370238895,-0.08936226524566049,1280842.0,1457.6373680396987,1454.0853680396986,1464.7433680396985
74,42,20,F,1,1,66.0,28,3,low,9 - 1 + 5 - 6 + 8,15,17,14,15,1466.9428320999723,1468.967344100005,1470.4826940000055,1475.5015802999842,1476.2043601999758,1476.2043659000192,1477.7211409999873,1478.7376968999745,e,15,0.7027798999915831,1,+1,334,-2.126721629208913,0.2992678042040473,0.06373772211988582,1283383.0,1.5149957301706145,0.6194191044818438,-0.9861565045354803,1286918.0,-3.703908601791305,-0.4285973273432182,-0.884010748095319,1347530.0,1470.8193680396985,1467.2843680396986,1531.4313680396986
75,42,20,F,1,1,67.0,29,4,high,3 + 8 - 4 + 9 + 6,22,22,23,21,1480.2543759000257,1482.2784677000018,1483.793641700002,1488.8118900000118,1489.5644589000149,1489.564464199997,1491.0808544000029,1492.097995100019,q,22,0.752568900003098,1,+10,344,23.615161867744472,-0.25379959292596155,4.24701528003853,1296695.0,-26.541386854653947,0.42863650860055413,0.495846580524697,1300228.0,12.28047729221416,-0.2543664525585365,0.04550514029999375,1459954.0,1484.1293680396984,1480.5963680396985,1643.8553680396985
76,42,20,F,1,1,68.0,30,1,low,9 + 8 + 1 + 1 - 1,18,17,18,20,1493.6149451999809,1495.6715372999895,1497.1861142999842,1502.2040943999891,1502.7803172999993,1502.780322499981,1504.2967109999736,1505.3134121000185,w,18,0.5762229000101797,1,+1,345,-3.03943921397369,0.18637934261087485,7.781079069463497,1310087.0,11.138443508103167,-0.3478232140294315,-1.7013794674774454,1313620.0,8.124210749308567,1.9050218735042015,5.036963805512657,1320730.0,1497.5213680396982,1493.9883680396983,1504.6313680396984
77,42,20,F,1,1,69.0,31,2,high,4 + 8 + 1 + 1 - 6,8,7,9,8,1506.8300061000043,1508.857938400004,1510.3728196999873,1515.391802099999,1515.9323448999785,1515.9323499000166,1517.4488743999973,1518.4661225000164,e,8,0.5405427999794483,1,+10,355,5.712875627144834,-0.15853949069702056,4.346352464370884,1323274.0,-0.4071268133809056,0.28855548348450677,-1.737848202253276,1326807.0,7.293976097687246,-0.39152325487142514,-0.35194042498030775,1333882.0,1510.7083680396986,1507.1753680396982,1517.7833680396984
78,42,20,F,1,1,70.0,32,3,low,7 - 1 + 8 - 6 + 4,12,11,12,13,1519.982934199972,1522.0108013999998,1523.525926799979,1528.544689500006,1529.5802795999916,1529.5802848999738,1531.0967284999788,1532.1142017000238,w,12,1.0355900999857113,1,+1,356,12.076301287948468,0.358004475539619,0.39281598649588556,1336427.0,-12.441473272237218,0.2278719071566231,2.0748363971599613,1339961.0,-2.324282865482086,0.6401461034983043,-0.14938629880625243,1373938.0,1523.8623680396986,1520.3283680396985,1557.8393680396985
79,42,20,F,1,1,71.0,33,1,high,2 + 1 + 9 + 1 + 1,14,14,13,12,1533.6309056999744,1535.6545655999798,1537.169658800005,1542.1875288999872,1542.780344000028,1542.7803492000094,1544.297072299989,1545.3143264999962,q,14,0.5928151000407524,1,+10,366,-0.7512738003726795,-1.0566878543562122,-0.09845689018317128,1350071.0,5.117328120843316,-0.42258648499284623,-2.0391925412435636,1353604.0,-5.167886505192648,-0.00988749089577956,-0.4560775850441461,1360731.0,1537.5053680396986,1533.9723680396983,1544.6323680396986
80,42,20,F,1,1,72.0,34,3,low,4 + 7 - 3 + 5 - 1,12,13,12,11,1546.830952699995,1548.8576720000128,1550.3727682000026,1555.391380199988,1555.9883061000146,1555.9883110999945,1557.5050529,1558.5218715000085,w,12,0.5969259000266902,1,+1,367,2.0306910284448545,-0.08876310239751417,-0.35682215516442595,1363274.0,11.24762742147298,-0.06346015802565441,-0.2703324208774718,1366807.0,11.656382181685007,-0.0827361799013735,-0.015009959871657097,1433441.0,1550.7083680396986,1547.1753680396982,1617.3423680396986
81,42,20,F,1,1,73.0,35,2,low,7 + 8 + 1 + 9 + 1,26,24,25,26,1560.0386008999776,1562.0665118999896,1563.5813778999727,1568.600058000011,1569.1884194000158,1569.1884248999995,1570.704664800025,1571.7209634999745,e,26,0.588361400004942,1,+1,368,10.333428483258203,0.4367066356947542,0.25736321178392263,1376482.0,-49.67919689103181,0.03908987581764878,-0.08996164016171804,1380016.0,12.248090919091663,0.487936682307911,0.18858341078133822,1387138.0,1563.9173680396984,1560.3833680396983,1571.0393680396983
82,42,20,F,1,1,74.0,36,1,low,2 + 1 + 1 + 9 - 1,12,11,13,12,1573.2377799000242,1575.2648318000138,1576.7799732999993,1581.7980699000182,1582.372362199996,1582.372367599979,1583.889140299987,1584.9056212999858,e,12,0.5742922999779694,1,+1,369,-26.56558984573013,-1.0324619760497447,-0.12273297042207254,1389682.0,1.6952460341691094,-3.8274858691315035,-4.301260638065611,1393214.0,-19.16521245487923,0.22650653670352483,-0.07750604453460985,1400322.0,1577.1153680396983,1573.5833680396986,1584.2233680396985
83,42,20,F,1,1,75.0,37,4,low,4 + 7 - 8 + 9 - 3,9,9,11,8,1586.4223128000158,1588.4506694999873,1589.9658109999727,1594.9843244000222,1595.5563916999963,1595.5563974999825,1597.0730815000134,1598.0897492999793,q,9,0.572067299974151,1,+1,370,13.696343337898856,0.39450977537586907,0.08517905342291288,1402866.0,7.970090288911926,0.3302421918670717,-0.04853559527255502,1406400.0,6.259950473635799,-0.35115200754811005,-0.32234602598343987,1539377.0,1590.3013680396984,1586.7673680396983,1723.2783680396983
84,42,20,F,1,2,76.0,0,3,low,5 + 7 + 1 - 4 + 6,15,15,13,17,1606.191866100009,1608.217771800002,1609.7327358999755,1614.7526306000073,1615.4922448999714,1615.4922499000097,1617.0084250000073,1618.0257780000102,q,15,0.7396142999641597,1,+1,371,-21.65662207042012,-0.6826485897402934,-0.2504924657400771,1422634.0,0.5183279881607348,-0.06539861034976235,-0.100203714614024,1426169.0,1.9643414103191112,-0.3516989187326369,0.051394961252788196,1446546.0,1610.0703680396987,1606.5353680396984,1630.4473680396986
85,42,20,F,1,2,77.0,1,3,high,8 + 4 + 1 - 7 + 9,15,15,16,13,1619.5423894000123,1621.5675333000254,1623.0827968000085,1628.1011606000247,1628.5962261999955,1628.596231899981,1630.112799399998,1631.1301932000206,q,15,0.4950655999709852,1,+10,381,9.277124011000357,0.23147328366773134,-0.04492535795276664,1435983.0,0.027837183026943713,-0.0074706685323473465,-0.05439440161305953,1439517.0,-12.327252064383316,-1.3536361317019172,0.42904858454399974,1513113.0,1623.4183680396986,1619.8843680396985,1697.0143680396986
86,42,20,F,1,2,78.0,2,4,high,6 + 7 + 9 - 3 + 5,24,24,22,23,1632.6476933999802,1634.6746791999904,1636.1895190000068,1641.208000499988,1642.0043108999962,1642.004316299979,1643.5207811000291,1644.5384624999715,q,24,0.796310400008224,1,+10,391,7.934719093803627,0.3110861829857674,0.6139245484493285,1449090.0,14.357830130242183,0.6077971742456292,-0.19467258674697252,1452624.0,16.608835827291617,0.7164712057922844,0.07504229002163454,1566081.0,1636.5253680396986,1632.9913680396985,1749.9823680396985
87,42,20,F,1,2,79.0,3,1,high,4 + 9 + 1 - 1 - 1,12,12,11,13,1646.054818500008,1648.081875999982,1649.5964905999715,1654.614439599973,1655.2841829999816,1655.2841886000242,1656.8006382000167,1657.8177711999742,q,12,0.6697434000088833,1,+10,401,-5.219981927239743,-0.8672043413792725,-0.19020318573027062,1462498.0,-16.915259240013874,-0.0073053849258570835,-0.11368461118002116,1466030.0,-12.08215117080722,0.08682761792033888,-0.01880256174480177,1473233.0,1649.9313680396986,1646.3993680396984,1657.1343680396985
88,42,20,F,1,2,80.0,4,2,low,9 + 1 + 6 + 7 + 1,24,24,23,25,1659.3343975999742,1661.371214099985,1662.8864754000097,1667.9043811999727,1668.7081890000263,1668.7081943000085,1670.2245640999754,1671.2413116000243,q,24,0.8038078000536188,1,+1,402,-10.341989129891585,-0.024982771182762153,-0.34876678069398404,1475787.0,4.032351504609528,0.15353171131246368,1.0469143211668195,1479320.0,13.204691252765151,0.2917261695716018,-0.26167457095445634,1486657.0,1663.2213680396985,1659.6883680396986,1670.5583680396985
89,42,20,F,1,2,81.0,5,1,low,7 - 1 + 8 + 1 - 1,14,13,14,12,1672.758225700003,1674.7846339999817,1676.2998481999966,1681.3198463000008,1681.8122206000262,1681.8122262000106,1683.328522900003,1684.3453012999962,w,14,0.4923743000254035,1,+1,403,3.1673387005474503,0.3446500034086948,-0.06708963184448358,1489200.0,21.446746820455722,0.0746933312140512,-0.15844444718011097,1492736.0,7.294068943051784,-0.2836313359613678,-0.18242705789338043,1499761.0,1676.6373680396987,1673.1013680396986,1683.6623680396983
90,42,20,F,1,2,82.0,6,3,low,4 + 7 + 1 + 9 - 5,16,16,18,17,1685.8619424999924,1687.8890091999783,1689.4042085999972,1694.422688800027,1695.1641963999718,1695.1642019000135,1696.6807224000222,1697.697512499988,q,16,0.7415075999451801,1,+1,404,-2.211596486270576,0.30693074484313065,0.10105427761683594,1502305.0,-71.03936502139253,-0.4142178159683745,-6.924044895953722,1505838.0,-45.92436889563078,0.41105140379722016,-0.01688250645860112,1526305.0,1689.7393680396985,1686.2063680396986,1710.2063680396986
91,42,20,F,1,2,83.0,7,3,high,7 - 1 + 9 - 5 + 4,14,15,14,13,1699.214585300011,1701.236554300005,1702.7516283000004,1707.770027599996,1708.3562741000203,1708.3562800000072,1709.8728612000125,1710.8902293000135,w,14,0.586246500024572,1,+10,414,18.7357436731019,-0.3071037824578564,0.6231524352105069,1515652.0,-33.984981464413295,0.31728894222893533,0.3883440979039916,1519186.0,9.636924959039707,-0.14747408658446304,0.24620315996253073,1552578.0,1703.0873680396985,1699.5533680396984,1736.4793680396983
92,42,20,F,1,2,84.0,8,4,high,6 + 9 + 7 - 3 - 5,14,15,14,13,1712.4077231999836,1714.4298713000026,1715.945002100023,1720.9634028999717,1721.4282517000102,1721.4282568999915,1722.944652599981,1723.961820000026,w,14,0.4648488000384532,1,+10,424,-13.238466789639078,0.9153942860663467,-0.25678230872598995,1528846.0,-20.431157597345578,0.1352734178716335,-0.35623714911574655,1532379.0,6.448038607321514,0.08276166809701913,0.12304206143743368,1579177.0,1716.2803680396983,1712.7473680396984,1763.0783680396985
93,42,20,F,1,2,85.0,9,3,high,6 - 1 + 7 - 8 + 9,13,11,12,13,1725.4785732000018,1727.507046499988,1729.022111999977,1734.0406216999982,1734.6282515000205,1734.6282571000047,1736.1446979999891,1737.1622683000169,e,13,0.5876298000221141,1,+10,434,4.297037457653623,0.09931260994826863,-0.07265272403531764,1541922.0,27.4228740853608,-0.2521259936152753,-0.026139329111898313,1545456.0,6.172162710821254,0.6294755249214363,-0.45714332661386337,1592257.0,1729.3573680396985,1725.8233680396984,1776.1583680396984
94,42,20,F,1,2,86.0,10,4,low,2 + 9 - 4 + 8 + 7,22,23,22,21,1738.6791303000064,1740.7073519999976,1742.2225067000254,1747.2429045999888,1748.132168099983,1748.132174200029,1749.648779899988,1750.6662117000087,w,22,0.8892634999938309,1,+1,435,-0.23142879411126316,0.3515236295116524,-1.058895710974828,1555123.0,9.115216080521002,-0.39210231620796065,0.0007818903620453455,1558658.0,-3.601586533756056,-0.6473905950726895,-0.07460960244056603,1672560.0,1742.5593680396983,1739.0243680396984,1856.4613680396983
95,42,20,F,1,2,87.0,11,4,high,8 + 4 + 7 - 5 - 6,8,8,9,6,1752.1828937000246,1754.2095072999946,1755.724405999994,1760.7426332000175,1761.2282482999726,1761.2282537000135,1762.7447808000145,1763.761958600022,q,8,0.4856150999548845,1,+10,445,8.394685027968688,0.16581978526568042,0.6109573665937411,1568625.0,-3.451598703905095,0.15327810385137308,0.06957822042037964,1572158.0,-5.339727849110783,0.44838158543606976,-0.1187151540606024,1712233.0,1756.0593680396983,1752.5263680396984,1896.1343680396985
96,42,20,F,1,2,88.0,12,3,low,4 + 1 + 8 + 9 - 5,17,19,18,17,1765.2777758999728,1767.2999195000157,1768.8150492000275,1773.8331944000092,1774.3082204000093,1774.308225899993,1775.824477099988,1776.8412624999764,e,17,0.4750260000000708,1,+1,446,-20.900049657211028,0.5648845079912794,-0.19998194615432396,1581716.0,-7.09545165991638,0.06934089343425542,-0.8142082392997869,1585249.0,11.94565796770262,0.7901141793047755,-0.12427059847393696,1738688.0,1769.1503680396986,1765.6173680396982,1922.5893680396985
97,42,20,F,1,2,89.0,13,1,high,5 + 1 + 1 + 6 + 1,14,14,16,13,1778.358114300005,1780.3813442999965,1781.8963872999884,1786.913999899989,1788.5882251000148,1788.5882304999975,1790.1046886999975,1791.1218025999842,q,14,1.6742252000258304,1,+10,456,5.406355496966977,0.43251010848689697,1.0943065973795782,1594797.0,18.841433594041654,0.3935288540310329,-0.45530485403980814,1598329.0,1.262858026437291,1.6640021988679243,-0.2607245972142138,1606537.0,1782.2303680396985,1778.6983680396984,1790.4383680396986
98,42,20,F,1,2,90.0,14,2,high,8 + 1 + 9 + 1 - 4,15,15,16,14,1792.638341800019,1794.666154699982,1796.181432500016,1801.1994878000114,1802.0680813000072,1802.0680867999909,1803.5846291999917,1804.6018651999768,q,15,0.8685934999957681,1,+10,466,18.042589120900814,0.14166332732571307,0.8566868700533661,1609082.0,-5.264828765023145,9.637214576684494,14.88450088894486,1612615.0,-0.3394043902831374,0.41272472990709996,-0.03587420726599033,1620017.0,1796.5163680396986,1792.9833680396987,1803.9183680396986
99,42,20,F,1,2,91.0,15,1,high,8 + 1 + 1 - 1 - 4,5,6,3,5,1806.1185120000157,1808.1459607,1809.661864899972,1814.6798782999977,1815.2041562999948,1815.204161599977,1816.7210211000056,1817.7387602999809,e,5,0.524277999997139,1,+10,476,-8.977122197325908,0.7365615966282486,0.06601357945878927,1622562.0,-18.044372612020524,-0.028893910550514157,0.0012383413864025528,1626095.0,19.646158438573632,0.267517210496524,-0.12282501461237061,1633153.0,1809.9963680396986,1806.4633680396983,1817.0543680396986
100,42,20,F,1,2,92.0,16,1,low,8 + 1 + 5 + 1 + 1,16,17,16,15,1819.255527100002,1821.2812047000043,1822.796065100003,1827.813866699988,1828.3801579999852,1828.3801634000265,1829.8965467999808,1830.9132399000227,w,16,0.5662912999978289,1,+1,477,-47.744405754380544,0.6372215448386305,0.005112713174635353,1635696.0,-14.88228436382941,-0.303710865647818,-0.059260891733733834,1639229.0,18.22881745812277,0.5822850402119197,-0.09106209980505597,1646328.0,1823.1303680396986,1819.5973680396983,1830.2293680396983
101,42,20,F,1,2,93.0,17,1,high,7 + 1 + 6 + 1 + 1,16,18,16,17,1832.4308379000288,1834.457786199986,1835.972655699996,1840.9903321000163,1841.5320898999928,1841.532095499977,1843.0493106999784,1844.0667197,w,16,0.5417577999760397,1,+10,487,-13.409299171310325,0.8500002479713928,0.06920738017356065,1648873.0,5.6653457418562905,0.008229958371817947,-0.03729814228579231,1652406.0,21.90357320113196,0.0671568354163341,-0.12336428835647872,1659482.0,1836.3073680396983,1832.7743680396984,1843.3833680396983
102,42,20,F,1,2,94.0,18,4,high,8 + 4 + 7 - 5 - 6,8,7,8,9,1845.5836711999727,1847.6078291999877,1849.1229783999731,1854.14187360002,1854.612072399992,1854.6120774999729,1856.1281563999944,1857.1450988000145,w,8,0.4701987999724224,1,+10,497,14.561935290187366,0.1694279413747366,-0.02226236832364048,1662023.0,-7.868957226037583,-0.2681533563761973,0.13535188756645677,1665557.0,-32.23613121267425,0.5587985452292048,0.02116796809132282,1792296.0,1849.4583680396986,1845.9243680396985,1976.1973680396986
103,42,20,F,1,2,95.0,19,1,high,3 + 1 + 1 + 9 - 1,13,12,14,13,1858.6619886999836,1860.6863877999715,1862.20148649998,1867.2191223999837,1867.8361629000285,1867.8361683000112,1869.352547599992,1870.3699022000076,e,13,0.6170405000448227,1,+10,507,4.668805697180034,-0.45461180753639896,0.0347157811338723,1675102.0,-24.048728007759472,0.04312779914316245,0.05555853040142589,1678634.0,6.224592559591318,0.11431911367071468,0.003414645039362396,1685785.0,1862.5353680396984,1859.0033680396987,1869.6863680396987
104,42,20,F,1,2,96.0,20,2,high,8 + 1 + 7 + 1 - 4,13,14,12,13,1871.886790300021,1873.914539200021,1875.429418399988,1880.447404699982,1880.900039399974,1880.9000446000136,1882.4162921999812,1883.433822299994,e,13,0.4526346999919042,1,+10,517,-2.9530660399156883,-0.3858059522538899,0.007273837906058178,1688330.0,18.236428690825132,0.06792859016008279,-0.010305119187558498,1691863.0,-8.974632393701494,-0.5616202436526376,-0.09968351590249469,1698848.0,1875.7643680396986,1872.2313680396983,1882.7493680396983
105,42,20,F,1,2,97.0,21,4,low,2 + 9 - 3 + 5 + 8,21,23,21,22,1884.950534800009,1886.9726386999828,1888.4875744999736,1893.505858700024,1894.2841499000208,1894.284155500005,1895.8007821000065,1896.817408300005,w,21,0.7782911999966018,1,+1,518,-0.06365924579846372,-0.2034947252918644,0.08965279147359606,1701388.0,-31.051600224807014,0.22694106459662633,0.04578487765753647,1704921.0,18.342084312567884,-0.48807191760425006,-0.18564963213399777,1886560.0,1888.8223680396986,1885.2893680396983,2070.4613680396983
106,42,20,F,1,2,98.0,22,2,high,6 + 1 + 8 + 7 - 1,21,21,19,23,1898.334124699992,1900.3561133000185,1901.871263000008,1906.8894989999824,1907.50009669998,1907.50010200002,1909.0168207000245,1910.03398930002,q,21,0.6105976999970153,1,+10,528,11.132071466742529,0.23659211223373644,-0.10940701617501114,1714771.0,11.489043533707411,0.345384270890448,0.03687678331785693,1718305.0,17.453231954055973,-0.6067876734454041,-0.4423316439125369,1725449.0,1902.2063680396986,1898.6723680396985,1909.3503680396984
107,42,20,F,1,2,99.0,23,3,low,3 + 8 - 7 + 1 + 9,14,13,12,14,1911.5507323999773,1913.5776895000015,1915.0928005999883,1920.111573799979,1920.740183499991,1920.7401888999736,1922.256585999974,1923.2731019000057,e,14,0.6286097000120208,1,+1,529,-14.91461125365187,0.0490936173257972,-0.5894697657920931,1727993.0,-14.566971320793924,0.14183563705337265,0.03014932479999377,1950861.0,-7.334112125439125,0.9665166114663011,-0.3240713453269999,1765272.0,2134.7623680396987,1911.8943680396983,1949.1733680396983
108,42,20,F,1,2,100.0,24,2,high,5 + 7 - 8 + 1 + 1,6,6,7,8,1924.789858000004,1926.817647900025,1928.3326535000235,1933.3511051000096,1933.972162800026,1933.9721681000085,1935.4886152999825,1936.5058954000124,q,6,0.6210577000165358,1,+10,539,6.791088941265478,0.09059715621308051,0.06481309528667767,1741232.0,16.66684382885535,-0.02728760441072664,-0.19562690072180833,1744766.0,-28.941808458208143,-1.473596702210064,-0.4181603642903935,1751921.0,1928.6673680396984,1925.1333680396983,1935.8223680396986
109,42,20,F,1,2,101.0,25,3,high,7 - 5 + 9 + 1 - 4,8,7,9,8,1938.0225394999725,1940.0483281000047,1941.5636032000184,1946.581956900016,1947.3240766000235,1947.3240819000057,1948.840288200008,1949.8572281000088,e,8,0.7421197000076063,1,+10,549,-18.244783478805093,0.619893275871656,0.22267191596499836,1754463.0,-9.224075817457415,0.11145189842094583,-0.2315664556985586,1757997.0,11.855343462488698,0.3857112361954069,-0.1395543744654597,1833640.0,1941.8983680396987,1938.3643680396985,2017.5413680396987
110,42,20,F,1,2,102.0,26,2,high,9 + 4 - 6 + 1 - 1,7,7,8,9,1951.3734182000044,1953.4014240999825,1954.91705639998,1959.935378700029,1960.644013100013,1960.644018499996,1962.1601247999931,1963.1774217999773,q,7,0.7086343999835663,1,+10,559,5.040946352397244,0.14354478578171737,-0.04239550709696216,1767816.0,11.331001956663176,0.4178375568323318,7.36610467768628e-05,1771350.0,10.282870142387507,0.2826529149134007,-0.10294925037353098,1778592.0,1955.2513680396983,1951.7173680396986,1962.4933680396985
111,42,20,F,1,2,103.0,27,4,low,3 + 9 - 4 + 7 + 6,21,21,20,19,1964.6941069000168,1966.7188322999864,1968.2342219999991,1973.25269340002,1974.347954900004,1974.3479602999869,1975.8646051000103,1976.8817839000255,q,21,1.09526149998419,1,+1,560,10.044958758746924,-0.4153118509289344,-0.03209220701694715,1781133.0,13.079125933360814,0.21922289625184277,-0.051148523484870756,1784667.0,-2.3593873400891283,0.31562655096589776,-0.1782596214515988,1944783.0,1968.5683680396983,1965.0343680396986,2128.6843680396983
112,42,20,F,1,2,104.0,28,2,low,7 + 6 + 1 - 1 - 8,5,4,3,5,1978.3984863000223,1980.4245131000064,1981.939680600015,1986.9578108999997,1989.1480075999864,1989.1480190000148,1990.6644483000275,1991.681520699989,q,4,2.1901966999867,0,+0,560,-6.9872182144335575,0.28997894025959337,0.003181816780629676,1794839.0,-15.877569153126949,-0.1335751831616978,-0.6944842314579227,1731526.0,-10.869304578407501,-0.06739786486206167,-0.07551963339360723,1820400.0,1915.4273680396986,1978.7403680396983,2004.3013680396984
113,42,20,F,1,2,105.0,29,2,low,9 + 6 + 1 + 7 + 1,24,25,23,24,1993.1981755999727,1995.2232229000076,1996.738177000021,2001.755963800009,2002.4519807000177,2002.4519867000051,2003.9686827000116,2004.9854384000064,e,24,0.6960169000085443,1,+1,561,-0.16609988294890066,1.2441271166167813,-0.42951589346082386,1809637.0,-2.4403580739402297,0.9748924282102656,3.326954367228348,1798373.0,-6.40399992854376,0.14744633681498254,0.07889187999450709,1873328.0,1982.2743680396984,1993.5383680396985,2057.2293680396983
114,42,20,F,1,2,106.0,30,3,high,7 - 1 + 8 - 6 + 4,12,13,12,11,2006.5020774999864,2008.5293037000229,2010.044183799997,2015.0627503999856,2015.691998500028,2015.6920045000152,2017.208664999984,2018.2257599000004,w,12,0.6292481000418775,1,+10,571,-16.77847995600614,0.9097584687002911,0.19973416740431182,1822944.0,2.8779437789223294,-0.009699636109151033,-0.35117163588344225,1826477.0,24.757160746693707,-0.37854916029370456,-1.0026886523518326,1860073.0,2010.3783680396987,2006.8453680396983,2043.9743680396987
115,42,20,F,1,2,107.0,31,1,low,5 + 8 - 1 + 1 + 1,14,16,12,14,2019.742723100004,2021.7700822000045,2023.2852483000024,2028.303569499985,2028.923934300023,2028.9239396000048,2030.439822299988,2031.4575427999955,e,14,0.6203648000373505,1,+1,572,10.738212010974452,-0.024083133818378233,-0.06418499628409213,1836184.0,42.56145148003039,0.2808104836400007,0.11746598623214899,1839718.0,9.510284534583464,-0.3822865701402791,-0.02518135728796911,1846871.0,2023.6193680396987,2020.0853680396986,2030.7723680396984
116,42,20,F,1,2,108.0,32,3,high,5 - 1 - 4 + 6 + 7,13,14,15,13,2032.9742653000285,2034.9995757000288,2036.514541200013,2041.5344208999888,2042.1239813999853,2042.123987000028,2043.6410790000227,2044.6584489999805,e,13,0.5895604999968782,1,+10,582,15.91029187480802,0.49246249641690687,-0.1335067628046136,1849414.0,17.0298825515995,-0.1754616746961788,-1.3585331667287788,1852949.0,-43.56292726697262,0.42883933730955714,0.21264205155182125,1926111.0,2036.8503680396984,2033.3153680396986,2110.0123680396987
117,42,20,F,1,2,109.0,33,2,high,4 + 7 + 1 + 1 - 8,5,4,5,7,2046.175157300022,2048.202710599988,2049.7179780000006,2054.736347099999,2055.379928499984,2055.379933600023,2056.8961336999782,2057.91297439998,w,5,0.6435813999851234,1,+10,592,3.5184219196525763,-0.5234402319804992,-0.13058559252224144,1862617.0,17.185399166560906,0.5009059381606331,-0.588010376664964,1866151.0,4.727729843641788,0.6729283014512117,0.6915075288852477,1912919.0,2050.0523680396986,2046.5183680396985,2096.8203680396987
118,42,20,F,1,2,110.0,34,4,high,7 + 6 - 9 + 8 - 3,9,9,8,7,2059.4297353000147,2061.4555204000208,2062.969703599985,2067.987694700016,2068.611988699995,2068.61199439998,2070.128471200005,2071.145539799996,q,9,0.6242939999792725,1,+10,602,-14.604817700116245,0.14135546411272193,-0.29735588935043644,1875870.0,1.6248304602275603,0.6437818921536982,-0.04870962732302275,1879402.0,-17.006250263168923,-0.805120450313539,0.17432657241766547,2078086.0,2063.3033680396984,2059.7713680396982,2261.987368039698
119,42,20,F,1,2,111.0,35,1,high,5 + 1 + 1 + 9 + 1,17,17,19,16,2072.6624043000047,2074.687485400005,2076.2025677000056,2081.2204791000117,2081.667975599994,2081.6679810999776,2083.184457399999,2084.2017043000087,q,17,0.4474964999826625,1,+10,612,14.046255881757428,-0.06143182477644249,-0.04433673180656417,1889102.0,9.969588663887114,-0.10083389553904043,-0.2317027434708605,1892635.0,-21.299616415080763,-0.3667325994960531,-0.17022575091852366,1899616.0,2076.5363680396986,2073.0033680396987,2083.5173680396983
120,42,20,F,1,2,112.0,36,2,low,4 + 8 + 1 + 1 - 5,9,8,9,11,2085.7183452000027,2087.74656639999,2089.26196069998,2094.281015500019,2094.971982899995,2094.9719884999795,2096.4884363000165,2097.5050319000147,w,9,0.6909673999762163,1,+1,613,3.0896035433906057,-0.33404238382071805,0.006735914113070285,1902161.0,-33.20160919004742,0.16489673970814245,-0.3659662690812593,1813171.0,22.2346779749536,0.5557432864127407,0.0332831666312412,1971199.0,1997.0723680396986,2086.0623680396984,2155.1003680396984
121,42,20,F,1,2,113.0,37,3,high,2 + 1 + 9 - 4 + 6,14,14,16,15,2099.0217400999973,2101.058951999992,2102.5741732000024,2107.593883899972,2108.1638408,2108.1638459999813,2109.6800646000197,2110.697186600009,q,14,0.5699569000280462,1,+10,623,2.3464019344512614,0.7318872679577524,-0.04924048627872324,1915473.0,16.862077567029576,-0.4377218074294875,-3.8034937184121285,1919008.0,10.176611103506087,0.5723564117545243,0.048129037917234774,1957999.0,2102.9093680396986,2099.3743680396983,2141.9003680396986
122,42,20,F,1,3,114.0,0,4,low,7 + 6 - 4 + 9 - 5,13,13,14,12,2117.6233485999983,2119.6494714000146,2121.164015499992,2126.1839232000057,2126.835795900028,2126.8358014000114,2128.352194699982,2129.368880200025,q,13,0.6518727000220679,1,+1,624,-35.813792966290805,-2.1422709958750143,8.646579148768362,1934063.0,11.887258742061878,-0.2700272308424134,-2.598375910482291,1937598.0,-45.04870051601121,0.6822062427866356,0.49915898121456914,2091487.0,2121.4993680396983,2117.9643680396985,2275.3883680396984
123,42,20,F,1,3,115.0,1,3,low,2 + 9 - 3 + 4 + 1,13,11,13,14,2130.8852365000057,2132.911214200023,2134.4264043000294,2139.446601199976,2140.0519227000186,2140.051928300003,2141.568122000026,2142.5847297,w,13,0.6053215000429191,1,+1,625,-1.2997343725313257,0.33696057010756153,-0.05688107598009262,1947325.0,-0.4658864564811651,0.09555636034282777,-0.00017289770927275683,1990498.0,12.730499602267013,-0.6380569302033852,-0.016403010129345752,1997887.0,2174.3993680396984,2131.2263680396986,2181.7883680396985
124,42,20,F,1,3,116.0,2,2,low,2 + 1 + 9 - 4 + 1,9,11,9,8,2144.101390500029,2146.1277222000062,2147.643214299984,2152.661973999988,2153.251845700026,2153.251851100009,2154.7681867000065,2155.784655400028,w,9,0.5898717000382021,1,+1,626,8.112240571702824,0.923273321772621,0.03201804014279208,1960542.0,-23.662910221817725,0.009332812204014829,0.0322652286630265,1905694.0,21.06110555803778,-0.9623800337938317,-0.09051187962163665,2011479.0,2089.5953680396983,2144.4433680396983,2195.3803680396986
125,42,20,F,1,3,117.0,3,1,high,2 + 1 + 9 + 1 - 1,12,12,13,11,2157.301244799979,2159.325093600026,2160.840184999979,2165.8607832000125,2166.47583890002,2166.4758445000043,2167.9932080999715,2169.0100946999737,q,12,0.6150557000073604,1,+10,636,-20.70257773761352,0.2723308024573545,-0.4984170209610017,1973739.0,12.395751010719016,-0.7442011548599421,-8.546029053812868,1977275.0,-10.266333659513343,-0.1396565307049369,-0.33448063552994434,1984424.0,2161.1763680396984,2157.6403680396984,2168.3253680396983
126,42,20,F,1,3,118.0,4,3,low,5 + 6 - 4 - 1 + 7,13,13,15,14,2170.526799899992,2172.550867200014,2174.0659544999944,2179.084333400009,2179.9398121000268,2179.939817700011,2181.4563143000123,2182.4734428999946,q,13,0.8554787000175565,1,+1,637,1.4272640093796412,0.4598547956285577,0.09200316298690359,1986965.0,22.579056567666136,0.17948771802477825,-2.606355252648939,2030757.0,29.46684710687777,0.45468640091066126,-0.37188493642361786,2037943.0,2214.6583680396984,2170.8663680396985,2221.8443680396986
127,42,20,F,1,3,119.0,5,2,low,6 + 1 + 1 + 7 - 9,6,6,8,4,2183.9902777000098,2186.017983100028,2187.5329803000204,2192.551557699975,2193.531864700024,2193.531870100007,2195.048361800029,2196.064533900004,q,6,0.9803070000489242,1,+1,638,6.956196851221565,-0.41136771536687533,-0.3243207072379022,2000432.0,-28.734395439515993,-0.3791500811825377,-1.699040866082088,1964075.0,11.502791472902297,0.1659255235638306,-0.4261822346228117,2051199.0,2147.9763680396986,2184.3333680396986,2235.1003680396984
128,42,20,F,1,3,120.0,6,1,low,5 + 6 + 1 + 1 + 1,14,15,14,16,2197.581128199992,2199.6100740000256,2201.1249507999746,2206.1422892999835,2206.7318933000206,2206.7318987000035,2208.2491600000067,2209.2653166999808,w,14,0.5896040000370704,1,+1,639,13.37874223329447,-0.17957265470409345,0.009367168251142921,2014023.0,7.722493775174856,0.7160476109636971,-0.08666989770322919,2017556.0,10.952611430248734,0.22470578447689826,-0.0001218030834218009,2024680.0,2201.4573680396984,2197.9243680396985,2208.5813680396986
129,42,20,F,1,3,121.0,7,3,low,8 + 5 + 1 - 7 + 9,16,17,14,16,2210.782010200026,2212.8102255000267,2214.325125999981,2219.3435232000197,2219.995805500017,2219.9958110000007,2221.5122363999835,2222.52962430002,e,16,0.6522822999977507,1,+1,640,6.645846276284921,0.3165457483954519,1.334787212265483,2027224.0,-2.1619169575345722,0.07054263604874711,0.18384392632741609,2230701.0,4.878001564434687,0.6336358451640973,-0.24082352287583264,2104892.0,2414.6023680396984,2211.1253680396985,2288.793368039698
130,42,20,F,1,3,122.0,8,2,high,3 - 1 + 9 - 5 + 1,7,7,5,6,2224.046370099997,2226.07237910002,2227.5875363000087,2232.60570070002,2233.2517641999875,2233.2517697000294,2234.767913400021,2235.7852135000285,q,7,0.6460634999675676,1,+10,650,-11.050365687969283,0.25228858008116983,0.21455360419868574,2040486.0,-20.68731968561954,0.23625225992087318,0.5443491799271531,2044020.0,2.859120129595212,-0.6713454979414348,-0.004024763747747517,2064735.0,2227.9213680396983,2224.3873680396987,2248.6363680396985
131,42,20,F,1,3,123.0,9,2,low,5 + 1 + 7 - 6 + 1,8,8,7,6,2237.3020958999987,2239.329938400013,2240.84482280002,2245.863207300019,2246.7878343000198,2246.787839800003,2248.304276200012,2249.321125300019,q,8,0.9246270000003278,1,+1,651,-29.790616067085807,1.0472099875495071,-0.2992050655522087,2053744.0,13.798248699102942,-0.519095622862281,-0.05780367496329242,2003965.0,-22.335736591685276,-0.5957123192706102,-0.12198633663896441,2157857.0,2187.8663680396985,2237.6453680396985,2341.7583680396983
132,42,20,F,1,3,124.0,10,4,low,5 + 8 - 6 + 7 + 4,18,17,19,18,2250.837919500016,2252.865175099985,2254.3809896999737,2259.399166100018,2260.139722299995,2260.1397272999748,2261.655928799999,2262.672628799977,e,18,0.7405561999767087,1,+1,652,-0.10364458810626864,0.48354246483288454,-0.1993777275534394,2067279.0,-9.132048452229908,0.08281069547181286,-0.9995966387101074,2070813.0,21.99531587389974,-0.48770918110594286,-0.05751444511199377,2144560.0,2254.7143680396985,2251.1803680396984,2328.4613680396983
133,42,20,F,1,3,125.0,11,4,low,4 + 7 + 8 - 3 + 9,25,25,26,24,2264.1892964,2266.2134076000075,2267.728515100025,2272.746773299994,2273.53987909999,2273.5398850999773,2275.0563780000084,2276.0732371999766,q,25,0.7931057999958284,1,+1,653,58.2774976541976,0.17505242547464972,0.2620656202450613,2080627.0,7.165255782646452,0.36873842369397414,-0.2546694674915764,2084161.0,-10.247627119957958,0.8382767060321203,-0.2873161977693086,2211182.0,2268.0623680396984,2264.5283680396983,2395.083368039698
134,42,20,F,1,3,126.0,12,3,high,9 + 3 - 4 + 6 + 7,21,21,22,23,2277.5899712999817,2279.6180217000074,2281.133141600003,2286.1527535999776,2286.931755300029,2286.931760600012,2288.44770010002,2289.4787635999965,q,21,0.7790017000515945,1,+10,663,24.464938397230803,-5.345147980515974,-6.006543088171213,2094031.0,18.895270308993517,-0.5739759366630879,-0.20741259638497578,2097566.0,-19.526812003200998,0.44497005613133034,3.469713311670976,2131349.0,2281.467368039698,2277.9323680396983,2315.2503680396985
135,42,20,F,1,3,127.0,13,1,low,8 - 1 + 1 + 6 + 1,15,15,14,16,2290.996454200009,2293.0237162000267,2294.5385494999937,2299.556510799972,2300.1077704000054,2300.107775899989,2301.6243462000275,2302.642671199981,q,15,0.5512596000335179,1,+1,664,-6.3946303215942475,-0.0756267756396447,-0.035830263577888655,2107437.0,3.5858028157562316,-0.08894813346423502,0.028909275517346344,2110970.0,9.875683945335513,0.36125816714311565,-0.004270382302942188,2118056.0,2294.871368039698,2291.3383680396983,2301.9573680396984
136,42,20,F,1,3,128.0,14,3,high,5 + 1 + 7 - 8 + 6,11,9,11,13,2304.1603131999727,2306.1863112000283,2307.7014901000075,2312.719785500027,2313.331667600025,2313.331673000008,2314.8485629999777,2315.9356419999967,w,11,0.6118820999981835,1,+10,674,2.6520354579229277,-0.4075358071685087,3.1539366898840653,2120600.0,5.417076415644787,0.7026611854055234,-0.05787752892327713,2124133.0,-29.747009701927155,-0.2890454501334707,0.11898179492219363,2184670.0,2308.034368039698,2304.5013680396983,2368.5713680396984
137,42,20,F,1,3,129.0,15,4,low,9 + 4 - 6 + 8 + 7,22,24,21,22,2317.45220900001,2319.4782442,2320.993360000022,2326.012354700011,2326.6117099000257,2326.611715200008,2328.1295904999715,2329.146816499997,e,22,0.5993552000145428,1,+1,675,-24.78720631655976,0.16023734642737253,-2.1241781889583127,2133892.0,-25.928831107921596,-0.03631620742178354,-0.36816233343437244,2137425.0,13.023966231980145,-0.27073637267782047,-1.4293902697309173,2331110.0,2321.3263680396985,2317.793368039698,2515.0113680396985
138,42,20,F,1,3,130.0,16,2,low,2 + 9 + 1 + 1 - 5,8,7,8,6,2330.663146100007,2332.688881799986,2334.2037440999998,2339.2224581000046,2339.8919704,2339.891976099985,2341.4083578999853,2342.443812399986,w,8,0.6695122999954037,1,+1,676,8.731053219998358,0.08670845894913759,0.7030130311597018,2147102.0,6.839263930526722,-0.1576412584038942,1.5812415486104214,2057277.0,8.909906173787942,-0.42387781316566553,0.1473405071502505,2171174.0,2241.1783680396984,2331.003368039698,2355.0753680396983
139,42,20,F,1,3,131.0,17,2,low,7 + 5 + 1 + 9 + 1,23,22,21,23,2343.9605639000074,2345.9838380999863,2347.4990920000128,2352.5169188000145,2353.2276732000173,2353.2276786,2354.7440781000187,2355.7609491000185,e,23,0.7107544000027701,1,+1,677,-31.425797880212844,-0.04299689507746596,-0.17724193919868547,2160398.0,13.283185388379607,0.6888051732498797,0.04851808828669668,2150636.0,-7.442517641896897,0.2896587228484617,-0.05920945013042456,2224623.0,2334.5373680396983,2344.2993680396985,2408.5243680396984
140,42,20,F,1,3,132.0,18,3,high,6 + 8 + 7 + 1 - 9,13,15,13,14,2357.299419099989,2359.3256368000293,2360.8408570999745,2365.859116100008,2366.723729200021,2366.723734600004,2368.23988920002,2369.2573236000026,w,13,0.86461310001323,1,+10,687,23.725469145367224,-0.5569174139827191,-0.24084380261899696,2173739.0,10.308453771636248,0.13168404606407558,-0.5185551147433776,2177272.0,-9.890595273426722,-0.52945209762483,-0.0716516594890515,2197975.0,2361.1733680396983,2357.6403680396984,2381.8763680396983
141,42,20,F,1,3,133.0,19,3,high,3 + 1 + 8 - 5 + 9,16,15,16,17,2370.7733540000045,2372.7977584999758,2374.3129363000044,2379.3309299999964,2380.027664199996,2380.0276693999767,2381.544510699983,2382.5616872999817,w,16,0.6967341999989003,1,+10,697,-0.33871980521763767,0.34509486468217876,-0.41307841287648195,2187211.0,45.63586278376701,-0.11349371039242184,0.28945051996875826,2190744.0,9.804373242029076,-0.2919372042217594,0.06507266234477171,2237910.0,2374.6453680396985,2371.112368039698,2421.811368039698
142,42,20,F,1,3,134.0,20,4,low,4 + 7 - 8 + 9 - 4,8,9,8,7,2384.078337999992,2386.105245499988,2387.620285100013,2392.639877800015,2393.235635399993,2393.235640699975,2394.7523345000227,2395.7691826000228,w,8,0.5957575999782421,1,+1,698,-4.355089183461757,-0.1176024341688846,-0.28422867685277,2200518.0,-1.1301463120814539,0.39640276578815703,0.41113668564427064,2204053.0,-6.728280751747474,2.675675362193657,0.3630581490030722,2370830.0,2387.9543680396982,2384.4193680396984,2554.7313680396983
143,42,20,F,1,3,135.0,21,2,high,6 + 1 + 7 - 8 - 1,5,7,5,4,2397.286012700002,2399.30923080002,2400.824471300002,2405.8430442999816,2406.675766100001,2406.675771399983,2408.193029600021,2409.210564500012,w,5,0.8327218000194989,1,+10,708,3.0095570399055838,-0.26061136540403007,0.13776177268716783,2213722.0,33.021873149658674,0.31366484268955297,0.03371740120681954,2217256.0,-10.220250562641084,-0.5041123535566276,0.19514397766205782,2277454.0,2401.157368039698,2397.6233680396986,2461.3553680396985
144,42,20,F,1,3,136.0,22,3,low,4 + 8 - 9 + 1 + 7,11,9,13,11,2410.727241799992,2412.75415220001,2414.270048099977,2419.288128999993,2419.9636703999718,2419.9636761000147,2421.4800380999804,2422.496977299976,e,11,0.6755413999781013,1,+1,709,-26.354298758419187,-0.6006243604490504,-0.13975007992256616,2227167.0,-34.09360646649829,-0.5390913141439628,0.3856560858997504,2243986.0,10.311070849262086,0.14671353898317951,-0.25529201582696626,2251070.0,2427.8873680396982,2411.0683680396983,2434.9713680396985
145,42,20,F,1,3,137.0,23,3,low,9 - 5 - 1 - 6 + 8,5,4,7,5,2424.0143157999846,2426.039479000028,2427.5546985000256,2432.5726016000262,2433.123694500013,2433.1236994999927,2434.640214200015,2435.656944499992,e,5,0.5510928999865428,1,+1,710,9.89787629591422,0.6337105652928434,0.3110886672917057,2240452.0,38.725200142385546,-0.08692211273410244,1.0472162945148487,2448603.0,1.4616884662363816,0.1262614554019792,0.11453056366976044,2290870.0,2632.5043680396984,2424.3533680396986,2474.7713680396982
146,42,20,F,1,3,138.0,24,1,high,7 - 1 + 1 + 9 - 1,15,14,13,15,2437.1735704999883,2439.19774209999,2440.7129040000145,2445.731219600013,2446.371660200006,2446.371665599989,2447.8880981000257,2448.9053079999867,e,15,0.6404405999928713,1,+10,720,-27.29952619074097,0.07343985391333696,0.3942325877572972,2253611.0,14.815722608392363,-0.0729280468243152,-0.37118664375527244,2257144.0,-6.335653734978833,-0.5915431396499695,0.26094701425765887,2264318.0,2441.045368039698,2437.5123680396982,2448.2193680396986
147,42,20,F,1,3,139.0,25,2,high,6 + 8 + 1 + 1 - 7,9,8,9,11,2450.4221557999845,2452.4500048999907,2453.9650845999718,2458.9832627000287,2459.50766220002,2459.507667700004,2461.0241381999804,2462.040740000026,w,9,0.5243994999909773,1,+10,730,19.864092619901548,-0.06385476618960428,-0.1950443877565906,2266863.0,3.2901504221036553,0.45346221763508643,0.13548041123031318,2270396.0,4.985336308915383,0.06205822202530609,0.18485422476673286,2317709.0,2454.2973680396985,2450.764368039698,2501.610368039698
148,42,20,F,1,3,140.0,26,3,high,7 + 5 + 9 + 1 - 6,16,14,16,15,2463.557286299998,2465.583405599988,2467.0986079000286,2472.1185011999914,2472.9235383999767,2472.9235436000163,2474.4398703000043,2475.4572256000247,w,16,0.8050371999852359,1,+10,740,8.715015737896076,-0.18168768225646348,0.5941707748424312,2279996.0,31.707742804530945,0.2139235153146961,-0.22572466184565432,2283531.0,17.89126398008158,0.48122286513783274,0.005987569209276344,2304326.0,2467.4323680396983,2463.8973680396984,2488.2273680396984
149,42,20,F,1,3,141.0,27,3,high,6 + 7 + 8 + 1 - 9,13,13,14,15,2476.9739380999818,2478.998761199997,2480.5147817999823,2485.5330034000217,2486.3796444999757,2486.3796499000164,2487.8963395999745,2488.91341530002,q,13,0.8466410999535583,1,+10,750,-25.08577403975971,0.4574524851911299,0.3911690205520024,2293412.0,2.7294776894016053,-0.03095230859158038,-0.12261808034945565,2296946.0,18.39681131835592,-0.5570168561602262,0.06266950673580651,2410310.0,2480.8473680396983,2477.313368039698,2594.2113680396983
150,42,20,F,1,3,142.0,28,2,high,5 + 8 + 1 - 1 + 9,22,22,21,23,2490.4301274999743,2492.456902300008,2493.971539399994,2498.989357499988,2499.7635548000108,2499.7635601999937,2501.279525500024,2502.297347099986,q,22,0.7741973000229336,1,+10,760,-18.246384674795465,0.8947524630008101,0.20073636906175407,2306870.0,-15.818329069866108,-0.01578486876277374,0.28411141177290045,2310402.0,0.13988827399065507,-0.3846859087385748,-0.45736587620571845,2482461.0,2494.3033680396984,2490.7713680396982,2666.362368039698
151,42,20,F,1,3,143.0,29,4,low,5 + 7 - 4 + 6 + 9,23,24,25,23,2503.813951899996,2505.8378216000274,2507.35297539999,2512.3715951999766,2513.163614900026,2513.163620000006,2514.6801105000195,2515.697285800008,e,23,0.7920197000494227,1,+1,761,2.9952935531404297,-0.8892022574103993,-0.035055826536141144,2320251.0,29.455328100964547,-0.05321588504457564,0.18169875867084873,2323784.0,8.357571482517859,-0.43431280672914685,0.07006751585128113,2423365.0,2507.6853680396985,2504.1523680396986,2607.266368039698
152,42,20,F,1,3,144.0,30,1,high,7 + 1 + 4 + 1 - 1,12,13,11,12,2517.214002199995,2519.241420699982,2520.7562430999824,2525.774665899982,2526.435532399977,2526.435538400023,2527.951689300011,2528.969116399996,e,12,0.6608664999948815,1,+10,771,-10.275925014151358,0.5145674059786636,-0.06908890529036804,2333654.0,-10.131444763648993,-0.21373634615659842,0.04996008627570925,2337187.0,13.440736777926007,-1.3896271316109208,-0.04769787444165918,2344382.0,2521.0883680396983,2517.5553680396984,2528.2833680396984
153,42,20,F,1,3,145.0,31,1,low,6 + 9 + 1 + 1 - 1,16,15,14,16,2530.485704299994,2532.513430399995,2534.0284607000067,2539.046560399991,2539.499592899985,2539.4995986000285,2541.0160015000147,2542.03286929999,e,16,0.4530324999941513,1,+1,772,2.482720623830957,0.06509891113007349,0.11660724007966183,2346926.0,4.230182954663306,-0.3331480582857589,0.05698161197679963,2350459.0,-0.41659443764040205,0.606723843623528,-0.0161707523112804,2357445.0,2534.360368039698,2530.8273680396983,2541.3463680396985
154,42,20,F,1,3,146.0,32,4,high,8 + 5 - 4 + 7 + 9,25,24,26,25,2543.549604,2545.575460300024,2547.09039279999,2552.1086817000178,2552.883527299972,2552.8835327000124,2554.3999912000145,2555.4169176999712,e,25,0.7748455999535508,1,+10,782,-5.052572512126805,-0.11890095454593919,0.22115238539108928,2359988.0,-3.241526285039483,1.107250392112615,0.045083777745464904,2363521.0,-6.22288349670222,-0.4247809532283733,-0.05164733484247952,2436533.0,2547.4223680396985,2543.889368039698,2620.4343680396983
155,42,20,F,1,3,147.0,33,1,high,6 + 1 + 1 + 7 - 1,14,14,12,13,2556.9336922999937,2558.95808750001,2560.4732640000293,2565.4925197000266,2566.10755830002,2566.107563400001,2567.6239829999977,2568.641479499988,q,14,0.6150385999935679,1,+10,792,-10.89238486685788,-0.5889577339096506,-0.46374778969502817,2373371.0,13.979622474959253,-0.33605166335391523,-0.09230815525893732,2376904.0,22.949198078241622,-0.7290011227755917,0.09463445633443701,2384054.0,2560.8053680396984,2557.2723680396984,2567.9553680396984
156,42,20,F,1,3,148.0,34,1,low,7 + 1 + 5 + 1 - 1,13,12,13,14,2570.158093000005,2572.183591799985,2573.698792900017,2578.7171563999727,2579.235559099994,2579.2355641999748,2580.7523168000043,2581.768834199989,w,13,0.5184027000213973,1,+1,793,1.6768801233538486,-1.1156337620385353,-1.9293101335613212,2386596.0,-4.255569783709634,0.18244172903651368,-0.15555716084612436,2390130.0,15.805609301640953,0.39966822451625816,-0.16434701211799618,2397181.0,2574.0313680396985,2570.4973680396984,2581.0823680396984
157,42,20,F,1,3,149.0,35,3,high,2 + 9 + 1 - 5 + 7,14,12,15,14,2583.285476799996,2585.3128643999808,2586.828067500028,2591.8464831999736,2592.36354370002,2592.3635491000023,2593.880291400012,2594.89740810002,e,14,0.5170605000457726,1,+10,803,-18.354376433375776,-0.6360977419305378,-0.023801281855541534,2399725.0,1.6408666195161974,0.4724876175685857,0.011137978847612251,2403259.0,-9.8530576158056,-0.2159584980430207,-0.2810969402790897,2455726.0,2587.1603680396984,2583.6263680396983,2639.6273680396985
158,42,20,F,1,3,150.0,36,4,high,2 + 5 - 3 + 9 + 8,21,21,19,22,2596.4141423000256,2598.437528599985,2599.9526895000017,2604.970836399996,2605.419469900022,2605.419474800001,2606.9357109999983,2607.9528470999794,q,21,0.4486335000256076,1,+10,813,-19.104728017258868,0.1436023082568516,0.08343816915198521,2412850.0,-39.072689746168564,-0.10942978331540854,-0.02844902559717588,2416384.0,-8.452909393518226,0.3533073560378206,0.14217171167112763,2495669.0,2600.2853680396984,2596.7513680396983,2679.570368039698
159,42,20,F,1,3,151.0,37,4,high,7 + 8 - 4 + 6 - 5,12,13,12,11,2609.4695105000283,2611.494980500021,2613.0098560000188,2618.028519999993,2618.587550299999,2618.5875557999825,2620.104016199999,2621.121080800018,w,12,0.5590303000062704,1,+10,823,2.7503002906538434,0.8542187835759529,-0.06904065834671869,2425907.0,2.864725383235868,-0.07239591011240432,0.4852965960893325,2429441.0,-36.399542915264426,0.39718968484507045,-0.30427578441220726,2522254.0,2613.342368039698,2609.8083680396985,2706.1553680396983
160,42,20,F,1,4,152.0,0,3,low,4 + 5 - 3 + 7 - 1,12,13,11,12,2628.6310843999963,2630.655688000028,2632.1708453000174,2637.1915144000086,2637.7795272999792,2637.7795327000204,2639.296039299981,2640.3133189000077,e,12,0.5880128999706358,1,+1,824,9.00296321070783,-0.8381025155856747,0.13014069008123608,2445068.0,-4.311018601552913,0.1993999040058858,0.03551185795327205,2821072.0,-14.243670291720214,-0.23181551911042098,-0.3261492470902536,2468861.0,3004.9733680396985,2628.9693680396986,2652.7623680396982
161,42,20,F,1,4,153.0,1,3,high,3 + 8 - 7 - 1 + 9,12,13,12,14,2641.83000810002,2643.857206100016,2645.372115899984,2650.3909726000275,2650.915435299976,2650.9154412000207,2652.431816300028,2653.4489330999786,w,12,0.5244626999483444,1,+10,834,2.2747543092151723,0.08090496996058993,0.5973732458236989,2458269.0,18.992426449099533,-0.024076511084778485,-0.3301033539703542,2461803.0,-0.5067931359240383,0.51068121904679,0.3315622308145647,2508773.0,2645.7043680396982,2642.170368039698,2692.6743680396985
162,42,20,F,1,4,154.0,2,2,low,2 + 1 + 9 - 4 + 1,9,11,8,9,2654.9657547000097,2656.9929633000284,2658.5080870999955,2663.526899699995,2664.515475800028,2664.515481200011,2666.0319876000285,2667.0487666000263,e,9,0.9885761000332424,1,+1,835,-23.2716569599421,0.22875955911254708,-0.0876860991983408,2471405.0,13.051180645196053,0.5532278548339407,0.0705094649124387,2163930.0,-12.121022246084124,0.04520670381069003,-0.21473633399276837,2575028.0,2347.831368039698,2655.3063680396986,2758.929368039698
163,42,20,F,1,4,155.0,3,4,low,9 + 8 - 5 - 7 + 6,11,11,13,10,2668.5655152000254,2670.592233399977,2672.1073746000184,2677.125925100001,2677.723486299976,2677.7234919000184,2679.2400161999976,2680.256854799984,q,11,0.5975611999747343,1,+1,836,10.462471649901065,0.7434747728488031,0.21950074753245552,2485005.0,9.81093524527864,0.40873787920724913,2.0855898648415963,2488538.0,0.18400996707911332,-0.9861339646930478,0.10515836304492243,2548581.0,2672.4393680396984,2668.9063680396985,2732.4823680396985
164,42,20,F,1,4,156.0,4,3,high,2 + 1 + 9 - 7 + 6,11,13,11,12,2681.7738032999914,2683.7987907999777,2685.3139525000006,2690.3323476000223,2690.8274178000283,2690.827422900009,2692.343793099979,2693.360665199987,w,11,0.4950702000060119,1,+10,846,5.8303998088247795,-0.015437656855992188,-0.3601126936381691,2498211.0,15.08609528641061,0.2640499241358114,-0.321321079777686,2501745.0,-43.38906357925597,0.4490147121334158,-0.2751627402435479,2761357.0,2685.6463680396982,2682.112368039698,2945.2583680396983
165,42,20,F,1,4,157.0,5,4,low,8 + 7 - 4 + 5 + 9,25,26,25,24,2694.877258200024,2696.9029766999884,2698.4180661999853,2703.436380499974,2704.3074564000126,2704.3074618999963,2705.8250662999926,2706.841620900028,w,25,0.8710759000387043,1,+1,847,13.752668188970606,0.6158151841636856,-0.5585957710553817,2511315.0,13.764214538641818,0.42156758145560236,0.9932920027590368,2514849.0,27.520436711163537,-1.5802272066312648,-0.10225701350400218,2588357.0,2698.7503680396985,2695.2163680396984,2772.2583680396983
166,42,20,F,1,4,158.0,6,1,low,3 + 1 + 9 + 1 - 1,13,12,13,14,2708.3578984999917,2710.3836640000227,2711.89881839999,2716.91687060002,2717.355486800021,2717.355492400005,2718.8718452000176,2719.8886167000164,w,13,0.438616200000979,1,+1,848,-44.66331061117521,-0.062109627857937166,-0.03201233899557776,2524796.0,-17.872355642838084,-0.8689574386010923,0.007083876800655808,2528329.0,-0.9110980752047944,-0.7760529690733247,0.10677634390543211,2535301.0,2712.2303680396985,2708.697368039698,2719.2023680396983
167,42,20,F,1,4,159.0,7,4,high,4 + 9 - 7 + 8 + 5,19,19,20,21,2721.4052672000253,2723.433507699985,2724.9485617000028,2729.9671927000163,2730.635372699995,2730.635378099978,2732.1517112000147,2733.1687823000248,q,19,0.6681799999787472,1,+10,858,5.2980313141362565,0.8898495266350643,-0.1760589970581079,2537845.0,15.75950684872247,0.30007320820639105,1.1762369576859504,2541379.0,6.619866970882212,0.8176151353301719,-0.17561065124060038,2601804.0,2725.2803680396983,2721.746368039698,2785.7053680396984
168,42,20,F,1,4,160.0,8,1,low,5 + 9 - 1 + 1 + 1,15,15,17,13,2734.685522500018,2736.7117520999745,2738.2267869000207,2743.244671399996,2743.8353351000114,2743.835340699996,2745.3520469000214,2746.3688697000034,q,15,0.5906637000152841,1,+1,859,-17.52001387890789,0.3746799925245581,0.11374537656577743,2551124.0,4.7204901910479515,8.699464507692824,10.400436281774338,2554657.0,-3.936789352597504,0.39624737042607094,0.047982382070538954,2561781.0,2738.5583680396985,2735.025368039698,2745.6823680396983
169,42,20,F,1,4,161.0,9,2,high,7 + 5 + 1 - 1 - 8,4,2,3,4,2747.885699899984,2749.9121218000078,2751.427167000016,2756.445443400007,2757.0833528999938,2757.083358199976,2758.5994994000066,2759.6160557999974,e,4,0.6379094999865629,1,+10,869,-26.022350199628104,-0.21402729136873155,0.41659845727662415,2564324.0,-7.765793308900161,-0.10527647371758952,-3.326003196863436,2567857.0,11.781138186566999,-1.3292866464977315,-1.0514882451898773,2641804.0,2751.7583680396983,2748.2253680396984,2825.7053680396984
170,42,20,F,1,4,162.0,10,4,high,5 + 9 - 4 + 7 + 6,23,25,23,24,2761.132769500022,2763.159173800028,2764.674440599978,2769.692800700024,2770.4113321999903,2770.411337300029,2771.927707900002,2772.944724600005,w,23,0.7185314999660477,1,+10,879,-24.73532954404586,-0.1553329962599701,0.3010693318587734,2577571.0,9.453714248560363,0.07934944568174629,0.00265415673249203,2581105.0,-28.592494430459254,0.2579314066425513,0.10395815269831088,2655172.0,2765.0063680396984,2761.4723680396983,2839.0733680396984
171,42,20,F,1,4,163.0,11,4,low,3 + 8 - 7 + 9 - 5,8,8,9,7,2774.4610806999844,2776.4861300999764,2778.0012307,2783.01943689998,2783.8592818999896,2783.8592873999733,2785.375424799975,2786.3921848000027,q,8,0.8398450000095181,1,+1,880,9.720457755183197,-0.7674160239693615,0.0423673528223274,2590899.0,-9.774949083092439,0.19448354461644257,-0.04572581586070967,2594432.0,-12.579061495333551,3.6486979943770432,4.2438400587954845,2707852.0,2778.333368039698,2774.8003680396982,2891.753368039698
172,42,20,F,1,4,164.0,12,1,high,3 + 1 + 1 + 8 - 1,12,13,14,12,2787.9088782999897,2789.9360496000154,2791.4513022999745,2796.469770000025,2797.4513797999825,2797.4513857000275,2798.9685744000017,2799.9859236999764,e,12,0.9816097999573684,1,+10,890,2.087230358220049,-0.06272913622930343,0.024335020885054126,2604348.0,0.5829443056544519,-0.052171044940132916,-0.01320327690346712,2607882.0,-8.815128020284781,0.298000304694483,-0.03116141206889167,2615398.0,2791.7833680396984,2788.2493680396983,2799.2993680396985
173,42,20,F,1,4,165.0,13,1,high,4 + 7 + 1 - 1 - 1,10,11,10,9,2801.5025743999868,2803.526825400011,2805.041991000005,2810.060236999998,2810.6993081999826,2810.699313500023,2812.215772400028,2813.23275570001,w,10,0.6390711999847554,1,+10,900,-4.986816386123437,-0.14203818669827406,-0.12829810904988403,2617938.0,-21.493652774189115,-0.15603536497905512,-0.03689048408160578,2621472.0,-6.73516244302158,-0.6153956610120721,0.037002353708767366,2628645.0,2805.3733680396986,2801.8393680396985,2812.5463680396983
174,42,20,F,1,4,166.0,14,2,low,8 + 1 + 1 + 9 - 4,15,16,15,14,2814.7495053000166,2816.777843800024,2818.292902700021,2823.310837100027,2823.8593155000126,2823.8593208999955,2825.3758617999847,2826.392671199981,w,15,0.5484783999854699,1,+1,901,14.04355066302874,-1.0786446384892372,-0.03831541996898058,2631189.0,11.648933933693009,0.018062869688475924,-0.08304515935106727,2474939.0,30.475012038421987,-0.47698862933937747,-0.031277380959842116,2668332.0,2658.840368039698,2815.090368039698,2852.2333680396982
175,42,20,F,1,4,167.0,15,4,low,5 + 8 - 4 - 6 + 9,12,14,13,12,2827.909325000015,2829.937747000018,2831.45287009998,2836.4711935999803,2837.2273415999957,2837.227347999986,2838.743718200014,2839.760712600022,e,12,0.7561480000149459,1,+1,902,-15.444767472280033,-1.4982858227448168,0.1456075901597249,2644349.0,-4.828054393076318,0.31998998195337824,-0.03783203396776513,2647883.0,-20.21315549776828,-0.6137724765997099,-0.061545650984876854,2841508.0,2831.784368039698,2828.2503680396985,3025.409368039698
176,42,20,F,1,4,168.0,16,2,low,5 - 8 + 7 + 1 + 1,6,8,7,6,2841.2773596000043,2843.3041571999784,2844.819268200022,2849.8375999000277,2850.3872405000147,2850.387246099999,2851.903914100025,2852.9209838000243,e,6,0.5496405999874696,1,+1,903,13.035331474785895,-0.8442989568306771,0.051298246704712946,2657716.0,-9.817121420236521,0.05959680504977083,-0.02666647212318929,2634723.0,-47.62016062120122,0.41776700329131966,12.311919509489254,2721389.0,2818.6243680396983,2841.6173680396982,2905.2903680396985
177,42,20,F,1,4,169.0,17,1,low,6 + 9 + 1 + 1 - 1,16,15,14,16,2854.4373310999945,2856.466418600001,2857.981553299993,2862.9987012000056,2863.4752690999885,2863.475274599972,2864.991612199985,2866.0083578000194,e,16,0.4765678999829106,1,+1,904,5.7073318740355,-1.3604202388613098,0.01947466294551381,2670877.0,29.54600559918502,-0.0011386273742965969,-0.09481396552523247,2674411.0,29.283855287528304,0.1462124997307006,0.10317837938619667,2681420.0,2858.3123680396984,2854.7783680396983,2865.3213680396984
178,42,20,F,1,4,170.0,18,1,high,3 + 1 + 8 + 1 + 1,14,13,14,16,2867.5250205000048,2869.550730500021,2871.065954899997,2876.0838604000164,2876.859287100029,2876.859295599977,2878.375669299974,2879.3929246999905,w,14,0.7754267000127584,1,+10,914,19.880579540962223,-0.02845976022320862,-0.1756542270589032,2683962.0,12.859838360475898,-0.1794013198410127,0.0184758799939162,2687495.0,10.714694010356244,-1.4319959297050522,0.06741327140922082,2694804.0,2871.3963680396982,2867.8633680396983,2878.7053680396984
179,42,20,F,1,4,171.0,19,4,high,4 + 8 + 9 - 3 + 7,25,26,25,24,2880.909678000025,2882.934129100002,2884.449306400027,2889.4672531000106,2889.9072199999937,2889.9072254999774,2891.423525499995,2892.440630100027,w,25,0.4399668999831192,1,+10,924,-4.008693771196652,0.25425821557821804,-0.06704318946048637,2697345.0,-6.021675569134921,0.31372297960432816,-0.16327004904811626,2700879.0,-6.415022795349227,0.10167899172810912,3.3969740917020075,2921307.0,2884.7803680396983,2881.246368039698,3105.208368039698
180,42,20,F,1,4,172.0,20,2,high,6 + 1 + 8 + 5 - 1,19,19,18,17,2893.957952400029,2895.9916907000006,2897.506823099975,2902.525385599991,2903.443242700014,2903.4432477999944,2904.960013300006,2905.9763309999835,q,19,0.9178571000229568,1,+10,934,0.017186036575186137,-0.18339038030481447,-0.26875081869150685,2710403.0,12.78681639233698,-0.06160013810673126,4.032643678912253,2713936.0,5.417681017482016,1.5773264789734158,9.402649010269688,2734634.0,2897.8373680396985,2894.304368039698,2918.5353680396984
181,42,20,F,1,4,173.0,21,2,low,5 + 9 - 8 + 1 + 1,8,9,7,8,2907.493155599979,2909.520313800021,2911.036323999986,2916.054083800001,2916.6832903000177,2916.6832958000014,2918.205923300004,2919.2224900000147,e,8,0.6292065000161529,1,+1,935,-58.19969364537046,0.044631488174389666,-2.5440755277323657,2723932.0,0.17954967885700945,-0.4341457989728523,-0.1280465656934029,2661249.0,-4.641378249869394,-0.8665697325787916,0.30598952197312057,2747964.0,2845.150368039698,2907.833368039698,2931.8653680396983
182,42,20,F,1,4,174.0,22,2,low,6 + 1 + 1 + 7 - 9,6,8,6,4,2920.7397514000186,2922.764479900012,2924.279568500002,2929.297657200019,2930.0192972000223,2930.019303000008,2931.535723900015,2932.5524594999733,w,6,0.72164000000339,1,+1,936,15.059728146235972,0.20707509633487398,-8.257866139069728,2737176.0,15.06960159553606,0.2570182396854084,-0.2943836129174713,2727466.0,-23.45436693439643,-0.8507447601965366,0.7098241798263683,2894011.0,2911.3673680396982,2921.0773680396983,3077.9123680396983
183,42,20,F,1,4,175.0,23,3,high,2 - 4 + 9 + 7 + 1,15,16,15,13,2934.0691742000054,2936.227908700006,2937.743023900024,2942.7611582999816,2943.4119411000283,2943.411946800013,2944.9283865999896,2945.9455279000103,w,15,0.6507828000467271,1,+10,946,-6.505656600815062,0.3325811333085511,-0.515531630450182,2750639.0,24.495546125006616,-0.023561501540327434,-1.203930405978785,2754173.0,10.922548061901633,1.8453712095356005,-0.4996440163486091,2787756.0,2938.074368039698,2934.5403680396985,2971.657368039698
184,42,20,F,1,4,176.0,24,1,low,6 + 1 + 8 + 1 + 1,17,16,17,15,2947.462205799995,2949.4905670000007,2951.0057193000102,2956.0239715999924,2956.427285099984,2956.427290600026,2957.943581999978,2958.960390800028,w,17,0.403313499991782,1,+1,947,-16.47503170024094,-0.8032341485531482,1.4936986078999037,2763902.0,7.666194856729831,0.8103398773236976,-0.3789726088190508,2767435.0,-8.256622683384201,1.502062414986018,-0.032227571548880896,2774372.0,2951.3363680396983,2947.8033680396984,2958.273368039698
185,42,20,F,1,4,177.0,25,3,high,3 + 1 + 8 - 5 + 6,13,15,14,13,2960.476732900017,2962.504718600016,2964.019503700023,2969.03780250001,2969.811248300015,2969.8112534999964,2971.32741909998,2972.34410029999,e,13,0.7734458000049926,1,+10,957,2.0842013184694395,-0.058566563602720834,-0.19843343663292723,2776916.0,-49.46631428177951,0.6163758817752774,0.05329054354302909,2780449.0,-24.07643435637406,0.2056720481515799,-0.6250247851533794,2801420.0,2964.3503680396984,2960.8173680396985,2985.3213680396984
186,42,20,F,1,4,178.0,26,3,high,5 + 6 - 4 - 1 + 8,14,14,16,15,2973.8605628000223,2975.8854482999886,2977.400633100013,2982.418674000015,2983.475189000019,2983.475194300001,2984.9914926000056,2986.0088908000034,q,14,1.0565150000038557,1,+10,967,-3.423463289554034,0.3910354488654342,0.05426419458236609,2790296.0,48.719455470098495,0.005022245080185783,-0.036320114187879726,2793830.0,-19.570159572097506,0.3661199693360242,0.06474982153729858,2814995.0,2977.7313680396983,2974.197368039698,2998.8963680396982
187,42,20,F,1,4,179.0,27,3,high,3 + 1 + 6 - 8 + 9,11,13,12,11,2987.526823399996,2989.5518048999947,2991.0668681000243,2996.084900100017,2997.051331399998,2997.051337099984,2998.5674859000137,2999.5845173000125,e,11,0.9664312999811956,1,+10,977,7.617235414670025,0.9776408248811395,-0.09537236072521416,2803963.0,0.9282272881653064,2.8674077022073905,-0.014927373795260879,2807496.0,-20.264186638507784,0.015208074250312897,-0.009436468618385208,2828403.0,2991.3973680396984,2987.8643680396985,3012.304368039698
188,42,20,F,1,4,180.0,28,3,low,3 + 8 + 1 + 5 - 9,8,9,7,8,3001.1011678000214,3003.1286766999983,3004.643480299972,3009.661439399992,3010.4591395999887,3010.4591447000275,3011.9757735999883,3012.9924321,e,8,0.7977001999970526,1,+1,978,-10.970559527743852,0.8390418742000065,0.2562732146901525,2817540.0,3.5931891560759883,0.23365553666925631,-1.6806542705251095,2873735.0,-19.428221375241083,5.1187513943720475,7.282766905359663,2854571.0,3057.6363680396985,3001.4413680396983,3038.4723680396983
189,42,20,F,1,4,181.0,29,4,high,9 + 7 - 5 + 8 + 6,25,27,25,24,3014.509092400025,3016.5353149999864,3018.050502000028,3023.0688371,3023.5631378000253,3023.563143200008,3025.0794903999777,3026.0966400000034,w,25,0.494300700025633,1,+10,988,-10.351272900412596,0.22231089839881246,0.042210303669665716,2830947.0,15.7498086889764,-0.2539036099020171,0.02094475346736946,2834480.0,,,,,3018.3813680396984,3014.8483680396985,
190,42,20,F,1,4,182.0,30,3,high,8 - 7 + 9 + 1 + 4,15,14,15,16,3027.613239599974,3029.6410822999896,3031.1563210000168,3036.174533499987,3036.6271152999834,3036.627120300021,3038.1436740999925,3039.1606843000045,w,15,0.4525817999965511,1,+10,998,7.214430866751632,0.4776401014313656,0.1391501955357013,2844052.0,-38.23197059411155,-0.1022453706096087,-0.15760014001541922,2847585.0,5.781667449008323,-0.29095100012725705,-0.11942942052014338,2880747.0,3031.4863680396984,3027.9533680396985,3064.648368039698
191,42,20,F,1,4,183.0,31,1,high,2 + 9 + 1 + 1 + 1,14,12,13,14,3040.677384199982,3042.70330980001,3044.218488099985,3049.236341200012,3049.7152383999783,3049.715244000021,3051.231610500021,3052.248761900002,e,14,0.4788971999660134,1,+10,1008,7.773309945984181,1.0321757134436549,-1.6991283488518332,2857114.0,13.640698947388575,-1.2565768665446564,9.35625570689563,2860647.0,13.101116432716983,-0.3238844457284964,-0.31834179498097903,2867660.0,3044.5483680396983,3041.0153680396984,3051.561368039698
192,42,20,F,1,4,184.0,32,3,low,2 + 1 + 9 - 5 + 6,13,13,14,11,3053.765035999997,3055.7909287000075,3057.305953199975,3062.325000700017,3062.803161700024,3062.8031674000085,3064.3196048000245,3065.3363642999902,q,13,0.4781610000063665,1,+1,1009,-1.4456945090845965,0.7767172644152618,1.467553074741197,2870202.0,,,,,,,,,,3054.1033680396986,
193,42,20,F,1,4,185.0,33,2,high,4 + 1 + 9 + 1 - 6,9,8,9,7,3066.8529972999822,3068.881501300028,3070.396346300025,3075.414456299972,3076.0670535999816,3076.0670587000204,3077.5833297999925,3078.600331399997,w,9,0.652597300009802,1,+10,1019,-10.16954658237253,0.5852308089715743,1.8409507921589494,2883292.0,-51.38171979437205,0.5419835665694683,0.39573102041380004,2886825.0,-0.9865175205497998,0.01740256985346722,-0.021749107392161626,2947832.0,3070.726368039698,3067.1933680396983,3131.7333680396982
194,42,20,F,1,4,186.0,34,1,low,7 + 1 + 4 + 1 - 1,12,12,14,13,3080.1169759000186,3082.143511399976,3083.658652400016,3088.6783888000064,3089.2830308999983,3089.283036799985,3090.799883099972,3091.816842500004,q,12,0.6046420999919064,1,+1,1020,-12.818450302948563,-0.6873300724317168,0.6502926593467233,2896554.0,-1.6417714502386502,0.5545442786866435,-1.1454477897186353,2900089.0,10.430838701454515,-0.22742661316043566,-0.381810194454566,2907227.0,3083.9903680396983,3080.4553680396984,3091.128368039698
195,42,20,F,1,4,187.0,35,4,low,4 + 7 + 9 - 5 + 7,22,23,22,24,3093.333481199981,3095.3607939999783,3096.875648699992,3101.893958700006,3103.363132999977,3103.36313860002,3104.879638899991,3105.896549900004,w,22,1.4691742999712003,1,+1,1021,-0.15117367285500372,0.68419080685078,-0.6920865331943928,2909772.0,-4.198497428960138,0.37450954879162346,0.9829918994304787,2913304.0,,,,,3097.2053680396984,3093.6733680396983,
196,42,20,F,1,4,188.0,36,1,high,8 + 1 + 1 + 1 - 4,7,5,8,7,3107.413239400019,3109.4383762999787,3110.953429199988,3115.972021900001,3116.715165100002,3116.715170699986,3118.2315092000063,3119.2485508000245,e,7,0.7431432000012137,1,+10,1031,18.733323005591885,3.3671373453936013,-3.371976382113111,2923849.0,-38.134435743239635,-0.33237708727696624,-0.42355164601959716,2927383.0,-31.144461169748805,-1.4103451073434634,-0.01094805493589246,2934659.0,3111.284368039698,3107.7503680396985,3118.5603680396985
197,42,20,F,1,4,189.0,37,2,low,2 + 9 - 4 + 1 + 1,9,11,9,8,3120.7652475999785,3122.7924944999977,3124.30757200002,3129.326097399986,3129.8750703000114,3129.875075399992,3131.4043381999945,3132.4213107000105,w,9,0.5489729000255466,1,+1,1032,-5.07683428534893,-0.31460826833430655,-0.07321417510808947,2937203.0,2.7819979827243166,-0.16586892324041713,0.302426805236681,2740709.0,-15.699668229647497,-1.3567444029252744,0.2900161149109688,2964099.0,2924.610368039698,3121.1043680396983,3148.0003680396985
198,42,20,F,1,5,190.0,0,2,high,4 + 9 + 1 - 7 - 1,6,5,8,6,3136.990427199984,3139.017033900018,3140.5321511999937,3145.5504629000206,3146.154995699995,3146.155001199979,3147.671418700018,3148.6892268999945,e,6,0.6045327999745496,1,+10,1042,18.444786898244512,0.3608359680308677,-0.12127849517619893,2953427.0,0.21478055603361312,0.580255628850896,0.3930573269462112,2956961.0,,,,,3140.862368039698,3137.3283680396985,
199,42,20,F,1,5,191.0,1,1,low,4 + 8 + 1 - 1 - 1,11,9,11,13,3150.206092200009,3152.2325412000064,3153.7471401999937,3158.765475000022,3159.4750527999718,3159.475058000011,3160.9912191000185,3162.008336299972,e,13,0.7095777999493293,0,+0,1042,9.376473785556392,0.42179671573214783,-0.881789751067318,2966643.0,20.553462062875646,0.3118130546092912,-0.0345617423521043,2970176.0,,,,,3154.0773680396983,3150.5443680396984,
