,id,age,sex,cued,block,trial,trialinblock,efflev,rewlev,calc,corAns,option1,option2,option3,tstart,ITI1Time,probTime,respTime,selectTime,ITI2Time,fbTime,ITI3Time,key_press,chosenAns,RT,acc,feedback,total_points,cuescr,cuecor,cuezyg,cuetime,probscr,probcor,probzyg,probtime,fbscr,fbcor,fbzyg,fbtime,probtime_c,cuetime_c,fbtime_c
0,43,20,f,0,Practice,,0,1,0,4 + 1 + 9 + 1 + 1,16,16,14,15,353.6158134000143,,353.61581540002953,358.6435063999961,360.09189790004166,360.0919042000314,361.6090536999982,362.629825800017,q,16,1.4483915000455454,1,Correct,0,,,,,-13.633622424965669,-0.6867169794529602,-4.546185297630683,120236.0,-0.12062398544633979,-0.4365163999121595,-0.024334173539270587,128222.0,353.11593518645765,,361.10193518645764
1,43,20,f,0,Practice,,1,1,0,3 + 1 + 1 + 8 - 1,12,11,12,10,364.1466243000468,,364.14662780001527,369.1674577000085,369.78774680005154,369.7877535000444,371.305104500032,372.3225882000406,w,12,0.62028910004301,1,Correct,0,,,,,-12.007206263625179,-0.30634269418677196,-0.4339529261838715,130760.0,1.0330394154130538,0.5361091979287451,-0.21211253046730416,137915.0,363.6399351864576,,370.7949351864576
2,43,20,f,0,Practice,,2,2,0,8 + 1 + 6 + 1 - 4,12,12,10,11,373.8410509000532,,373.84105909999926,378.8608899000101,379.5958260000334,379.595832400024,381.113278600038,382.1323089000071,q,12,0.734936100023333,1,Correct,0,,,,,4.209235711356179,-0.09800463378282309,-1.2403528426997283,140453.0,-8.713952015140759,-0.2103686133951559,0.08205362239914038,147724.0,373.33293518645763,,380.60393518645765
3,43,20,f,0,Practice,,3,2,0,9 + 4 - 6 + 1 - 1,7,7,6,5,383.6502671000199,,383.650270800048,388.6696970000048,390.3000062000356,390.3000126000261,391.8165043000481,392.8335326000233,q,7,1.6303092000307515,1,Correct,0,,,,,-29.29341911142117,0.023398308259964473,-0.8337523629393537,150262.0,-17.466066849893505,-0.3005168172102959,-0.6590031452938261,158426.0,383.14193518645766,,391.30593518645765
4,43,20,f,0,Practice,,4,3,0,9 + 3 - 5 + 6 + 7,20,21,20,22,394.3503766000504,,394.3503804000211,399.3696194000077,400.25964860001113,400.25965400005225,401.7765603000298,402.7934921000269,w,20,0.8900292000034824,1,Correct,0,,,,,35.073904384504615,-0.21174600681304323,0.03359415524763065,160962.0,16.492597690737014,0.29320939973927374,0.14204079914097534,168386.0,393.8419351864576,,401.2659351864576
5,43,20,f,0,Practice,,5,3,0,2 + 1 + 9 - 7 + 6,11,10,9,11,404.3109355000197,,404.31093930004863,409.3296398000093,410.2677413000493,410.26774830004433,411.7845630000229,412.8024362000288,e,11,0.9381015000399202,1,Correct,0,,,,,4.863979038657284,0.4152332280422977,-0.008435270865382094,170922.0,22.789312803248052,0.9679740679014062,0.5365301837454526,178394.0,403.8019351864576,,411.2739351864576
6,43,20,f,0,Practice,,6,4,0,4 + 8 + 5 - 3 + 7,21,21,23,22,414.31959110003663,,414.3195948000066,419.33992330002366,419.98791190003976,419.9879181000288,421.50535839999793,422.52357090002624,q,21,0.6479886000161059,1,Correct,0,,,,,14.69422701099156,0.022501101773482635,-0.29502748121702194,180932.0,-2.228244336900108,0.43530406384183173,1.19161500028555,188116.0,413.8119351864576,,420.99593518645764
7,43,20,f,0,Practice,,7,4,0,5 + 8 - 4 + 6 + 9,24,23,24,22,424.0409276999999,,424.0409313000273,429.060644400015,431.8678928000154,431.8678995000082,433.38523480005097,434.4035225000116,w,24,2.8072484000003897,1,Correct,0,,,,,5.184852551273547,0.19645830345212767,0.40217715406522947,190653.0,16.205252454678785,2.6299370819588237,7.7772035917506255,199995.0,423.5329351864576,,432.8749351864576
8,43,20,f,1,0,0.0,0,2,low,3 + 9 - 1 - 5 + 1,7,5,6,7,640.80919,643.1781874000444,644.6935452000471,649.7118992000469,650.2972206000122,650.2972261999967,651.8135570000159,652.8310823000502,e,7,0.5853213999653235,1,+1,1,-1.0309308275311704,0.9689944457401998,1.6408923635200097,407770.0,6.788146285596651,-0.05571251889598816,1.0710851416901912,411303.0,10.85848529266368,0.16581544773395285,-0.18885841515424806,418422.0,644.1829351864576,640.6499351864576,651.3019351864576
9,43,20,f,1,0,1.0,1,4,low,7 + 6 + 8 - 4 + 5,22,23,21,22,654.3479729000246,656.3862312000128,657.9014609000296,662.9199406999978,664.8651911000488,664.8651970000356,666.3817830000189,667.3988038000534,e,22,1.945250400051009,1,+1,2,5.758285448067332,1.6434427427356013,5.922569093830184,420977.0,10.382314568769958,-0.11162472768736187,0.6855908740388976,424511.0,4.327877842093118,-0.9542048042472508,-2.599367836346115,432990.0,657.3909351864577,653.8569351864576,665.8699351864576
10,43,20,f,1,0,2.0,2,3,low,8 + 5 + 1 - 7 + 9,16,14,17,16,668.9158262000419,670.9530595000251,672.4682955000317,677.4885154000367,678.0172816000413,678.0172870000242,679.5339542000438,680.5508724999963,e,16,0.5287662000046112,1,+1,3,4.15274434764194,0.033889948331703,1.4001487556618493,435544.0,-1.4213947459254812,-0.023090665683591194,-0.4781851957359802,439080.0,-4.897784586433355,-0.488782777711537,-2.2383712560654843,446142.0,671.9599351864576,668.4239351864576,679.0219351864577
11,43,20,f,1,0,3.0,3,4,high,5 + 7 - 4 - 6 + 9,11,13,12,11,682.0676161000156,684.1396455000504,685.6549301000196,690.673854200053,691.8091566000367,691.8091625000234,693.325992500002,694.3431243000086,e,11,1.1353023999836296,1,+10,13,17.258761553378722,0.20036520651122047,-0.4015594500084436,448731.0,-38.357197686049204,0.010162559112564029,-0.05429280157983474,452265.0,-33.947951191670285,-0.16003418906167077,0.7413931386197934,459934.0,685.1449351864576,681.6109351864576,692.8139351864577
12,43,20,f,1,0,4.0,4,1,high,5 + 8 - 1 + 1 + 1,14,12,16,14,695.8598499000072,697.9343935000361,699.4494754000334,704.4688627000432,708.2412204000284,708.241227200022,709.7579107000493,710.7752706000465,e,14,3.7723576999851502,1,+10,23,11.188413465415342,1.283318405538828,2.525385616091599,462525.0,1.1322061291189343,0.0471049200797693,0.6262300416779132,466060.0,-10.595629420202973,-0.71779676916668,-2.73161666229828,476366.0,698.9399351864577,695.4049351864576,709.2459351864576
13,43,20,f,1,0,5.0,5,1,low,7 + 1 + 6 + 1 + 1,16,16,18,17,712.2921159000252,714.3193988000276,715.8354647000087,720.8535161000327,721.7372019000468,721.7372078000335,723.2538549000164,724.2705968000228,q,16,0.8836858000140637,1,+1,24,20.576443111661455,0.10193374320261173,-1.0365689892321406,478910.0,5.9139911350803835,0.304799098544273,-0.4614964065150815,482445.0,-6.577103433506833,-1.8971133298968472,-4.679902257566912,489862.0,715.3249351864577,711.7899351864577,722.7419351864577
14,43,20,f,1,0,6.0,6,3,low,4 + 7 - 3 + 5 - 1,12,13,12,11,725.7873523000162,727.8132135000196,729.328396100027,734.3467758000479,737.4091296000406,737.4091353000258,738.9256972000003,739.9429227000219,w,12,3.062353799992706,1,+1,25,18.634611993714383,-0.8342518287911029,-1.351305010430142,492404.0,14.251649749138885,0.0017550504535885914,0.6393577140773168,495938.0,-1.9929855315545737,-4.394969274435703,-10.130649581456382,505534.0,728.8179351864576,725.2839351864576,738.4139351864576
15,43,20,f,1,0,7.0,7,3,high,6 + 7 + 8 + 1 - 9,13,14,15,13,741.4598390000174,743.4894889999996,745.0052802000428,750.0235332000302,754.1130895000533,754.1130955000408,755.6298579000286,756.6469602000434,e,13,4.089556300023105,1,+10,35,7.66235571366304,0.03282544627113326,0.604102972113195,508080.0,-26.292182968994354,0.06318776923626057,0.17585900946934796,511615.0,-28.99239199806457,-0.5306921440946937,-3.445029451161443,522238.0,744.4949351864576,740.9599351864576,755.1179351864577
16,43,20,f,1,0,8.0,8,1,low,3 + 1 + 1 + 9 - 1,13,14,13,12,758.1640760000446,760.1916827000096,761.7069206000306,766.7258572000428,767.1531499000266,767.153155100008,768.6693736000452,769.686054400052,w,13,0.4272926999838091,1,+1,36,-3.218406107955742,-0.019906997177518093,-0.1204710207412214,524782.0,30.228045691126717,0.09751853869583682,0.14543878015942546,528316.0,11.748091263900431,-1.6102809873535282,-2.9416863092190453,535277.0,761.1959351864576,757.6619351864576,768.1569351864576
17,43,20,f,1,0,9.0,9,4,high,6 + 7 + 9 - 3 + 5,24,23,24,22,771.2029259999981,773.2302955000196,774.7452438000473,779.7640576999984,781.3531512000482,781.3531565000303,782.8696987000294,783.8868613000377,w,24,1.5890935000497848,1,+10,46,-32.03090706846544,1.089888465918409,4.870044201637514,537821.0,14.141420207925917,-1.9729856731952062,-7.310413511368369,541355.0,22.297800874061817,-3.6305609595707917,-6.254391465782389,549478.0,774.2349351864576,770.7009351864576,782.3579351864576
18,43,20,f,1,0,10.0,10,4,low,7 + 6 - 4 + 9 - 5,13,12,14,13,785.4034331000294,787.4289200000349,788.9442188999965,793.9647440999979,794.4810815000092,794.4810867000488,795.9974507000297,797.0145342000178,e,13,0.5163374000112526,1,+1,47,34.684984981904066,0.9871031452466874,2.4045400975652305,552020.0,7.236965085704597,0.02241109321212509,-0.3594045493839806,555555.0,-10.960245032413667,0.029302332474275605,-0.33316112869199976,562605.0,788.4349351864576,784.8999351864576,795.4849351864576
19,43,20,f,1,0,11.0,11,4,high,8 + 3 - 4 + 5 + 9,21,23,21,22,798.5319318000111,800.5575127000338,802.0727948000422,807.0910719000385,808.3211239000084,808.3211292000487,809.8377394000418,810.8551600000355,q,23,1.2300519999698736,0,+0,47,12.292853290919245,0.05987016711917592,-0.6157929505583057,565149.0,-2.7409543969894816,0.18302759925597067,0.23587021522575746,568682.0,31.817550512166626,-0.3674683288352365,-0.9528753183814036,606253.0,801.5619351864576,798.0289351864576,839.1329351864576
20,43,20,f,1,0,12.0,12,3,high,2 + 9 + 1 - 5 + 7,14,12,14,15,812.3719299000222,814.3959007000085,815.9110286000068,820.9295101000462,821.3851139000035,821.38511870004,822.9015292000258,823.91902760003,w,14,0.4556037999573163,1,+10,57,5.36770315681736,-0.34374942203847914,-0.03244885967832811,578987.0,15.320352062997292,0.2680272951974034,0.2812347828727826,582520.0,-35.55157512236762,-0.5928280297990907,-0.26396170033566735,589510.0,815.3999351864576,811.8669351864576,822.3899351864576
21,43,20,f,1,0,13.0,13,4,low,5 + 8 - 6 + 7 + 4,18,19,17,18,825.4364642000291,827.4609493000316,828.9758841000148,833.9944135000114,838.1290542000206,838.1290595000028,839.6455851000501,840.6622884999961,e,18,4.134640700009186,1,+1,58,21.4763427639447,0.020115014649487506,0.13872763915185038,592052.0,-10.350225521326571,0.2816049107885852,-0.026313077977939248,595585.0,-20.248275496074566,-0.49220573718928584,-1.6400489644740466,619462.0,828.4649351864576,824.9319351864576,852.3419351864576
22,43,20,f,1,0,14.0,14,4,high,2 + 9 - 6 + 8 - 4,9,11,9,7,842.179121299996,844.2032915000455,845.7189165000455,850.7372840000317,851.3371445000521,851.337149500032,852.8542791000218,853.8716534000123,w,9,0.5998605000204407,1,+10,68,-36.81725805952149,0.15792101806546688,-0.01851837199144324,608794.0,11.388819224807936,-0.1296614233052149,-0.06009109658535028,612328.0,-15.751337418469427,-0.7234179429392431,0.2744680763675058,675973.0,845.2079351864576,841.6739351864576,908.8529351864576
23,43,20,f,1,0,15.0,15,1,high,7 - 1 + 9 + 1 - 1,15,13,15,14,855.3884624000057,857.4117712000152,858.9272922000382,863.9460201000329,864.9130279000383,864.9130329000182,866.429652700026,867.4469363000244,w,15,0.9670078000053764,1,+10,78,21.85778301708006,-0.4146792527144618,0.031441577310278745,622002.0,5.755412287669648,0.3418716547561118,-0.7176443427938701,625537.0,15.405292057311904,0.12243311214429609,1.3537192612324058,633037.0,858.4169351864576,854.8819351864576,865.9169351864576
24,43,20,f,1,0,16.0,16,2,high,9 + 4 - 6 + 1 - 1,7,9,7,8,868.964478000009,871.0395063000033,872.5544457000215,877.5736041000346,878.1609966999968,878.1610023000394,879.6775370000396,880.6947512000334,e,8,0.5873925999621861,0,+0,78,11.08272570705815,-0.08372862326050035,-0.22166856530970414,635630.0,32.21408858339651,-0.07461531161525903,0.32871579700280895,639164.0,-18.91597255726085,-0.4553928496106119,0.12372548751439938,662741.0,872.0439351864576,868.5099351864576,895.6209351864576
25,43,20,f,1,0,17.0,17,2,low,7 + 5 + 1 - 1 - 8,4,4,3,2,882.2112457000185,884.2389391000033,885.7543440000154,890.7729732000153,894.6170899000135,894.6170951999957,896.1336484000203,897.1505096000037,q,4,3.844116699998267,1,+1,79,40.91672591806494,-0.08670013701664869,0.2594105667495046,648829.0,73.382183195505,0.5484595209941188,-0.7107058168671596,652363.0,26.173734154695893,-0.24205151538596903,-0.12482626139791897,689565.0,885.2429351864577,881.7089351864576,922.4449351864577
26,43,20,f,1,0,18.0,18,4,low,6 + 9 - 7 + 8 - 5,11,11,13,12,898.6672713000444,900.6931710000499,902.208221100038,907.2267422000295,907.848975800036,907.8489813000195,909.3656637000386,910.3822532000486,q,11,0.6222336000064388,1,+1,80,-2.308565052195714,0.3368423885114069,0.042275544155643274,665284.0,3.629273085962815,0.14024582324575663,0.09390945405765505,668817.0,31.918596773007067,0.09730854587012017,-0.2692322734368142,756573.0,901.6969351864576,898.1639351864576,989.4529351864576
27,43,20,f,1,0,19.0,19,2,high,7 + 1 + 9 - 1 - 8,8,6,8,7,911.898726400046,913.9225168999984,915.4376880000344,920.4561245000224,921.441044700041,921.4410499000224,922.9575337000424,923.9746667,w,8,0.984920200018678,1,+10,90,19.901016460882236,-0.3250835079931065,0.20540839767153996,678513.0,39.56782479560388,0.08965622886945956,-0.01485054345580128,682046.0,3.6716606845738182,-0.8916453724255087,-2.3337265167681087,729525.0,914.9259351864577,911.3929351864576,962.4049351864576
28,43,20,f,1,0,20.0,20,3,low,7 - 6 + 8 + 1 + 7,17,17,15,16,925.4910669000236,927.5163828000076,929.0315876000096,934.0502737000352,934.768931800034,934.7689372000168,936.2852911000372,937.3028984999984,q,17,0.71865809999872,1,+1,91,-7.086640990587192,0.2618115593240842,-0.16484879027775778,692106.0,-13.78624924398039,0.10598047125185728,-0.07592507151498595,695641.0,41.455920615221466,0.3212238072824185,0.17179915637891963,702892.0,928.5209351864576,924.9859351864576,935.7719351864577
29,43,20,f,1,0,21.0,21,3,low,4 + 1 + 8 + 9 - 5,17,18,17,19,938.819658500026,940.843598300009,942.3587930000504,947.3768313000328,948.1209098999972,948.120915000036,949.6372796000214,950.6542447000392,w,17,0.7440785999642685,1,+1,92,13.026227329856775,-0.8453170097642317,-0.5513303257862336,705434.0,-6.719708543297733,-0.7460355947080402,1.2767687748904653,708967.0,9.6016299255239,-0.023571050458486287,-0.0982229720392489,716244.0,941.8469351864576,938.3139351864576,949.1239351864576
30,43,20,f,1,0,22.0,22,2,high,4 + 9 + 1 - 7 - 1,6,8,6,5,952.17106600001,954.1964524000068,955.7114700000384,960.73004330002,961.400941400032,961.4009463000112,962.9178037000238,963.9349801000208,w,6,0.670898100011982,1,+10,102,22.156435850751937,0.26424723482853274,-0.1250149764485844,718787.0,-27.62478387800676,-0.26154611552255247,-0.03759705456482365,722320.0,-15.76334961588047,-0.30179161858728465,-0.12256246944003157,783388.0,955.1999351864577,951.6669351864576,1016.2679351864576
31,43,20,f,1,0,23.0,23,3,high,5 + 1 + 7 - 8 + 6,11,9,11,13,965.4516220000224,967.4799503000104,968.9951663000392,974.0136514000478,975.1290189000428,975.1290245000272,976.6455514000264,977.662678599998,w,11,1.1153674999950454,1,+10,112,-14.631822092308475,0.26020063822323136,-0.13645789033162492,732070.0,5.205316032590641,0.20596287764952992,-0.0897238681050534,735604.0,21.98801854981527,-0.9993469961174206,-5.055016786151711,743253.0,968.4839351864576,964.9499351864577,976.1329351864576
32,43,20,f,1,0,24.0,24,4,high,4 + 9 - 7 + 8 + 5,19,19,20,21,979.1793951000436,981.2035871000262,982.7187613000278,987.7370530000188,988.448916000023,988.4489211000036,989.9655579000246,990.982902400021,q,19,0.7118630000040866,1,+10,122,-2.58452865560335,0.301321966263977,-1.0534651739493106,745794.0,10.554342040303604,-0.34700891102456355,-0.16254433991522843,749327.0,-14.421410413015609,-0.012634310766805879,0.08315485545214063,811812.0,982.2069351864576,978.6739351864576,1044.6919351864576
33,43,20,f,1,0,25.0,25,3,low,2 + 1 + 9 - 7 + 6,11,13,11,12,992.4997221000376,994.5249904000084,996.040170799999,1001.0582510000096,1001.7609161,1001.7609210000372,1003.2768991000484,1004.2937330999994,w,11,0.7026650999905542,1,+1,123,-11.058921513561666,0.1475110642691404,0.07939287072481171,759115.0,-9.274947806045954,-0.09815198093505417,0.09925058585370339,762649.0,-30.38629675476287,-0.1243812944307856,0.010522773993317802,769884.0,995.5289351864576,991.9949351864576,1002.7639351864576
34,43,20,f,1,0,26.0,26,2,low,5 + 7 - 8 + 1 + 1,6,7,6,8,1005.8112265000236,1007.8386047000532,1009.3538506000186,1014.3722630999982,1015.2649302000063,1015.2649359000496,1016.7816262000124,1017.7985094000468,w,6,0.8926671000081114,1,+1,124,-7.608110052768154,0.16012682439763015,-0.15206477081370373,772428.0,3.90930878229881,0.14664172702485967,-0.0419704858199208,775962.0,8.322065570580197,-0.4844904343326193,0.07015747324791688,797061.0,1008.8419351864576,1005.3079351864576,1029.9409351864576
35,43,20,f,1,0,27.0,27,2,high,3 - 1 + 9 - 5 + 1,7,6,5,7,1019.3153393000248,1021.3408320000162,1022.8558205000008,1027.875124800019,1028.9369079000317,1028.9369139000191,1030.4539757000166,1031.4713469000417,e,7,1.0617831000126898,1,+10,134,-6.476683783712716,-0.03878102635346581,0.0050128968779978855,785931.0,1.9312427920694955,-0.7222405855999732,0.055396994547137535,789465.0,4.9852292688835504,-0.32261290669750275,0.02828001321416007,838228.0,1022.3449351864576,1018.8109351864576,1071.1079351864576
36,43,20,f,1,0,28.0,28,4,low,7 + 6 - 9 + 8 - 3,9,8,7,9,1032.9880885000457,1035.0123523000511,1036.527669400035,1041.5462254000013,1043.6888321000151,1043.6888375999988,1045.204913100053,1046.2214658000155,e,9,2.1426067000138573,1,+1,135,26.258899895088735,0.0028763802251092763,-0.12391603190997857,799602.0,-37.39950191365466,0.3069973522527114,0.26131418595380307,803136.0,-41.02845182782187,0.30939749176444975,-0.14080008336140004,891124.0,1036.0159351864577,1032.4819351864576,1124.0039351864577
37,43,20,f,1,0,29.0,29,1,low,7 + 1 + 5 + 1 - 1,13,12,14,13,1047.7383396000369,1049.7651800000458,1051.2803551999968,1056.2991237000097,1056.9608514000429,1056.9608562000212,1058.47725180001,1059.4949689000496,e,13,0.6617277000332251,1,+1,136,4.142173797596309,-0.8298247155902425,0.20298655395041276,814355.0,-4.956291018157188,-0.08131290474203912,0.12026215733006351,817889.0,-4.666802123241734,-0.9197304066053169,0.6156243471764196,825084.0,1050.7689351864576,1047.2349351864577,1057.9639351864575
38,43,20,f,1,0,30.0,30,2,low,7 + 5 + 1 + 9 + 1,23,22,23,21,1061.0118728000089,1063.0403601000437,1064.555605600006,1069.5732123000198,1070.1049103999976,1070.1049159000395,1071.621461600007,1072.6385754000512,w,23,0.5316980999778025,1,+1,137,3.032089831410376,0.06136549813199954,0.24095130996731218,827630.0,13.433698896210878,0.3572528161714481,-0.3614561910316114,831163.0,-6.626107337713872,-0.3393839312974771,1.046507238594311,851428.0,1064.0429351864577,1060.5099351864576,1084.3079351864576
39,43,20,f,1,0,31.0,31,2,low,8 + 1 + 7 + 1 - 4,13,14,12,13,1074.155214400031,1076.1772279000145,1077.6921511000255,1082.7106981000395,1083.3049601000384,1083.3049657000229,1084.821616100031,1085.8384824999955,e,13,0.5942619999987073,1,+1,138,-7.921361384086429,-0.26274932116019967,-0.04072969781394553,840767.0,15.844079709083672,-0.2133238483274913,0.2648674994684508,844300.0,-14.757446462320239,-0.2791340359837782,0.03966688892650283,1112947.0,1077.1799351864577,1073.6469351864578,1345.8269351864576
40,43,20,f,1,0,32.0,32,1,low,2 + 1 + 9 + 1 + 1,14,13,14,12,1087.3553772000014,1089.3781874999986,1090.893214700045,1095.9113115000073,1096.3687794000143,1096.3687843000516,1097.8851687000133,1098.9020411000238,w,14,0.4574679000070318,1,+1,139,-29.2364865336573,0.6914815983758045,-0.23874892401813907,853968.0,1.215253720774033,-0.2383588669808483,0.004179751281665034,857501.0,10.594198636765594,-0.002196548820935451,0.14784451414953192,864492.0,1090.3809351864577,1086.8479351864576,1097.3719351864577
41,43,20,f,1,0,33.0,33,1,low,3 + 1 + 8 - 1 + 1,12,13,12,10,1100.4185446000192,1102.4444237000423,1103.9597590000485,1108.978168600006,1109.5927794000015,1109.592784600041,1111.1095644000452,1112.1265144000065,w,12,0.6146107999957167,1,+1,140,35.6959260629756,0.18973635488217422,0.11962969085211395,867034.0,-6.7593335056375885,-0.11619718405681345,0.04938182246904965,870568.0,7.013876796298222,-0.023897285846119942,0.12494969722494664,877716.0,1103.4479351864577,1099.9139351864576,1110.5959351864576
42,43,20,f,1,0,34.0,34,4,high,8 + 4 - 5 + 7 - 6,8,8,6,7,1113.6433607000508,1115.668531000032,1117.183763100009,1122.2042343000066,1123.0007976000195,1123.0008027000003,1124.5170377000468,1125.5342930000045,q,8,0.7965633000130765,1,+10,150,-0.6088486394596107,-0.14381382011785337,0.09244022715659206,880259.0,36.088773355882104,-0.15035154501358905,-0.08482423799106442,883794.0,5.923751244479595,-0.03885839350824405,0.4909669872677802,931676.0,1116.6739351864576,1113.1389351864577,1164.5559351864576
43,43,20,f,1,0,35.0,35,3,high,3 + 1 + 6 - 8 + 9,11,13,12,11,1127.0509208000149,1129.0748397000134,1130.5898449000088,1135.6078500000294,1136.2007725000149,1136.2007775999955,1137.7168866000138,1138.7337561000022,e,11,0.5929224999854341,1,+10,160,14.127766778408992,0.3481526880452801,0.18587533225213626,893665.0,8.554333403610986,-0.6781741298893547,0.1855940774870959,897198.0,-33.14984445785767,0.5079003734685825,-0.21156636677863805,904324.0,1130.0779351864576,1126.5449351864577,1137.2039351864576
44,43,20,f,1,0,36.0,36,3,low,4 + 8 - 9 + 1 + 7,11,13,9,11,1140.2505188000505,1142.274503600027,1143.789708700031,1148.808919000032,1149.344750600052,1149.3447566000395,1150.8609771000338,1151.8778481000336,e,11,0.5358316000201739,1,+1,161,10.569265346395348,-0.1751159461502918,-0.013209651982914572,906864.0,-18.776610064052733,-0.7588856236556865,0.024251099642835783,910398.0,-14.902081249189528,0.1277185444900626,0.06448804497957461,917467.0,1143.2779351864576,1139.7439351864577,1150.3469351864576
45,43,20,f,1,0,37.0,37,4,low,5 + 7 - 4 + 8 + 6,22,23,24,22,1153.394372700015,1155.421683499997,1156.9368741000071,1161.9552584000048,1163.552908300015,1163.5529143000022,1165.0696507000248,1166.0871970000444,e,22,1.5976499000098556,1,+1,162,3.508580444134875,-0.08668820815588774,-0.20353791723308357,920011.0,0.8058157560126471,-0.0329952575764314,0.0027442929085923495,923545.0,-37.25282452470407,-0.4409604925224584,-0.5897151384100541,1007118.0,1156.4249351864576,1152.8909351864577,1239.9979351864577
46,43,20,f,1,1,38.0,0,4,high,3 + 8 - 4 + 9 + 7,23,22,23,24,1229.4808348000515,1231.5082290000282,1233.023591300007,1238.043567100016,1238.992797700048,1238.9928029000291,1240.510304900003,1241.528307600005,w,23,0.949230600032024,1,+10,172,0.863198380204178,-5.240822372054865,-18.028993621674935,996097.0,-17.583840519525253,-0.5266416153455973,0.021914969613909818,999633.0,-4.544789686293473,-0.3354609691510033,0.14813555449187987,1178995.0,1232.5129351864578,1228.9769351864577,1411.8749351864576
47,43,20,f,1,1,39.0,1,3,low,3 + 8 - 7 - 1 + 9,12,12,13,14,1243.0455171000212,1245.067764300038,1246.5829959000112,1251.6020107000368,1252.272703900002,1252.2727092000423,1253.7897917000228,1254.8071310000378,q,12,0.6706931999651715,1,+1,173,31.90897605322318,0.03277952801302675,-0.23252195731683178,1009657.0,7.761993568983133,0.10783279566826298,0.19500285163553288,1013191.0,12.742645910924793,0.051381595199173624,0.17981095558506777,1020396.0,1246.0709351864577,1242.5369351864576,1253.2759351864577
48,43,20,f,1,1,40.0,2,3,low,2 - 4 + 9 + 7 + 1,15,15,13,16,1256.323642000032,1258.3448675000109,1259.860104800027,1264.87828600005,1265.656757800025,1265.6567630000063,1267.1733002000256,1268.1901011000157,q,15,0.7784717999747954,1,+1,174,-28.703193914817493,-0.1918800040101849,0.19520574770263677,1022934.0,46.30413503255634,-0.10512825201218501,-0.6799340523167468,1026468.0,9.55792317338579,-0.049680076902529624,-1.0270785939172073,1033779.0,1259.3479351864578,1255.8139351864577,1266.6589351864577
49,43,20,f,1,1,41.0,3,1,high,9 + 1 + 1 + 7 - 1,17,19,17,16,1269.70712190005,1271.7342253000245,1273.24956560001,1278.268350600032,1278.7206915999996,1278.7206966000376,1280.2370394000318,1281.2543031000532,w,17,0.4523409999674186,1,+10,184,12.07082975662196,0.013627289146456834,-0.433376968765979,1036323.0,6.419040667406434,0.22077690841218334,-0.25755799782390665,1039857.0,-16.861446315647093,0.16923863123473804,0.4267250905318509,1046843.0,1272.7369351864577,1269.2029351864578,1279.7229351864578
50,43,20,f,1,1,42.0,4,3,low,5 + 6 - 4 - 1 + 7,13,14,13,15,1282.771011200035,1284.796544300043,1286.3116095000296,1291.3319288000348,1292.096646000049,1292.0966519000358,1293.6133652999995,1294.6300396000152,w,13,0.7647172000142746,1,+1,185,2.040695418973752,-0.01853884428706154,0.10483428927019878,1049386.0,17.136824611410894,0.02500747254470359,-0.008394059325481207,1052921.0,6.690849422978417,-0.20074612956612103,0.012296515270537656,1060219.0,1285.8009351864578,1282.2659351864577,1293.0989351864578
51,43,20,f,1,1,43.0,5,1,high,2 + 1 + 1 + 9 - 1,12,12,13,11,1296.1471321000136,1298.1730404000264,1299.6884100000025,1304.7065625000396,1305.3446844000136,1305.344689300051,1306.8621640000492,1307.8794350000098,q,12,0.6381218999740668,1,+10,195,23.470477163769658,-0.0625624837589156,-0.2421851572899858,1062762.0,-11.377564309520865,0.2318600857942612,-0.07183199575134958,1119022.0,-27.237798870047527,0.14732669263529852,-0.12031462876133503,1073468.0,1351.9019351864576,1295.6419351864577,1306.3479351864578
52,43,20,f,1,1,44.0,6,3,high,2 + 9 - 3 + 4 + 1,13,11,14,13,1309.3961453000084,1311.421262100048,1312.9364625000162,1317.9556407000057,1318.512676800019,1318.5126825000043,1320.0292466999963,1321.046432400006,e,13,0.5570361000136472,1,+10,205,40.106882308494974,0.0824836323265703,-0.0281089095375211,1076010.0,11.442490784788122,-0.19040658019631174,-0.0017151009116305183,1079544.0,9.813046484165415,0.03447866149981471,-0.040875590028437436,1086635.0,1312.4239351864578,1308.8899351864577,1319.5149351864577
53,43,20,f,1,1,45.0,7,3,high,4 + 5 - 3 + 7 - 1,12,11,13,12,1322.563271400053,1324.5854477999965,1326.100713300053,1331.119286900037,1331.70471000002,1331.7047155000037,1333.221313600021,1334.2385265000048,e,12,0.5854230999830179,1,+10,215,14.510513297073244,0.25580019935153997,0.09636870796861174,1089174.0,1.1754580101641157,0.003196115975887537,0.07385095569411027,1092708.0,-15.915107384037594,0.010307168399103839,-2.743770532975634,1099827.0,1325.5879351864578,1322.0539351864577,1332.7069351864577
54,43,20,f,1,1,46.0,8,2,low,8 + 1 + 9 + 1 - 5,14,15,13,14,1335.7762226000195,1337.79963090003,1339.3145261000027,1344.3327053000105,1344.8246607000474,1344.8246657000273,1346.3410436999984,1347.3576959000202,e,14,0.4919554000371136,1,+1,216,17.68483179127876,-0.09451213808462544,-0.6597829563209736,1102389.0,5.689080278810852,0.0168343651425944,-0.010600602835437067,1105922.0,18.65419601995446,0.5864873606343664,1.024025287273914,1222099.0,1338.8019351864577,1335.2689351864576,1454.9789351864576
55,43,20,f,1,1,47.0,9,1,high,5 + 6 + 1 + 1 + 1,14,13,16,14,1348.8743660000036,1350.9008450999972,1352.415985300031,1357.433606400038,1357.8646305000293,1357.8646359000122,1359.3810244000051,1360.3981502000242,e,14,0.4310240999911912,1,+10,226,-29.93316586734843,0.5036142924880529,0.1484584380054914,1115490.0,-21.20020303469577,-0.33409799256471207,0.08150505682964759,1145205.0,-33.72283364431518,-0.056803910494591214,0.1165497562439406,1125987.0,1378.0849351864576,1348.3699351864577,1358.8669351864578
56,43,20,f,1,1,48.0,10,3,low,3 + 1 + 8 - 5 + 6,13,15,13,14,1361.91462580004,1363.9388746000477,1365.4538419000455,1370.474047900003,1371.0085754000463,1371.008581400034,1372.525475900038,1373.5422535000253,w,13,0.5345275000436231,1,+1,227,2.992259948794924,-0.12340239200981928,0.03573896247297026,1128528.0,-0.9047888852887471,0.11305328125788527,-0.23822408746811274,1132062.0,1.7493229369655694,0.12429210071796937,0.15021984580250214,1139131.0,1364.9419351864576,1361.4079351864577,1372.0109351864578
57,43,20,f,1,1,49.0,11,1,high,6 + 1 + 8 + 1 + 1,17,15,17,16,1375.059895400016,1377.083102500008,1378.5982056000505,1383.6162547999993,1384.1926217,1384.192627200042,1385.709257500013,1386.7265945000108,w,17,0.5763669000007212,1,+10,237,-4.106275699755276,0.21991131405426856,0.057309595489455134,1141672.0,5.784899657458055,-0.5451324438141021,-0.6878777313525264,1201942.0,-4.429549152824173,-0.019968744911396996,-0.0035068712724763973,1152315.0,1434.8219351864577,1374.5519351864577,1385.1949351864578
58,43,20,f,1,1,50.0,12,3,high,5 + 6 - 4 - 1 + 8,14,14,16,15,1388.2433406000491,1390.266982600035,1391.78220950003,1396.8008016000383,1397.7206986000529,1397.720704300038,1399.23725190002,1400.254456499999,q,14,0.9198970000143164,1,+10,247,-6.814139096847363,-0.36867424805258864,-0.05288215898189663,1154856.0,0.4532210656612534,0.17829170408177997,0.027026138546074607,1158390.0,2.622191699442599,-0.040684903092004454,0.04497448811300497,1165843.0,1391.2699351864578,1387.7359351864577,1398.7229351864578
59,43,20,f,1,1,51.0,13,4,low,4 + 7 + 8 - 3 + 9,25,24,25,26,1401.771124700026,1403.798156200035,1405.3131495999987,1410.33179320005,1410.8725386000006,1410.872543900041,1412.3891407000483,1413.4058924000128,w,25,0.5407453999505378,1,+1,248,9.138090537459924,-0.002181332649216383,0.20627659320983005,1168387.0,-25.518591039236735,0.12452659632358642,0.06708053460658703,1066295.0,-72.89695286353378,0.23927837504570793,-0.9691575002117832,1252011.0,1299.1749351864578,1401.2669351864577,1484.8909351864577
60,43,20,f,1,1,52.0,14,3,high,7 + 5 + 9 + 1 - 6,16,15,16,14,1414.922709800012,1416.948867900006,1418.4641511000227,1423.4830925000133,1427.744596600009,1427.7446018000485,1429.2613205000523,1430.2784532000078,w,16,4.261504099995364,1,+10,258,-32.17232173454663,-0.15674525713300902,0.009509778909206013,1181537.0,-6.168781108949721,0.05543973546868397,-0.028398489773333813,1185072.0,17.01794038622282,-0.30088182697724,-0.07369125724740222,1195867.0,1417.9519351864576,1414.4169351864577,1428.7469351864577
61,43,20,f,1,1,53.0,15,1,high,6 + 9 + 1 + 1 - 1,16,15,14,16,1431.7952471000026,1433.8183833000369,1435.3341841000365,1440.3541347000282,1440.8485930000315,1440.848598200013,1442.3652359000407,1443.3831294000263,e,16,0.4944583000033162,1,+10,268,-4.573239300318821,-0.5206849892707632,0.07028033450132853,1198407.0,7.506273459139624,0.019996661728517218,-2.5500531689734265,1677646.0,31.87636765007813,-0.2515050055051651,-0.018754225516967704,1208971.0,1910.5259351864577,1431.2869351864576,1441.8509351864577
62,43,20,f,1,1,54.0,16,2,high,8 + 1 + 1 + 9 - 4,15,16,15,14,1444.9000166000333,1446.9262850000523,1448.4411862000125,1453.4592577000149,1453.9765434000292,1453.9765483000083,1455.492903500039,1456.5101740999962,w,15,0.5172857000143267,1,+10,278,-31.594325680147083,0.03590292176378851,-0.034194476235548166,1211515.0,-53.26050890350329,0.43694306590693444,0.020121828132265263,1215048.0,1.750301017861677,0.04812655135235877,0.999720223623692,1238699.0,1447.9279351864577,1444.3949351864578,1471.5789351864578
63,43,20,f,1,1,55.0,17,2,high,6 + 1 + 1 + 7 - 9,6,6,8,4,1458.0270135000465,1460.051901400031,1461.5668233000324,1466.5860907000024,1470.5765514000086,1470.576556700049,1472.0929858000018,1473.1101647000178,q,6,3.990460700006224,1,+10,288,10.049432177291115,-1.017385478139544,-0.21221626748377265,1224640.0,-10.938977543759075,-0.4907955991393589,-0.3748401745636949,1228175.0,57.41412143551611,-0.7917508863115188,-0.2654397870893259,1307746.0,1461.0549351864577,1457.5199351864578,1540.6259351864578
64,43,20,f,1,1,56.0,18,4,high,6 + 9 + 7 - 3 - 5,14,15,13,14,1474.6275382000022,1476.6536448000115,1478.1686088000424,1483.1888989,1483.888559700048,1483.888565100031,1485.4053057000274,1486.4224715000018,e,14,0.6996608000481501,1,+10,298,-0.7477335317715514,0.09341446577085799,0.23849000322793534,1241242.0,15.730641162590398,-0.22247125519056743,-0.9850592786590786,1244777.0,-38.20165916742257,-0.19610616125922853,-0.21600978791520298,1294530.0,1477.6569351864578,1474.1219351864577,1527.4099351864577
65,43,20,f,1,1,57.0,19,3,low,3 + 1 + 8 - 5 + 9,16,16,15,17,1487.939296800003,1489.9629422000144,1491.4781739000464,1496.4962853000034,1499.3686218000366,1499.3686273000203,1500.8850306000097,1501.9018635000102,q,16,2.8723365000332706,1,+1,299,-26.393298358162635,-0.06475336259623798,-0.0784508221397795,1254552.0,19.759595070293408,-0.7531625194666112,-0.03666761421986742,1258085.0,4.710583372442148,-0.7624646971167373,-1.7575648678994709,1267490.0,1490.9649351864578,1487.4319351864576,1500.3699351864577
66,43,20,f,1,1,58.0,20,3,high,5 - 1 - 4 + 6 + 7,13,15,13,14,1503.4185695000342,1505.4444027999998,1506.9597309000092,1511.9780876000295,1513.2245118000428,1513.2245173000265,1514.740927900013,1515.7581474000472,w,13,1.24642420001328,1,+10,309,-7.114881228354701,0.7981464784923848,1.3466986039014772,1270033.0,-1.2027399551292728,-0.625234996262781,-0.08496521985763428,1273566.0,-18.622126963326412,0.1853064341072117,-0.23139748597800125,1281346.0,1506.4459351864577,1502.9129351864576,1514.2259351864577
67,43,20,f,1,1,59.0,21,4,low,5 + 7 - 4 - 6 + 9,11,12,11,13,1517.2748695000191,1519.3027948000235,1520.818010200048,1525.836461400031,1526.4085705000325,1526.4085760000162,1527.925222400052,1528.9419408999966,w,11,0.5721091000013985,1,+1,310,9.973874433615567,-0.4935556773789598,1.2229424003659006,1283891.0,8.537586041384271,0.48325579874524793,-0.1399943370342034,1171920.0,20.81933030963006,0.20163178111174052,0.060816716647256186,1349570.0,1404.7999351864578,1516.7709351864578,1582.4499351864577
68,43,20,f,1,1,60.0,22,2,low,2 + 1 + 9 - 4 + 1,9,11,8,9,1530.4589785000426,1532.4854374999995,1534.0009962000186,1539.0200272000511,1539.6245631000493,1539.6245685000322,1541.1409427000326,1542.1577544000463,e,9,0.6045358999981545,1,+1,311,13.869946117381275,1.2139736574602207,0.2885209015440422,1297074.0,-16.644780994849796,-0.8407125001777449,-0.026485508869861007,1300608.0,-14.956743280893381,-0.6347433460655676,-0.12968383499024583,1445385.0,1533.4879351864577,1529.9539351864578,1678.2649351864577
69,43,20,f,1,1,61.0,23,1,low,5 + 9 - 1 + 1 + 1,15,17,15,13,1543.6745334000443,1545.7024401000235,1547.2176694000373,1552.235695600044,1553.1284620000515,1553.128468000039,1554.6450561000383,1555.6618178000208,w,15,0.892766400007531,1,+1,312,1.0747689518632235,0.5760553745528889,0.06312886505406823,1310290.0,6.614363759187823,-0.5913696644942377,-0.2724994960822915,1313824.0,3.516151911494193,-1.0819675044415344,0.09091999707619092,1321250.0,1546.7039351864578,1543.1699351864577,1554.1299351864577
70,43,20,f,1,1,62.0,24,3,high,9 - 1 + 5 - 6 + 8,15,14,15,17,1557.1785110000055,1559.2035073000006,1560.719571500027,1565.7386801000102,1568.3364865000476,1568.3364914000267,1569.8528869000147,1570.8702398000169,w,15,2.59780640003737,1,+10,322,-21.90299871024208,-0.7974923528345608,-2.097043550892133,1323792.0,3.985326302884463,-0.6910986070602214,0.11541479898609852,1327327.0,-26.309328186987344,0.2829220120232345,-0.11345567852875416,1336458.0,1560.2069351864577,1556.6719351864576,1569.3379351864578
71,43,20,f,1,1,63.0,25,4,low,8 + 4 + 7 - 5 - 6,8,7,8,9,1572.3871561000124,1574.4130113000283,1575.928197400004,1580.9465885999962,1581.4484554000082,1581.4484611000516,1582.9647157000145,1583.9814143000403,w,8,0.501866800012067,1,+1,323,-24.200822705930825,-0.17573174077298148,-0.39935857519133977,1339001.0,-40.62382691485476,0.06446946764312944,0.161729840763833,1287425.0,19.25341853078952,0.7930726369935033,-0.09761399078530797,1376218.0,1520.3049351864577,1571.8809351864577,1609.0979351864578
72,43,20,f,1,1,64.0,26,3,low,6 - 1 + 7 - 8 + 9,13,13,11,12,1585.498220800015,1587.5236562000357,1589.0388867,1594.0570652000024,1594.760424200038,1594.76042950002,1596.277063800022,1597.2938453000388,q,13,0.7033590000355616,1,+1,324,-7.808897438505307,0.8131572118065753,0.3230691762078832,1352112.0,9.024688036747989,-0.3083954241149147,-0.16033476184063034,1355645.0,-18.839262328657536,-0.5410696103533659,1.3314322288692644,1362882.0,1588.5249351864577,1584.9919351864578,1595.7619351864578
73,43,20,f,1,1,65.0,27,4,high,6 + 5 - 7 + 8 - 9,3,3,5,4,1598.810872300004,1600.8355464000488,1602.3511790000484,1607.3698595000317,1608.09641680005,1608.0964220000317,1609.6127359000384,1610.629941400024,q,3,0.7265573000186123,1,+10,334,19.209308732602498,0.7984785448146381,-0.11450357433325653,1365423.0,-27.41126339677109,-0.07609263809530331,0.21173014225487385,1368958.0,14.102430646555208,0.17125360364821862,-0.10594815126240409,1431946.0,1601.8379351864578,1598.3029351864577,1664.8259351864576
74,43,20,f,1,1,66.0,28,3,high,5 + 7 + 1 - 4 + 6,15,17,13,15,1612.147519500053,1614.1720983000123,1615.6872777000535,1620.7053957000026,1621.3045725999982,1621.304578000039,1622.8211093000136,1623.838499000005,e,15,0.5991768999956548,1,+10,344,-60.368124864432325,-0.14783151670890593,-0.009957729699384021,1378760.0,-3.134250060945682,-0.6721691198271835,0.06311456746737898,1382293.0,-30.827812567820438,-0.0840920263509135,-0.9290042473773341,1389426.0,1615.1729351864576,1611.6399351864577,1622.3059351864576
75,43,20,f,1,1,67.0,29,3,low,4 + 8 - 3 + 5 - 1,13,12,13,14,1625.3550427000157,1627.3802136000013,1628.895254300034,1633.9135141000152,1634.4563876000466,1634.456392800028,1635.9727541000466,1636.989680600003,w,13,0.5428735000314191,1,+1,345,13.97071231564507,0.4170915859077624,0.5323642134407556,1391968.0,5.281507246286202,1.3010657679999063,-0.007705221579509036,1395501.0,19.874757444536066,-0.4785888996576846,-0.004962421532931582,1402577.0,1628.3809351864577,1624.8479351864578,1635.4569351864577
76,43,20,f,1,1,68.0,30,1,low,4 + 9 + 1 - 1 - 1,12,13,12,11,1638.506378500024,1640.5328774000518,1642.0481432000524,1647.0660980000391,1650.1284109000117,1650.1284163000528,1651.6446514000418,1652.6614495000103,q,13,3.062312899972312,0,+0,345,23.860890864074122,-0.3877719979847547,-0.4550722727249137,1405120.0,13.317818574923681,-0.16522862574688046,0.013168502781898184,1408654.0,21.225213392801184,-1.399938764923676,-4.928264787003371,1685129.0,1641.5339351864577,1637.9999351864576,1918.0089351864576
77,43,20,f,1,1,69.0,31,4,low,2 + 9 - 3 + 5 + 8,21,21,22,23,1654.1781318000285,1656.2057340000174,1657.720600200002,1662.7392454000071,1663.8243911000318,1663.8243967000162,1665.3408630000197,1666.3579631000175,q,21,1.0851457000244409,1,+1,346,-6.014929423020508,0.6488584632931191,-0.019529100202837935,1420794.0,-20.36838623270853,-0.39833471947872434,0.21752908968345208,1342535.0,38.83510709126268,-0.1725325224045413,1.7830018892533492,1471954.0,1575.4149351864578,1653.6739351864578,1704.8339351864577
78,43,20,f,1,1,70.0,32,2,low,4 + 1 + 9 + 1 - 6,9,9,8,7,1667.874714000034,1669.9025303000235,1671.4177492000165,1676.4361184000154,1677.2643868000014,1677.2643921000415,1678.7810269000474,1679.797785600007,q,9,0.8282683999859728,1,+1,347,9.090274978518922,-0.24940141893372214,-0.013261314135528224,1434490.0,10.856400981145974,-0.4563014140980646,0.24598369019952404,1438023.0,9.553647140571691,-0.1243481880902122,-0.12534791886917507,1458706.0,1670.9029351864576,1667.3699351864577,1691.5859351864576
79,43,20,f,1,1,71.0,33,2,low,8 + 1 + 9 + 1 - 4,15,15,14,16,1681.3141355999978,1683.337518000044,1684.8527295000383,1689.8712807000263,1690.5844160999986,1690.584421400039,1692.1012142000254,1693.1180066000088,q,15,0.7131353999720886,1,+1,348,11.171960287655935,-0.49364054674760993,1.252453267809575,1447925.0,2.5960471504336464,-0.5269358345859319,-0.02161964974063535,1451458.0,-22.778072458911662,0.3785150768911132,0.21665098689479656,1514778.0,1684.3379351864578,1680.8049351864577,1747.6579351864577
80,43,20,f,1,1,72.0,34,4,high,5 + 6 - 4 + 7 + 9,23,25,24,23,1694.63501670002,1696.65893840004,1698.174117800023,1703.1923554000095,1703.8323360000504,1703.8323418000364,1705.3489511000223,1706.3660775000462,e,23,0.6399806000408716,1,+10,358,-11.265898576402291,0.09158870387204487,-0.22622666037498318,1461246.0,8.046211485364951,-0.3271135163444985,0.18157362042024028,1464780.0,3.7222274984375616,-0.25772082276176045,-0.5697691300944823,1645081.0,1697.6599351864577,1694.1259351864578,1877.9609351864576
81,43,20,f,1,1,73.0,35,3,high,3 + 8 - 7 + 1 + 9,14,12,14,13,1707.8828209000058,1709.9100780000445,1711.4252925000037,1716.4440136000048,1719.4643182000143,1719.4643238999995,1720.9806494000368,1721.9976142000523,w,14,3.0203046000096947,1,+10,368,-13.33437536509379,0.19236785397548317,-0.20847826895777732,1474497.0,-8.542938908492143,-0.1224989759295525,0.16916789670716126,1478031.0,20.08453916151278,-0.06482478534236513,-1.1249426924921515,1487585.0,1710.9109351864577,1707.3769351864578,1720.4649351864578
82,43,20,f,1,1,74.0,36,3,high,8 + 3 + 1 - 7 + 9,14,12,14,15,1723.5142723000026,1725.5401031000074,1727.0552232000043,1732.0753569000517,1732.6563315000385,1732.6563374000252,1734.1726741000311,1735.1899576000287,w,14,0.5809745999868028,1,+10,378,24.871798502157624,-0.44319915985193425,-0.0057685926553010525,1490128.0,31.645939054232443,-1.318057351422616,-0.17159236283473955,1493663.0,27.21391440084365,0.25725546921437203,-0.1522225587240067,1500777.0,1726.5429351864577,1723.0079351864576,1733.6569351864578
83,43,20,f,1,1,75.0,37,2,high,6 + 1 + 8 + 7 - 1,21,23,21,19,1736.7068157000467,1738.733878500003,1740.2489894000464,1745.2675809000502,1746.6564271000098,1746.6564328999957,1748.173104400048,1749.1902605000068,w,21,1.3888461999595163,1,+10,388,7.481722837368812,-0.24199157965762197,-0.00592498581966483,1503321.0,12.474364026536326,0.02837195511288204,0.19019318607168056,1506855.0,-1.1067213371307227,-0.38537292593710726,-1.3095055074485402,1592305.0,1739.7349351864577,1736.2009351864576,1825.1849351864578
84,43,20,f,1,2,76.0,0,2,high,7 + 8 + 1 + 9 + 1,26,24,26,25,1815.132696500048,1817.1572416000415,1818.672172300052,1823.691856400052,1824.184224800032,1824.184229300008,1825.700585100043,1826.7177829000284,w,26,0.492368399980478,1,+10,398,6.916475876727765,-0.699542863118825,2.089444548242863,1581745.0,-29.664162278119278,-0.021114835403878818,-0.06180309609948598,1585279.0,-13.291681913085167,3.7917143756257223,6.915807023147516,1605377.0,1818.1589351864577,1814.6249351864576,1838.2569351864577
85,43,20,f,1,2,77.0,1,2,high,9 + 4 + 5 + 1 - 1,18,17,18,19,1828.234557600052,1830.2565151000165,1831.7717810000177,1836.7897102000425,1837.2562667000457,1837.2562717000253,1838.772639700037,1839.789856700052,w,18,0.4665565000032075,1,+10,408,-13.097320404367876,0.1831603779314186,0.12438214821291638,1594844.0,-3.0067981895979514,-0.9800006932264922,-0.08652962854817181,1598377.0,-3.1343895446318975,-1.2637261226574044,-2.7174694703961992,1631769.0,1831.2569351864577,1827.7239351864578,1864.6489351864577
86,43,20,f,1,2,78.0,2,3,high,8 + 6 - 7 + 1 - 4,4,5,4,3,1841.306643100048,1843.3336466000185,1844.848869800044,1849.8675695999991,1850.344243700034,1850.3442487000136,1851.8613370000385,1852.878252000024,w,4,0.4766741000348702,1,+10,418,10.620487423024297,-0.6118246925543342,2.378330835504423,1607921.0,-4.423127770733281,-0.1768743809924973,0.20315495666554195,1611455.0,-3.3387916167898393,0.6758033677256581,2.0879940702303106,1618466.0,1844.3349351864576,1840.8009351864578,1851.3459351864576
87,43,20,f,1,2,79.0,3,2,high,6 + 8 + 1 + 1 - 7,9,9,11,8,1854.3952554000423,1856.42232360004,1857.9374761000508,1862.9555057000248,1863.6482308999985,1863.6482356000345,1865.1644651000388,1866.1817278000528,q,9,0.6927251999732107,1,+10,428,6.151212895270547,-0.2014161315131484,-0.8746542617363571,1621009.0,-30.26636477400814,0.041288592249022926,0.015315108124905663,1624543.0,-18.69011676628392,0.11616045422660637,0.10722024039351297,1658369.0,1857.4229351864576,1853.8889351864577,1891.2489351864576
88,43,20,f,1,2,80.0,4,4,high,9 + 4 - 6 + 8 + 7,22,21,24,22,1867.6985377000528,1869.7236523000172,1871.2389732000304,1876.258940900036,1876.9601871000489,1876.9601929000344,1878.4767255000188,1879.49400180002,e,22,0.7012462000129744,1,+10,438,-29.434818742680136,-0.21866099196690492,-0.38556169780620797,1634311.0,-4.545654955282114,0.002155464788520245,0.5042618401605574,1637846.0,-17.95224089092245,0.038639813414104385,0.004492137843651101,1724889.0,1870.7259351864577,1867.1909351864576,1957.7689351864576
89,43,20,f,1,2,81.0,5,2,high,5 - 1 + 1 + 8 + 9,22,21,23,22,1881.010407200025,1883.0354262000185,1884.5514515000395,1889.5702215000056,1890.248238500033,1890.248243900016,1891.7647789000184,1892.7819577000337,e,22,0.6780170000274666,1,+10,448,3.353176223862935,0.546841605890191,1.0127839316092233,1647623.0,-39.591620092879815,0.2830030900603182,-1.7694548112214958,1651157.0,24.09296081753042,0.4574447959922432,0.2701227909817163,1671569.0,1884.0369351864576,1880.5029351864578,1904.4489351864577
90,43,20,f,1,2,82.0,6,2,high,4 + 8 + 1 + 1 - 5,9,9,11,8,1894.298611700011,1896.3208051000256,1897.8360535000104,1902.854111600027,1903.4483484000084,1903.4483546999984,1904.9644633000132,1905.9823042000064,q,9,0.5942367999814451,1,+10,458,-23.691873494396845,-0.021630644869092386,1.4930303863028458,1660908.0,17.83937356384786,-0.30186859803535837,1.502927092793258,1664441.0,-5.616153800545511,-0.5591923327241268,-1.0288255975943033,1711544.0,1897.3209351864577,1893.7879351864576,1944.4239351864578
91,43,20,f,1,2,83.0,7,1,high,2 + 9 + 1 + 1 + 1,14,12,14,13,1907.49880880001,1909.5263217000172,1911.0415044000256,1916.0591872000368,1917.0082123000172,1917.008217900002,1918.5248884000464,1919.542034800048,w,14,0.9490250999806448,1,+10,468,-0.8561298968301525,0.6748552242316215,0.20353615232947941,1674113.0,6.917163498941713,0.03985282686014968,-0.9144462882851072,1691204.0,13.881179351847695,0.2647013822753814,1.8900794230622804,1698281.0,1924.0839351864577,1906.9929351864578,1931.1609351864577
92,43,20,f,1,2,84.0,8,1,high,5 + 6 + 1 + 1 + 1,14,15,14,16,1921.059822500043,1923.0845903000445,1924.5998062000144,1929.6174700999984,1930.1602956000131,1930.1603016000008,1931.6769558000376,1932.6942839000255,w,14,0.5428255000151694,1,+10,478,8.060217732349141,-0.5698026197406363,-0.0311786939303893,1687671.0,-79.83625055476416,0.18520470372307418,0.03845898813299131,1758791.0,-38.99106875179711,-0.06408208078738853,-0.014649410521782258,1765905.0,1991.6709351864577,1920.5509351864578,1998.7849351864577
93,43,20,f,1,2,85.0,9,2,high,4 + 8 + 1 + 1 - 6,8,8,9,7,1934.2113482000425,1936.236771000025,1937.751691100013,1942.7696591000424,1943.4242056000512,1943.4242109000331,1944.9403936000308,1945.9572721000293,q,8,0.6545465000090189,1,+10,488,4.086921261885799,0.5965903455604251,-1.6577056310563911,1700823.0,4.407967228059206,-0.5459709421218377,0.07827407966814137,1704356.0,10.333106974575117,0.13350977961194888,0.10694194855709149,1739496.0,1937.2359351864577,1933.7029351864578,1972.3759351864578
94,43,20,f,1,2,86.0,10,4,high,8 + 7 - 4 + 5 + 9,25,25,24,26,1947.4743240000096,1949.499948600016,1951.015095400042,1956.0334312000195,1956.768175300036,1956.7681804000167,1958.2847704000303,1959.301896799996,q,25,0.7347441000165418,1,+10,498,29.496642086270775,0.4466582921839821,1.4083228292864787,1714087.0,-1.382483035727402,-0.22032060059112202,-0.04954983998562801,1717620.0,8.64431575678738,-0.006575639147627488,-0.06630929920999029,1752713.0,1950.4999351864576,1946.9669351864577,1985.5929351864577
95,43,20,f,1,2,87.0,11,2,low,6 + 1 + 1 + 7 - 9,6,4,6,8,1960.818324799999,1962.8439617000404,1964.35928090004,1969.379342500004,1971.376181300031,1971.3761866000127,1972.8923665000475,1973.9088589000169,w,6,1.9968388000270352,1,+1,499,20.22920057748829,0.05851724747570919,0.054095868669250535,1727431.0,20.92679403909,-0.3352250563630801,0.12779620609867148,1730966.0,3.4340026436663043,-0.32660629132277696,0.12678868240124586,1835208.0,1963.8459351864576,1960.3109351864578,2068.087935186458
96,43,20,f,1,2,88.0,12,4,low,9 + 7 - 5 + 8 + 6,25,24,27,25,1975.42591380002,1977.4526676000096,1978.9678947000064,1983.987038400024,1984.5921273000424,1984.5921330000276,1986.1088622000532,1987.1265744999985,e,25,0.6050889000180177,1,+1,500,-25.155063060357044,-0.05124483501238486,0.08283637681893796,1742039.0,11.689142831070154,0.00867396023445588,0.09401908582260265,1424326.0,-13.756757804956393,0.23759110155753982,0.07648843952570306,1808640.0,1657.2059351864577,1974.9189351864577,2041.5199351864578
97,43,20,f,1,2,89.0,13,1,high,7 + 1 + 4 + 1 - 1,12,13,11,12,1988.643364800024,1990.6689180000103,1992.1845380000304,1997.2045254000116,1997.7841155000497,1997.784120700031,1999.3013907000425,2000.318574200035,e,12,0.579590100038331,1,+10,510,-31.300877003466347,0.39701084739670645,0.005444659522828799,1755255.0,-21.822333121464332,-0.1032582822882322,-0.005676547617891048,1841286.0,-59.847137132153094,0.20410086139633088,0.5477853396968324,1821912.0,2074.165935186458,1988.1349351864578,2054.7919351864575
98,43,20,f,1,2,90.0,14,3,low,6 - 1 + 7 - 8 + 9,13,13,11,12,2001.8354044000152,2003.8596832000185,2005.3749778000056,2010.39343440003,2011.104129400046,2011.1041350000305,2012.6206778000344,2013.6379171000444,q,13,0.7106950000161305,1,+1,511,-4.687491038836125,0.06657497576388738,0.3549228574274441,1768446.0,3.2056413364543914,0.036726263219687194,-0.3902963163767681,1771980.0,19.250902979838656,-0.7263292544020392,0.10882842407801263,1779224.0,2004.8599351864577,2001.3259351864576,2012.1039351864576
99,43,20,f,1,2,91.0,15,3,low,5 + 6 + 7 - 1 - 9,8,7,8,9,2015.154396600032,2017.181251400034,2018.6961247000145,2023.714412100031,2027.368192600028,2027.3681987000164,2028.8846779000012,2029.901410200051,w,8,3.653780499997083,1,+1,512,0.24799854471453742,-0.22072352201370649,-0.39243655757955676,1781768.0,-5.882341039566159,-0.3409191826938347,-0.1290811096167015,1785301.0,9.394919186541529,-0.003273901313793015,-0.00022518106455504672,1795488.0,2018.1809351864576,2014.6479351864577,2028.3679351864578
100,43,20,f,1,2,92.0,16,4,high,3 + 9 - 5 + 8 - 7,8,7,9,8,2031.418062200013,2033.443134800007,2034.9584437000449,2039.978381599998,2040.5200905000088,2040.5200962000529,2042.0366750000396,2043.053926600027,e,8,0.5417089000111446,1,+10,522,-68.98624298239123,0.3618914092174039,0.06143284070319033,1798030.0,1.0713920045474374,-0.4786736223015762,0.056211049793059464,1801565.0,32.78967891516275,0.2555069947284423,0.16489598992514054,1999856.0,2034.4449351864578,2030.9099351864577,2232.7359351864575
101,43,20,f,1,2,93.0,17,1,low,7 + 1 + 4 + 1 - 1,12,12,13,11,2044.5706477000492,2046.5975730000064,2048.1125737000257,2053.13127490005,2053.792067200004,2053.79207200004,2055.3085137000307,2056.325456599996,q,12,0.660792299953755,1,+1,523,29.854003699801215,0.27743496909568277,0.13176572399141806,1811184.0,-1.6149902337247752,0.03814550239301706,0.11218587405583813,1814717.0,-8.503488098112559,-0.023881155544873467,0.32942530130919234,1848296.0,2047.5969351864578,2044.0639351864577,2081.1759351864575
102,43,20,f,1,2,94.0,18,2,low,5 + 9 - 8 + 1 + 1,8,8,9,7,2057.8422257000348,2059.868766100029,2061.384118300048,2066.402505000005,2067.0881354000303,2067.088140900014,2068.6046891000005,2069.62153210002,q,8,0.6856304000248201,1,+1,524,-41.20248923194076,0.2231329786748657,-0.17374120546542327,1824455.0,3.076475223070528,0.05793745748835555,0.6166732953267688,1827989.0,-83.9527965847484,0.07246320022431885,0.05909932779423244,1916672.0,2060.8689351864577,2057.3349351864576,2149.5519351864577
103,43,20,f,1,2,95.0,19,1,high,4 + 1 + 1 + 7 - 1,12,14,12,13,2071.138047400047,2073.16583730001,2074.6811537000467,2079.6994933000533,2080.176007400034,2080.176012000011,2081.6925630000187,2082.709944900009,w,12,0.4765140999807045,1,+10,534,0.5216353603342974,0.5730947370381796,-0.13197884507522661,1837752.0,-0.0342299764934495,-0.09048993850444775,-0.025612350155388208,1935930.0,-6.174804447962765,0.4813538274488227,0.038551749760272314,1877087.0,2168.8099351864576,2070.6319351864577,2109.9669351864577
104,43,20,f,1,2,96.0,20,3,high,9 + 3 - 4 + 6 + 7,21,22,23,21,2084.227101300028,2086.250517000037,2087.765687200008,2092.7841885000234,2094.2399994000443,2094.240005700034,2095.7564453000086,2096.773658799997,e,21,1.4558109000208788,1,+10,544,-58.56048679798221,0.4389545208981789,0.034178968575806934,1850837.0,-24.722166397212316,0.3740266760799489,-1.301714115420991,1854371.0,18.364334701420347,0.5909251664050075,0.1272956103757974,1862360.0,2087.250935186458,2083.7169351864577,2095.2399351864574
105,43,20,f,1,2,97.0,21,1,low,6 + 1 + 8 + 1 - 1,15,14,15,13,2098.2902333000093,2100.314006700006,2101.829198200023,2106.847227899998,2108.968075300043,2108.968081400031,2110.484112900041,2111.50048420002,w,15,2.1208474000450224,1,+1,545,5.767976568404354,0.4326970646818562,-0.034792947312331846,1864900.0,17.521990835152,-0.14342196195761803,-0.03526188182327816,1868434.0,-21.29956230248973,0.19699489483862198,-0.0033181585907720024,1903456.0,2101.3139351864575,2097.779935186458,2136.3359351864574
106,43,20,f,1,2,98.0,22,3,low,7 - 5 + 9 + 1 - 4,8,7,9,8,2113.0173997000093,2115.044809300045,2116.5599714000127,2121.5782470999984,2122.192005000019,2122.1920102000004,2123.7086149000097,2124.725468500052,e,8,0.6137579000205733,1,+1,546,-30.022496801620367,-0.18437407858508026,0.15256153484573565,1879631.0,12.562280407312954,0.007446417345498446,0.07988976911165513,1883165.0,-0.4537257337550784,0.33192518668708115,0.16788067441564336,1890312.0,2116.0449351864577,2112.5109351864576,2123.1919351864576
107,43,20,f,1,2,99.0,23,1,low,6 + 1 + 1 + 7 - 1,14,13,12,14,2126.242176700034,2128.2676256000414,2129.7828679000377,2134.803788200021,2135.3360336000333,2135.336039000016,2136.852310500049,2137.869012900046,e,14,0.5322454000124708,1,+1,547,-16.357516975527332,-0.16712171889694938,-0.014593783013087114,1892854.0,-7.060192646854569,-0.5162662612595219,0.03159213057929566,1896390.0,9.582252552800853,0.4308765336935383,0.2109648812650462,1943056.0,2129.2699351864576,2125.7339351864575,2175.9359351864578
108,43,20,f,1,2,100.0,24,2,low,2 + 9 + 1 + 1 - 5,8,6,7,8,2139.385790600034,2141.4130721000256,2142.9278703000164,2147.945755200053,2148.551982900012,2148.551988100051,2150.068323300045,2151.0853579000104,e,8,0.6062276999582537,1,+1,548,-1.7858523081595798,0.7485682343482902,-0.07153877898698324,1905999.0,-4.116620637978247,0.1391551018882038,0.04636001288683378,1909532.0,3.5684054869268493,-0.17904685990251012,-0.13120720981668055,1929855.0,2142.4119351864574,2138.8789351864575,2162.7349351864577
109,43,20,f,1,2,101.0,25,2,low,3 + 8 - 5 + 1 + 1,8,9,8,6,2152.6022819000063,2154.6275588000426,2156.1437041000463,2161.161540600005,2161.7359917000285,2161.7359967000084,2163.2524005000014,2164.269233600004,w,8,0.5744511000229977,1,+1,549,-11.959812815633484,-0.1574358125222597,0.0426928461953342,1919213.0,-9.04148574642259,0.0320395106933149,0.17382187165063234,1922748.0,-4.5873350974496,-0.329176371100671,-0.01768138534120256,1983199.0,2155.6279351864578,2152.0929351864575,2216.078935186458
110,43,20,f,1,2,102.0,26,1,high,8 + 1 + 4 + 1 + 1,15,16,14,15,2165.7861029000487,2167.8098164999974,2169.3256161000463,2174.3433258000296,2174.9359315000474,2174.9359364000265,2176.45260780002,2177.4697391000227,e,15,0.5926057000178844,1,+10,559,25.00195091243099,0.5553723591318782,0.019811432189295486,1932396.0,17.28517245119227,0.20678542341367923,0.3070215508559959,1949131.0,6.8692638479876,-0.35397412449268684,-0.004476258129313182,1956320.0,2182.0109351864576,2165.2759351864574,2189.1999351864574
111,43,20,f,1,2,103.0,27,1,high,9 + 8 + 1 + 1 - 1,18,20,17,18,2178.9864800000214,2181.0112301000045,2182.5264277000097,2187.544634500053,2188.1999735000427,2188.1999790000264,2189.7164092000457,2190.7338921000483,e,18,0.6553389999899082,1,+10,569,7.9763244327863525,0.04428208101632336,-0.04481617467676724,1945597.0,2.1799834632328543,-0.08387139872926896,0.007794389498253285,2205268.0,18.21371311547064,-0.20222824785718174,-0.45060012448638975,2029551.0,2438.1479351864577,2178.4769351864575,2262.4309351864576
112,43,20,f,1,2,104.0,28,3,low,7 - 1 + 8 - 6 + 4,12,12,13,11,2192.250666000007,2194.2753544000443,2195.790390500042,2200.810381200048,2201.679959900037,2201.679965600022,2203.196075300046,2204.2126193000004,q,12,0.8695786999887787,1,+1,570,15.74342307612394,0.022099939596502693,-0.02662414227574672,1958862.0,-50.332221013237834,0.17506396906263832,0.042540042161820946,1962397.0,3.245335651866184,-0.6157763140349726,-0.1988144808103678,1969799.0,2195.2769351864576,2191.741935186458,2202.6789351864577
113,43,20,f,1,2,105.0,29,2,low,9 + 1 + 6 + 7 + 1,24,24,25,23,2205.7294756000047,2207.75666080002,2209.272000900004,2214.289982200018,2215.0798834000016,2215.079888200038,2216.596408100042,2217.613271600043,q,24,0.7899011999834329,1,+1,571,-28.44193885766604,-0.11965364196466899,-0.08905074823857895,1972343.0,-14.984569925701079,-0.027201241758156414,-0.07093329835790829,1975876.0,-10.129084297585285,0.08784549804168496,0.018711320655951047,2016567.0,2208.7559351864575,2205.2229351864576,2249.4469351864577
114,43,20,f,1,2,106.0,30,4,high,3 + 8 - 5 + 9 - 7,8,7,8,6,2219.1300478000194,2221.1556501000305,2222.671047800046,2227.691525600036,2231.735931500036,2231.735936700017,2233.2523582000285,2234.269604400033,w,8,4.044405900000129,1,+10,581,14.145493469072221,0.13379919253136974,0.019993813860385234,1985742.0,24.778516909876487,-0.11442475010912911,-0.009500534032692576,1989277.0,12.875488702289076,-1.0024729757139443,-0.11112435981541369,2044167.0,2222.1569351864578,2218.6219351864574,2277.0469351864576
115,43,20,f,1,2,107.0,31,2,low,5 + 8 + 1 - 1 + 9,22,22,23,21,2235.7860305000213,2237.8110313000507,2239.326202500029,2244.3441503000213,2248.4480138000217,2248.448019500007,2249.963948000048,2250.980809300032,q,22,4.103863500000443,1,+1,582,14.877191901245586,0.013354580905306168,-0.0380320847427984,2002397.0,-17.066196304826832,-0.18380199181757506,0.005932225348091569,2005931.0,7.114756122427844,0.14368403787562833,-0.34983660917619597,2057255.0,2238.8109351864578,2235.2769351864576,2290.134935186458
116,43,20,f,1,2,108.0,32,1,low,3 + 1 + 1 + 8 - 1,12,13,12,14,2252.497412800032,2254.521720300021,2256.036952399998,2261.0549753000378,2261.4319619000307,2261.4319673000136,2262.948386600008,2263.965465200017,w,12,0.3769865999929607,1,+1,583,-15.47352440544028,0.11322151165631489,0.10093060111759855,2019108.0,3.4615842819540177,-0.32042850615698093,0.8826901684551214,2022641.0,-0.22450932358024822,0.3975815977894448,-0.048678607750670455,2083727.0,2255.520935186458,2251.9879351864574,2316.6069351864576
117,43,20,f,1,2,109.0,33,4,low,6 + 9 + 7 - 3 - 5,14,13,14,12,2265.482320900017,2267.5079301000223,2269.0229753000312,2274.041503400018,2276.048025400029,2276.048031400016,2277.564507800038,2278.5812542000203,w,14,2.006522000010591,1,+1,584,18.849602734692674,-0.03940081949505547,-0.2606763820007143,2032094.0,-13.156938592171974,-0.06678156606153407,0.017097265477919343,1745573.0,-5.533675462492382,-0.2908366177998247,-0.0020827880646430152,2158975.0,1978.4529351864578,2264.9739351864578,2391.8549351864576
118,43,20,f,1,2,110.0,34,2,low,6 + 1 + 1 + 8 - 9,7,5,9,7,2280.0978657000232,2282.12308390002,2283.6382196000195,2288.657232000027,2289.135994400014,2289.135999799997,2290.6523445000057,2291.669527000049,e,7,0.4787623999873176,1,+1,585,12.788911956786073,-0.2937877341500661,-0.3831671469912137,2046709.0,3.0819429341980396,-0.616274569128973,-0.3963185304229335,2050243.0,34.834303957689876,-0.06443093335866301,0.016912690975518174,2070456.0,2283.1229351864577,2279.5889351864575,2303.335935186458
119,43,20,f,1,2,111.0,35,2,high,8 + 1 + 4 - 7 + 1,7,5,7,6,2293.186307900003,2295.212626499997,2296.7278647000203,2301.747872900043,2302.335955000017,2302.3359613000066,2303.852532799996,2304.869985600002,w,7,0.5880820999736898,1,+10,595,19.216697381443673,-0.2130888844235912,-0.013279098472331885,2059798.0,3.5839884019246506,0.8238871166329949,0.43963696994908164,2063334.0,21.25621682114233,-0.155407380622695,0.009846907001602734,2145863.0,2296.2139351864575,2292.6779351864575,2378.7429351864575
120,43,20,f,1,2,112.0,36,1,low,5 + 1 + 1 + 6 + 1,14,14,16,13,2306.386643900012,2308.411423900048,2309.926584400004,2314.9449766000034,2315.607906600053,2315.607911600033,2317.1243591000093,2318.1420561000123,q,14,0.6629300000495277,1,+1,596,38.2849197088463,-0.35232364606262934,0.08865829506888945,2072997.0,3.1389069029639796,0.8998258431627422,-3.059783551511517,2076531.0,36.40270755406689,0.23680541281389367,-0.07112635986338,2212327.0,2309.4109351864577,2305.8769351864576,2445.206935186458
121,43,20,f,1,2,113.0,37,3,low,8 - 7 + 9 + 1 + 4,15,16,14,15,2319.658377100015,2321.6854564000387,2323.200640099996,2328.219113100029,2328.783854800044,2328.7838599000243,2330.300473800045,2331.3172532000463,e,15,0.5647417000145651,1,+1,597,5.559965595147776,-0.020328720362009278,-0.10162338333188448,2086271.0,-14.437615344582596,-0.08536283355679197,-0.02268155514853598,2089805.0,12.227943554232333,0.8466992001677478,0.21655777750300587,2096903.0,2322.6849351864576,2319.150935186458,2329.7829351864575
122,43,20,f,1,3,114.0,0,2,low,5 + 1 + 7 - 6 + 1,8,7,6,8,2368.51619590004,2370.54223390005,2372.0574933000025,2377.078231100051,2377.7437686000485,2377.74377390003,2379.2603830000157,2380.2780364000355,e,8,0.6655374999972992,1,+1,598,25.58510865898078,0.8842978222866811,3.3195228099618985,2135128.0,-8.906991806838688,-0.13513914325794607,-0.05711061219213809,2138663.0,-22.064432465712677,-0.12979986407303734,-0.03602306535609978,2238495.0,2371.5429351864577,2368.007935186458,2471.3749351864576
123,43,20,f,1,3,115.0,1,4,high,4 + 7 + 8 - 3 + 9,25,26,25,24,2381.794995400007,2383.820387600048,2385.3353294000262,2390.354326500033,2390.8558281000005,2390.855833800044,2392.3724293000414,2393.389558200026,w,25,0.501501599967014,1,+10,608,0.17865026637099746,-0.5125924333325549,0.2061649009491422,2148406.0,1.459787450318906,0.15189304273114335,0.007305627394799341,2151940.0,-13.571562123843872,0.017725563533103283,-0.12432724521115368,2265831.0,2384.8199351864578,2381.2859351864577,2498.710935186458
124,43,20,f,1,3,116.0,2,3,low,3 + 8 + 1 + 5 - 9,8,9,7,8,2394.906297600013,2396.9320952999988,2398.4478331000428,2403.4659795000334,2404.655840600026,2404.655845900008,2406.17220000003,2407.189081700053,e,8,1.189861099992413,1,+1,609,25.54471913502551,0.004695412906990271,0.009145958275061705,2161518.0,7.6356074833534375,-0.4557868249787149,-0.03760302808725324,2165052.0,-11.606045981467318,0.3728594458488046,0.4151955728971197,2172775.0,2397.931935186458,2394.3979351864577,2405.654935186458
125,43,20,f,1,3,117.0,3,3,high,7 - 1 + 8 - 6 + 4,12,11,12,13,2408.7058267000248,2410.7306765000103,2412.2458982000244,2417.26475110004,2417.775819100032,2417.775824600016,2419.29284010001,2420.310188500036,w,12,0.5110679999925196,1,+10,619,9.764797751111587,0.1687569631141166,-0.053654892379555896,2175316.0,-7.720228619530688,0.13020161556473653,-0.07417905380041301,2178850.0,10.524483442369526,-0.5651260139094014,-0.03213238426051079,2185896.0,2411.7299351864576,2408.1959351864575,2418.775935186458
126,43,20,f,1,3,118.0,4,3,low,9 - 5 - 1 - 6 + 8,5,5,4,7,2421.8265837000217,2423.8528410000145,2425.367827100039,2430.385999899998,2431.0717658000067,2431.071771300049,2432.5883803000324,2433.6052938000066,q,5,0.6857659000088461,1,+1,620,-2.517967047820569,-0.341815987804563,0.01796022036236522,2188438.0,1.759571488483754,0.255991263934785,0.19191936885689387,2191972.0,43.491686541764935,-0.21457207482170082,-0.18605419024743197,2199191.0,2424.851935186458,2421.317935186458,2432.0709351864575
127,43,20,f,1,3,119.0,5,1,high,3 + 1 + 8 + 1 + 1,14,12,14,13,2435.121992500033,2437.1491076000384,2438.66489070002,2443.682785000012,2444.2077739000088,2444.2077791000484,2445.7242529000505,2446.741529300052,w,14,0.5249888999969698,1,+10,630,42.595237619165886,-1.3041477997032218,-3.433404582500788,2201735.0,15.836546897581407,0.019509824322344826,0.15390917753706512,2218404.0,20.574920478256068,-0.2727675116402839,0.3349526500354991,2225407.0,2451.2839351864577,2434.614935186458,2458.286935186458
128,43,20,f,1,3,120.0,6,1,high,9 + 7 + 1 + 1 + 1,19,18,19,20,2448.258551900042,2450.285206600034,2451.8001233999967,2456.8186224999954,2457.287801700004,2457.2878069000435,2458.8042665999965,2459.8221053000307,w,19,0.4691792000085115,1,+10,640,-5.7283891984605635,-0.12856708234189274,0.06327075267787796,2214871.0,-2.99895335137776,-0.6337170939227561,0.08500385977276559,2341459.0,20.704934925724388,-0.6576735916698189,-0.044335268829220675,2305278.0,2574.3389351864575,2447.750935186458,2538.1579351864575
129,43,20,f,1,3,121.0,7,2,high,5 - 8 + 7 + 1 + 1,6,7,6,8,2461.33865520003,2463.366491599998,2464.881719099998,2469.900168300024,2470.3757302000304,2470.3757352000102,2471.892136600043,2472.909483700001,w,6,0.4755619000061415,1,+10,650,-34.990382154198606,-0.44612643207640934,-0.04906773947696497,2227952.0,7.0920518028982364,0.3186130713394313,0.18223100918462598,2231486.0,25.752728066435957,-1.1217976507792482,-0.00648186301844067,2251607.0,2464.3659351864576,2460.831935186458,2484.4869351864577
130,43,20,f,1,3,122.0,8,2,high,2 + 1 + 9 - 4 + 1,9,8,11,9,2474.4262255000067,2476.4483380000456,2477.9641123000183,2482.9821192000527,2483.4876698000007,2483.487674700038,2485.004103100044,2486.0210059999954,e,9,0.5055505999480374,1,+10,660,3.0714410902504046,0.46835774113014317,0.13394118523987508,2241034.0,-24.050096507026993,0.42544622500633134,0.10072182851739164,2244567.0,5.754612270015757,-0.30079976200406944,-0.11751011969911662,2278919.0,2477.4469351864577,2473.913935186458,2511.7989351864576
131,43,20,f,1,3,123.0,9,4,high,5 + 8 - 4 - 6 + 9,12,14,12,13,2487.537370100036,2489.5655827000155,2491.0806769000483,2496.0985552000348,2497.712220300047,2497.7122264000354,2499.2281851000157,2500.245112500037,w,12,1.6136651000124402,1,+10,670,63.250313437648934,0.10230503612591502,0.04668151088744388,2254151.0,-39.679919365902165,-0.33400439277761107,0.018757123368252415,2257684.0,-44.29173007316096,0.10822718661988251,-0.10878362995915114,2319143.0,2490.563935186458,2487.0309351864576,2552.0229351864577
132,43,20,f,1,3,124.0,10,2,low,6 + 1 + 7 + 5 - 1,18,17,18,16,2501.761923300044,2503.787408400036,2505.3024354000227,2510.322297400038,2510.7997007000376,2510.799706900026,2512.316512699996,2513.333422399999,w,18,0.4774032999994233,1,+1,671,17.717252319664386,-0.07906443570181754,-0.19273179227186188,2268373.0,-20.890689810283163,0.4464879380166873,-0.07502374692336877,2271908.0,-21.318824561060985,0.16965195717215353,-0.168754344085301,2292047.0,2504.7879351864576,2501.2529351864578,2524.9269351864577
133,43,20,f,1,3,125.0,11,2,high,9 + 5 - 6 + 1 - 1,8,9,8,7,2514.850469900004,2516.876041400013,2518.3907354000257,2523.409943700012,2523.927687200019,2523.927692600002,2525.4442559000454,2526.4611943000345,w,8,0.5177435000077821,1,+10,681,-3.5764569574248304,-0.18106724471135793,1.404394600015248,2281461.0,22.584676336981637,0.2817578353734165,0.07805095185300148,2284995.0,17.31840858027796,-0.012130353298124064,-0.027560728787958677,2376806.0,2517.8749351864576,2514.3409351864575,2609.6859351864578
134,43,20,f,1,3,126.0,12,1,low,2 + 9 + 1 + 1 + 1,14,12,14,13,2527.9778922999976,2530.003183300025,2531.518395400024,2536.5381293999963,2537.159633100033,2537.1596386000165,2538.676232500002,2539.6930705000414,w,14,0.6215037000365555,1,+1,682,34.74467829842574,-0.8565904795375339,-0.01394548661226902,2294588.0,2.057265649104126,-0.010285145186140543,-0.08787643329119432,2298123.0,-2.454887099084523,-0.24041846724968563,0.0034523718934531544,2348599.0,2531.0029351864578,2527.467935186458,2581.478935186458
135,43,20,f,1,3,127.0,13,4,high,3 + 8 - 7 + 9 - 5,8,9,7,8,2541.2096172000165,2543.235655700031,2544.75040780002,2549.770319300005,2551.023633000033,2551.023638500017,2552.540119800018,2553.55694780004,e,8,1.2533137000282295,1,+10,692,16.01481965943005,0.4080068383609343,0.8073025662152862,2307821.0,14.046983618122683,-0.2637715371921505,-0.06706413497775388,2311356.0,26.21813225540446,-0.5557254273462142,-0.4343383206445215,2456382.0,2544.235935186458,2540.7009351864576,2689.261935186458
136,43,20,f,1,3,128.0,14,3,high,6 + 1 + 8 + 7 - 9,13,14,13,15,2555.0736221999978,2557.0997611000203,2558.614934900019,2563.6334196000244,2567.2636810000404,2567.263686600025,2568.7804086999968,2569.798136700003,w,13,3.6302614000160247,1,+10,702,8.910798263852115,0.21022093764892613,-0.09265633976481658,2321685.0,-6.8329190863681735,-0.02738703281452226,-0.015537926391301582,2325219.0,-56.3765902555173,-0.1136369033352671,-0.06957955737558374,2335383.0,2558.0989351864578,2554.5649351864577,2568.2629351864575
137,43,20,f,1,3,129.0,15,1,high,8 + 1 + 1 + 1 - 3,8,9,6,8,2571.314936800045,2573.339958800003,2574.8552736000274,2579.87432360003,2580.479630000016,2580.4796352999983,2581.99622500001,2583.0137722000363,e,8,0.6053063999861479,1,+10,712,9.618260517912855,0.45120410722097803,-0.030221957828374224,2337925.0,16.273601356040352,0.4640922985428779,-0.2504904713939111,2505310.0,-5.203077529538563,0.34402282675585516,0.013605105154815833,2361974.0,2738.1899351864577,2570.804935186458,2594.853935186458
138,43,20,f,1,3,130.0,16,1,low,7 - 1 + 1 + 9 - 1,15,15,13,14,2584.5305178000126,2586.5568894000025,2588.0727578000515,2593.091404400009,2593.855771100032,2593.8557759000105,2595.3724268000224,2596.3893152000383,q,15,0.764366700022947,1,+1,713,13.635822130161703,0.177123541628744,-0.05843090931868011,2351142.0,-2.4065675958962984,-0.07233823815369655,0.07858701491340914,2354677.0,13.426335533621096,0.15080987545580538,0.027392190348848544,2390206.0,2587.556935186458,2584.0219351864575,2623.085935186458
139,43,20,f,1,3,131.0,17,2,low,7 + 6 + 1 - 1 - 8,5,5,4,3,2597.9060848000227,2599.9331199000007,2601.4481987000327,2606.468101200008,2608.687667899998,2608.6876730000367,2610.204243800021,2611.221522900043,q,5,2.219566699990537,1,+1,714,-52.403414404995885,-0.059166280779775704,-0.44984355547651234,2364518.0,-13.22059251178236,-0.6181123058283569,0.025622245441747626,2368053.0,-29.64722643258461,1.4115027567464495,1.7330772193450352,2403662.0,2600.9329351864576,2597.3979351864577,2636.5419351864575
140,43,20,f,1,3,132.0,18,1,low,2 + 1 + 9 + 1 - 1,12,11,12,13,2612.7379318000167,2614.7643989000358,2616.2795528999995,2621.2976479000063,2622.087667200016,2622.087672499998,2623.604293100012,2624.62105050002,w,12,0.7900193000095896,1,+1,715,10.101277405102714,-1.0592068976718387,-0.12505563136269715,2379349.0,17.07777215211288,6.231241691034839e-05,0.1399353811555757,2382883.0,-6.0311410141298545,-0.8410784967044815,-0.20091781411217013,2443278.0,2615.7629351864575,2612.228935186458,2676.1579351864575
141,43,20,f,1,3,133.0,19,2,low,9 + 6 + 1 + 7 + 1,24,24,25,23,2626.137499000004,2628.16434030002,2629.6795766000287,2634.6984782000072,2635.543677700043,2635.543683300028,2637.0600723000243,2638.0768371000304,q,24,0.8451995000359602,1,+1,716,-37.87574130976806,-0.05088768041523917,-0.23459749656885953,2392750.0,-50.75288926013881,-0.1979354285374164,-0.06293057859618134,2396284.0,-17.978695737522138,-0.16001758805348665,0.038701603040796506,2416878.0,2629.163935186458,2625.6299351864577,2649.757935186458
142,43,20,f,1,3,134.0,20,2,low,4 + 7 + 1 + 1 - 8,5,4,5,7,2639.5936204000027,2641.6182709000423,2643.1330702000414,2648.151397700014,2648.759578500001,2648.7595835000398,2650.2759524,2651.292808600003,w,5,0.6081807999871671,1,+1,717,-30.129771611396315,-1.8657022032567459,0.07801725159871742,2406203.0,19.707626479750996,-1.1278282659778647,-1.463716323871493,2409736.0,20.689303997587896,-0.4037227382274411,-0.0687764041388188,2430135.0,2642.6159351864576,2639.0829351864577,2663.014935186458
143,43,20,f,1,3,135.0,21,2,high,3 + 1 + 8 - 5 - 1,6,7,5,6,2652.8093785000383,2654.8369732000283,2656.351878400019,2661.3701497000293,2662.0155333,2662.01553850004,2663.533179400023,2664.550746900029,e,6,0.6453835999709554,1,+10,727,-3.8680328677933993,0.043092970224286375,-0.05477953842187455,2419422.0,-19.926892647707582,-0.00018660460083186337,0.20915356364239002,2422955.0,12.443503532537711,-0.6145022661449464,-0.8386734202331447,2482694.0,2655.8349351864576,2652.3019351864577,2715.5739351864577
144,43,20,f,1,3,136.0,22,1,low,7 - 1 + 8 + 1 - 1,14,13,12,14,2666.0676162000163,2668.0948436000035,2669.610611900047,2674.628660400049,2675.159705099999,2675.159711000044,2676.6763810000266,2677.69339130004,e,14,0.5310446999501437,1,+1,728,-18.184612350562674,-0.09856600513601954,0.04781556831351663,2432680.0,12.667254656021079,0.1039598231771448,0.1546707866093231,2436214.0,8.583717268127556,-0.640447592956181,3.7658912355769845,2469590.0,2669.0939351864577,2665.5599351864576,2702.469935186458
145,43,20,f,1,3,137.0,23,4,low,8 + 4 + 7 - 5 - 6,8,9,8,6,2679.209922400012,2681.2360018000472,2682.7507168000448,2687.769194100052,2688.263548500021,2688.2635536000016,2689.779893400031,2690.796621400048,w,8,0.49435439996887,1,+1,729,-23.0376776170735,-0.012960148903617963,0.8586111428299192,2445821.0,14.514845631674442,-0.4930523860872382,0.33654272348889114,2035628.0,-0.024911827131323117,-0.05729194994797204,-0.15408310172234208,2525838.0,2268.5079351864574,2678.7009351864576,2758.717935186458
146,43,20,f,1,3,138.0,24,1,low,3 + 1 + 8 + 1 + 1,14,14,13,16,2692.313220100012,2694.338962400041,2695.854196900036,2700.872193200048,2701.4716296000406,2701.471635500028,2702.988109500031,2704.0047464000527,q,14,0.5994363999925554,1,+1,730,0.8009476129511928,-0.2625782863793087,0.0007311187961884791,2458924.0,15.33554927341722,0.1681020472791217,0.05997602283358727,2462457.0,-31.977468300002066,-0.6183070424985151,-0.13733650999746594,2512486.0,2695.3369351864576,2691.8039351864577,2745.3659351864576
147,43,20,f,1,3,139.0,25,2,high,3 + 9 + 1 - 5 + 1,9,7,8,9,2705.521392000024,2707.5468790000305,2709.062134900014,2714.0801740000024,2714.5755356000154,2714.5755408999976,2716.0920874000294,2717.109365100041,e,9,0.4953616000129841,1,+10,740,-14.490936649709154,0.07113254889488774,-1.103289039030697,2472132.0,0.8665159104295839,-0.15007927589992054,-0.009700964604025586,2475665.0,-45.32506730548196,0.19742453917904523,0.2656529999369375,2605438.0,2708.5449351864577,2705.011935186458,2838.317935186458
148,43,20,f,1,3,140.0,26,4,low,3 + 9 - 5 + 6 + 8,21,23,21,22,2718.6259449000354,2720.6497553000227,2722.164660300012,2727.183471199998,2731.1116519000498,2731.1116590000456,2732.62829230004,2733.6454816000187,q,23,3.9281807000515983,0,+0,740,7.918262040126248,0.22734469669756274,0.02455377994972885,2485235.0,22.0174897387054,-0.4635683392943215,-2.6840272319118137,2449354.0,-22.261634837514514,-1.3126544239056122,-0.007286609507256792,2592093.0,2682.2339351864575,2718.114935186458,2824.9729351864576
149,43,20,f,1,3,141.0,27,1,high,8 - 1 + 1 + 6 + 1,15,15,14,16,2735.162168300012,2737.1909935000003,2738.70581070002,2743.724703200045,2744.3675123000285,2744.3675173000083,2745.88389930001,2746.9010560000315,q,15,0.642809099983424,1,+10,750,13.72387297374333,-0.7172682958247658,-0.36416048942541446,2501776.0,-20.93270092338665,0.682580851420314,0.37561184248637236,2531913.0,37.0865683578164,-0.246366196544205,0.15945869174971872,2539166.0,2764.7929351864577,2734.6559351864576,2772.045935186458
150,43,20,f,1,3,142.0,28,4,high,4 + 7 - 8 + 9 - 3,9,9,8,11,2748.4177376000443,2750.441877000034,2751.957307500008,2756.976050800004,2757.7195772000123,2757.719583099999,2759.2357576000504,2760.25262460002,q,9,0.7435264000087045,1,+10,760,-26.937625026165186,0.2985960811655426,-0.13987091348836822,2515027.0,-28.81965367242644,-0.3473045796336862,0.314846547557349,2518561.0,12.059107673233104,-0.40718898701089223,-0.7832618109997287,2621357.0,2751.440935186458,2747.9069351864578,2854.2369351864577
151,43,20,f,1,3,143.0,29,1,high,3 + 1 + 9 + 1 + 1,15,17,15,14,2761.769347100053,2763.794995500008,2765.310278600024,2770.3280717000016,2771.047502900008,2771.047508000047,2772.5638555000187,2773.580998699996,w,15,0.7194312000065111,1,+10,770,22.85478117090623,-0.0073231081338835935,-0.15907350408642662,2528380.0,-36.94233806939868,-0.22308647361125367,0.2123462149871158,2545242.0,-18.359578301428762,-0.2290341884619016,0.28399806115483317,2552558.0,2778.121935186458,2761.259935186458,2785.4379351864577
152,43,20,f,1,3,144.0,30,1,high,6 + 9 + 1 + 1 - 1,16,16,15,14,2775.0973998000263,2777.12478490005,2778.639719400031,2783.6576094000484,2784.4397857000004,2784.439791100041,2785.956024900021,2786.973187400028,q,16,0.7821762999519706,1,+10,780,42.836053527674146,0.2993014044002744,-0.14694714967039557,2541709.0,11.283708741861549,0.19577588118908462,0.1298764526625673,2571779.0,-8.241033610157174,0.2861321297191841,-0.059851812784467384,2565701.0,2804.6589351864577,2774.5889351864575,2798.5809351864577
153,43,20,f,1,3,145.0,31,1,low,4 + 8 + 1 - 1 - 1,11,9,13,11,2788.490376700007,2790.517953600036,2792.033171900024,2797.0509712000494,2797.583464000025,2797.583469100005,2799.1000379000325,2800.116906400013,e,11,0.5324927999754436,1,+1,781,17.437416045308144,0.6419011214848354,-0.45318975153374774,2555103.0,5.2151980489351875,0.3229305390777135,0.10776038721529879,2558636.0,-20.89700267142031,-0.37141554225640405,0.05086962737998446,2578798.0,2791.5159351864577,2787.982935186458,2811.6779351864575
154,43,20,f,1,3,146.0,32,1,high,7 + 1 + 4 + 1 - 1,12,13,12,14,2801.633698699996,2803.6597494000453,2805.1749788000016,2810.194956100022,2810.679505600012,2810.6795108000515,2812.1960498000262,2813.213242500031,w,12,0.4845494999899529,1,+10,791,12.621822243405731,0.6307772534429166,-0.06142607292899882,2568244.0,13.412505974753975,0.10773618516675043,0.5002494345116335,2627434.0,-15.373899366261604,-0.292063943371617,0.719496015434069,2634629.0,2860.313935186458,2801.123935186458,2867.5089351864576
155,43,20,f,1,3,147.0,33,4,low,8 + 5 - 4 + 7 + 9,25,26,24,25,2814.730210000009,2816.756227500038,2818.2715779000428,2823.289929600025,2823.9754515000386,2823.9754570000223,2825.491796300048,2826.508751000045,e,25,0.6855219000135548,1,+1,792,-38.16992805786478,-0.08979624401142772,-0.12946287362173692,2581341.0,31.75324142896358,-0.38230422276897524,-0.0321475743782389,2488768.0,22.070799083078487,0.13309236492971732,0.10829228302476857,2726909.0,2721.6479351864577,2814.2209351864576,2959.788935186458
156,43,20,f,1,3,148.0,34,2,high,4 + 9 - 7 + 1 - 1,6,8,5,6,2828.0254940000013,2830.049027800036,2831.5640602000058,2836.5823756000027,2837.319395300001,2837.319400300039,2838.835978100018,2839.853278400027,e,6,0.7370196999981999,1,+10,802,-11.085556708872588,0.9839029279253051,-0.0842204751915312,2594634.0,14.198766611585295,-0.34768104672500844,0.26036038446353027,2598167.0,21.69783053246456,0.04233294421880096,0.1348978834561172,2713389.0,2831.0469351864576,2827.5139351864577,2946.268935186458
157,43,20,f,1,3,149.0,35,4,low,5 + 9 - 4 + 7 + 6,23,23,25,24,2841.3700510000344,2843.3921982000466,2844.9072077000164,2849.92559670005,2853.2395165000344,2853.23952220002,2854.7561850000056,2855.773008100048,q,23,3.3139197999844328,1,+1,803,8.409968809033572,-0.0939650684365283,0.22219558498843428,2607977.0,20.424711465606713,0.36215185835873154,-0.9277622659290032,2584874.0,0.991734108949629,-0.1433810652435068,0.008951174740589263,2754350.0,2817.7539351864575,2840.8569351864576,2987.2299351864576
158,43,20,f,1,3,150.0,36,1,high,2 + 1 + 9 + 1 - 1,12,11,12,13,2857.290051400021,2859.3160937000066,2860.83131790004,2865.849436200049,2866.511376800016,2866.511381899996,2868.027864100004,2869.044783600024,w,12,0.6619405999663286,1,+10,813,29.148649149354334,-0.556558732808651,0.1664762376581126,2623901.0,-0.36729459674749343,-0.31051249105025613,0.010044056577960925,2801338.0,43.69472641002086,0.14210186344355957,0.012667499701976448,2740037.0,3034.217935186458,2856.7809351864576,2972.9169351864575
159,43,20,f,1,3,151.0,37,1,low,3 + 1 + 9 + 1 - 1,13,14,13,12,2870.561261199997,2872.586840700009,2874.102110700041,2879.120766200009,2879.607475200028,2879.6074803000083,2881.123932300019,2882.140960000048,e,12,0.4867090000188909,0,+0,813,-16.057146731253212,0.029383567744477368,-0.26365849708546873,2637171.0,10.727431264746908,0.40633447113865895,-0.21530892133597135,2640705.0,-4.175968770762194,0.06865267234678418,0.07310478502373963,2808788.0,2873.5849351864576,2870.0509351864575,3041.6679351864577
160,43,20,f,1,4,152.0,0,2,high,6 + 1 + 7 - 8 - 1,5,4,5,7,2936.083568800008,2938.1110567,2939.626236500044,2944.646237700013,2945.271393300034,2945.271399500023,2946.788108900015,2947.805293000012,w,5,0.625155600020662,1,+10,823,3.367135086153482,0.9938184233030138,2.6684933950472,2702695.0,21.687299371346967,0.018341738898018933,0.01770131972349409,2706230.0,0.15693820848651718,-0.48274305959444774,-0.04687352956053825,2849028.0,2939.1099351864577,2935.574935186458,3081.9079351864575
161,43,20,f,1,4,153.0,1,4,low,9 + 3 - 5 + 8 + 6,21,21,23,19,2949.3220862000016,2951.3441590000293,2952.8594317000243,2957.8775931000127,2958.791436300031,2958.7914423000184,2960.308234700002,2961.3247146000504,q,21,0.9138432000181638,1,+1,824,22.352605406179205,-0.011953510017494784,-0.1480042605883196,2715928.0,9.338865047546477,-0.4975831139211362,-0.020956428181356124,2611510.0,-12.520976612152523,-0.3098600057141847,-0.08063720082859493,2795261.0,2844.389935186458,2948.8079351864576,3028.1409351864577
162,43,20,f,1,4,154.0,2,1,low,5 + 1 + 1 + 9 + 1,17,16,17,19,2962.8412978000124,2964.865165400028,2966.3803171000327,2971.398606600007,2971.919406800007,2971.919412100048,2973.436051000026,2974.452696000051,w,17,0.5208001999999397,1,+1,825,8.888341754153345,0.05217296393561255,-0.11215444335207048,2729449.0,13.63381736643965,-0.0015504018222269877,0.09914473997724205,2732983.0,-9.377382292660187,-0.5273033290703841,0.055532977350819746,2822253.0,2965.862935186458,2962.328935186458,3055.132935186458
163,43,20,f,1,4,155.0,3,4,high,4 + 8 + 9 - 3 + 7,25,26,24,25,2975.9698877000483,2977.9981632000417,2979.5133328000084,2984.531713800039,2986.231338200043,2986.231343600026,2987.7484050000203,2988.765614300035,e,25,1.6996244000038132,1,+10,835,23.67360880190431,-0.0028050862722837078,0.09179781239948737,2742582.0,-2.7608713276792862,-0.1616670414652206,0.11682269063685102,2746116.0,-4.079960997844811,-1.507198247854511,-0.7435537545490343,2915781.0,2978.9959351864577,2975.4619351864576,3148.6609351864577
164,43,20,f,1,4,156.0,4,3,low,6 - 1 + 7 - 8 + 9,13,13,11,12,2990.2822417000425,2992.3074859000044,2993.82279580005,2998.841862100002,2999.903354800015,2999.903360299999,3001.419450600049,3002.436826500052,q,13,1.061492700013332,1,+1,836,-22.435396701044578,0.18035556769653716,0.13533035417885841,2756891.0,8.809007052671209,0.16460779924973745,-0.07477643006602053,2760425.0,11.3959302565447,-0.07782471440657779,-0.15166814002077977,2768021.0,2993.304935186458,2989.770935186458,3000.900935186458
165,43,20,f,1,4,157.0,5,3,low,7 - 1 + 9 - 5 + 4,14,13,15,14,3003.958544900001,3005.9844470000244,3007.4996741000214,3012.5180619000457,3013.3673117000144,3013.3673174,3014.883812300046,3015.901326799998,e,14,0.8492497999686748,1,+1,837,-8.8155113114776,0.21686937020559438,-0.039402306023163636,2770569.0,-5.625822238595438,-0.09879555084283753,0.1644739160499864,2774102.0,-15.380733504295751,0.09580257067187059,-0.05212691054059504,2781485.0,3006.9819351864576,3003.4489351864577,3014.364935186458
166,43,20,f,1,4,158.0,6,4,low,9 + 8 - 5 - 7 + 6,11,13,11,10,3017.4180231000064,3019.442796600051,3020.957926700008,3025.977278000035,3027.14330180001,3027.143307200051,3028.659905200009,3029.6767869000323,w,11,1.166023799974937,1,+1,838,0.8590865885860235,0.3031475325798416,-0.055877480340068564,2784027.0,14.542835883112634,0.11779938163508574,-0.0329470388471198,2719462.0,12.324783719744179,-0.005396637433094487,-0.35322480019234437,2929220.0,2952.3419351864577,3016.9069351864578,3162.0999351864575
167,43,20,f,1,4,159.0,7,1,high,9 + 8 + 1 + 1 - 1,18,19,18,17,3031.193522900052,3033.218932600052,3034.734118200024,3039.7536202000338,3040.671315200045,3040.671320400026,3042.1872900000308,3043.2043472000514,w,18,0.9176950000110082,1,+10,848,10.551405323610663,-0.138767406030754,0.17808058446383646,2797803.0,9.329707937051733,-0.0804646977327006,-0.13604669178502604,2894654.0,-51.01621072123918,1.0427063062370556,1.2684395103844397,2901829.0,3127.5339351864577,3030.6829351864576,3134.708935186458
168,43,20,f,1,4,160.0,8,1,low,8 + 1 + 1 + 1 - 4,7,7,5,8,3044.721206600021,3046.7467531000148,3048.2618050000165,3053.280015700031,3054.135351100005,3054.135357100051,3055.652184400009,3056.6688193000155,q,7,0.8553353999741375,1,+1,849,32.47389052182346,0.04036203421959783,0.12246621920634038,2811331.0,-35.95464435538349,0.010486916810845681,0.06947630729949417,2814864.0,-37.230540564238495,0.9912580104943562,-1.5950386143620388,3203084.0,3047.7439351864577,3044.210935186458,3435.9639351864575
169,43,20,f,1,4,161.0,9,3,high,4 + 1 + 8 + 9 - 5,17,19,18,17,3058.18567960005,3060.2105880000163,3061.7257602000027,3066.7447626000503,3067.4712140000192,3067.4712197000044,3068.987581800029,3070.0047532000463,e,17,0.726451399968937,1,+10,859,-15.913153867474362,0.3618931972376127,0.11078532309901301,2824794.0,26.601034869282866,0.031213401716149836,0.10622978064042954,2828329.0,-0.9072002678069229,0.19075169105141665,-0.13113957391716613,2835589.0,3061.208935186458,3057.6739351864576,3068.4689351864577
170,43,20,f,1,4,162.0,10,2,low,2 + 9 - 4 + 1 + 1,9,11,9,8,3071.5214002000284,3073.5466910999967,3075.061907000025,3080.079919700045,3080.911183900025,3080.9111895000096,3082.42778800003,3083.4446275000228,w,9,0.831264199980069,1,+1,860,10.854931628532357,0.11281338806783969,-0.06949888573140783,2838131.0,45.0276121415853,-0.26687894160817294,-0.009485591186426001,2841664.0,-0.1566140050943119,-0.6233931073150445,0.01754860730445018,2862277.0,3074.543935186458,3071.0109351864576,3095.1569351864578
171,43,20,f,1,4,163.0,11,2,high,6 + 1 + 8 + 5 - 1,19,17,18,19,3084.961343300005,3086.9865426000324,3088.5019310000357,3093.5210992000066,3094.1593439000426,3094.159349600028,3095.675921200018,3096.6932574000093,e,19,0.6382447000360116,1,+10,870,3.5041222293332344,0.48455734044071574,0.09247474785947207,2851571.0,7.260259388493621,-0.4050702575505287,-0.025802425267165807,2855105.0,11.85364683641915,-0.045848040927026545,-0.11352179273579655,2982732.0,3087.9849351864577,3084.4509351864576,3215.6119351864577
172,43,20,f,1,4,164.0,12,3,high,3 - 7 + 5 + 1 + 9,11,12,13,11,3098.2100442000083,3100.2348448000266,3101.750048100017,3106.768100900052,3107.327193300007,3107.3271986000477,3108.8436940000392,3109.860841900052,e,11,0.5590923999552615,1,+10,880,-1.0579442933665106,-0.18312222849216697,-0.06902245048881661,2864819.0,1.3879997109805338,0.4691274527763394,0.14851594796593903,2868352.0,-8.039695169351894,0.09493207790018321,0.06510523208396157,2875445.0,3101.2319351864576,3097.6989351864577,3108.324935186458
173,43,20,f,1,4,165.0,13,3,high,2 + 1 + 9 - 5 + 6,13,14,11,13,3111.377745800012,3113.40069020004,3114.9159386000247,3119.933861700003,3120.463178100006,3120.4631834000465,3121.9799221000285,3122.9976041000336,e,13,0.5293164000031538,1,+10,890,46.932352814031574,0.03943956828725925,0.06935050845157309,2877985.0,-5.050972142576908,-0.16000296361540034,-0.03726779110344025,2881518.0,0.9012225011150079,-0.30814127109466183,-0.037312686366249626,2888581.0,3114.3979351864577,3110.864935186458,3121.460935186458
174,43,20,f,1,4,166.0,14,1,high,6 + 9 + 1 + 1 - 1,16,15,14,16,3124.5140611000243,3126.5372652000515,3128.052226300002,3133.070070100017,3133.711220099998,3133.7112255000397,3135.227769100049,3136.244973300025,e,16,0.6411499999812804,1,+10,900,-16.10449915548518,-0.3104718252918146,-0.05046174113713753,2891121.0,-10.032321608334328,-0.3873649220783859,-2.123270192068486,3271157.0,-13.352644541318753,0.11349681252226906,0.17920615880769608,3216507.0,3504.036935186458,3124.000935186458,3449.386935186458
175,43,20,f,1,4,167.0,15,4,high,3 + 8 - 4 + 9 + 6,22,21,23,22,3137.7614136000047,3139.7859178000363,3141.3012624999974,3146.319416900049,3147.663234000036,3147.663239400019,3149.179974800034,3150.196889600018,e,22,1.3438170999870636,1,+10,910,5.79089270505165,0.015858235368003015,-2.720802521644876,2904369.0,-10.323499031502493,-0.6033798235227836,0.17071396940393901,2907903.0,10.87111799373914,-0.04992809380570673,0.005501371505390651,2942789.0,3140.7829351864575,3137.248935186458,3175.668935186458
176,43,20,f,1,4,168.0,16,4,low,2 + 9 - 4 + 8 + 7,22,22,21,23,3151.714087200002,3153.739520000003,3155.2547286000336,3160.274406900048,3161.1032053000527,3161.10321120004,3162.61992680002,3163.636795300001,q,22,0.8287984000053257,1,+1,911,-32.45004686170738,0.47525891123539754,0.5012130978312879,2918323.0,8.650560124295245,-0.28048258179469654,0.05326091901596164,2787562.0,-12.604918126027986,0.3375120120510773,-0.09574723166948917,2956060.0,3020.4419351864576,3151.2029351864576,3188.9399351864577
177,43,20,f,1,4,169.0,17,4,low,7 + 6 - 9 + 8 - 3,9,9,7,8,3165.154066900024,3167.177618400019,3168.6924126000376,3173.710864600027,3174.6713684000424,3174.671374300029,3176.1881646999973,3177.2050003000186,q,9,0.9605038000154308,1,+1,912,16.656553987941788,-0.27360301989193614,-0.37735444950081565,2931761.0,-9.213739160644684,-0.050765494484828366,-0.1731461335263802,2921858.0,9.460938801015068,-0.05594763487437682,0.6703549350584339,2969316.0,3154.737935186458,3164.6409351864577,3202.1959351864575
178,43,20,f,1,4,170.0,18,4,high,7 + 8 - 4 + 6 - 5,12,12,11,13,3178.7217793000164,3180.74688240001,3182.262242200028,3187.280554099998,3187.943195400003,3187.9432005000417,3189.459401900007,3190.476646199997,q,12,0.662641300004907,1,+10,922,3.9940725084312554,0.05308665919025879,0.814214436325428,2945331.0,21.554215778534683,-0.2274592700336786,0.06827124217054337,2948864.0,28.35372648163855,-0.2917128127854758,-0.015234236668732137,2995972.0,3181.7439351864577,3178.210935186458,3228.851935186458
179,43,20,f,1,4,171.0,19,4,high,4 + 7 + 9 - 5 + 7,22,23,22,24,3191.993918000022,3194.0178552000434,3195.533043000032,3200.551247399999,3201.199136900017,3201.1991420999984,3202.715773600037,3203.732718700019,w,22,0.6478895000182092,1,+10,932,-6.35907018358051,-0.008058953306549377,-0.1823694584407196,2958601.0,-0.013834188470966069,-0.8779850604595625,0.08787124320216222,2962135.0,12.529906725397208,-0.10190885771920222,-0.37108049045268876,3108740.0,3195.014935186458,3191.480935186458,3341.6199351864575
180,43,20,f,1,4,172.0,20,2,high,9 + 6 + 1 + 7 + 1,24,24,23,25,3205.2498818000317,3207.274919999996,3208.7901354000205,3213.808261500031,3214.615106200042,3214.6151117000263,3216.1316096000373,3217.148908200033,q,24,0.8068447000114247,1,+10,942,-0.508081090263218,0.18423336443442873,0.27034766490867135,2971858.0,3.8778520707504596,0.07313863948906985,0.05907171830183078,2975392.0,-9.943307201716586,0.02195788263662113,-1.2554510173852664,3011052.0,3208.2719351864575,3204.737935186458,3243.931935186458
181,43,20,f,1,4,173.0,21,4,low,8 + 4 + 7 - 5 - 6,8,9,6,8,3218.6657849000185,3220.689575200028,3222.2047628000146,3227.223215000005,3227.855119500018,3227.855124900001,3229.37141740002,3230.38824130001,e,8,0.6319045000127517,1,+1,943,4.863000959658656,0.08526030787631589,-0.14440627451682087,2985273.0,-12.161782103606791,-0.10001637201667757,0.08113962643829176,2935294.0,33.22055759725946,0.7857857118925322,-0.07236875712480728,3136043.0,3168.1739351864576,3218.152935186458,3368.922935186458
182,43,20,f,1,4,174.0,22,2,high,3 + 8 + 1 - 5 + 1,8,9,8,6,3231.9048762000166,3233.928791200044,3235.443999400013,3240.4621891000425,3242.9350988000515,3242.935104700038,3244.451664399996,3245.4687067000195,w,8,2.4729097000090405,1,+10,953,-12.00448527829429,-0.2810799617211508,0.15742979840766314,2998512.0,24.122407101396494,0.06425532665004052,0.015027144795133118,3002046.0,2.6690091829177653,0.3237053613628378,0.5183480881327092,3024163.0,3234.9259351864575,3231.391935186458,3257.0429351864577
183,43,20,f,1,4,175.0,23,2,low,7 + 6 + 1 + 8 + 1,23,22,23,21,3246.9853613000014,3249.010939800006,3250.526223700028,3255.5448953000014,3256.04705340002,3256.0470583999995,3257.563201800047,3258.580192100024,w,23,0.5021581000182778,1,+1,954,38.6935270991028,-0.09084602304667477,-0.09281862040166855,3013594.0,-2.7087456333657984,-0.6208878514403988,-0.20575018439270654,3017128.0,40.688428184601314,0.07681384695938043,0.6651670189496128,3162723.0,3250.007935186458,3246.4739351864578,3395.6029351864577
184,43,20,f,1,4,176.0,24,1,low,4 + 7 + 1 - 1 - 1,10,10,11,9,3260.097111900046,3262.1216679000063,3263.6367910000263,3268.6567216000403,3270.2311530000297,3270.231159000017,3271.7476345000323,3272.764872000029,w,11,1.5744313999894075,0,+0,954,-4.963479032348722,-0.8317513617326293,0.19164774317465527,3026705.0,-18.94309751530854,0.41038947878193843,0.018787551954463577,3030240.0,18.914455363722873,-0.13082644031565316,-0.11789945214609698,3278604.0,3263.1199351864575,3259.5849351864576,3511.4839351864575
185,43,20,f,1,4,177.0,25,3,low,7 + 1 + 9 + 5 - 6,16,16,15,14,3274.282401500037,3276.3071517000208,3277.8222740000347,3282.840512500028,3283.759069600026,3283.759074500005,3285.275463500002,3286.292232100037,q,16,0.9185570999979972,1,+1,955,-8.142252862191022,-0.436198326326648,1.2108139516767293,3040890.0,-16.75455796852821,0.1443156143275237,0.12780978238867657,3044424.0,6.794545733089549,0.10841384952438915,-0.8930419775948346,3051876.0,3277.3039351864577,3273.7699351864576,3284.755935186458
186,43,20,f,1,4,178.0,26,3,high,8 + 4 + 1 - 7 + 9,15,16,13,15,3287.8088810000336,3289.8319041000213,3291.3476716000005,3296.366016400046,3297.199009100033,3297.1990141000133,3298.7153772000456,3299.732272699999,e,15,0.8329926999867894,1,+10,965,5.673216748817255,-0.29074144801247614,-0.1476012473285575,3054415.0,19.096665106372228,0.6546037699405183,0.23708958427143134,3057949.0,-12.04456463254187,-0.12636265224210863,-0.13825766203667822,3065316.0,3290.828935186458,3287.2949351864577,3298.1959351864575
187,43,20,f,1,4,179.0,27,3,high,2 + 1 + 9 - 4 + 6,14,14,15,16,3301.2487067000475,3303.2718341000145,3304.7870944000315,3309.804983000038,3311.839119000011,3311.8391242000507,3313.355667900003,3314.3729506000527,q,14,2.034135999972932,1,+10,975,-33.95049829624527,0.2605482260538534,-0.14453725355329095,3067855.0,-5.429037876581138,-0.2975363562016735,-0.13602814357449677,3071388.0,-24.682550388300612,0.022362029302479325,-0.381143799309166,3079956.0,3304.2679351864576,3300.7349351864577,3312.835935186458
188,43,20,f,1,4,180.0,28,3,low,6 + 8 + 7 + 1 - 9,13,13,14,15,3315.8896312,3317.914383800002,3319.429990300036,3324.448496200028,3327.4390550000244,3327.439060900011,3328.955671800009,3329.97254050005,q,13,2.9905587999965064,1,+1,976,-6.028716481644313,0.43026851981717185,0.20087095346731054,3082497.0,2.079381241365925,0.07410232029562991,-0.06703519260535185,3086032.0,-1.0487345347826,0.057932164614703296,0.9223968085507552,3095556.0,3318.911935186458,3315.3769351864576,3328.4359351864578
189,43,20,f,1,4,181.0,29,4,high,2 + 5 - 3 + 9 + 8,21,19,21,22,3331.48921910004,3333.512948700052,3335.028110000014,3340.0470662000007,3340.623027100053,3340.623032900039,3342.139653500053,3343.157341900049,w,21,0.5759609000524506,1,+10,986,1.9155707168861138,0.17221391554541388,-0.24795777926782447,3098096.0,-8.24815986085081,0.019448466757932437,0.02216644192816153,3101630.0,-15.082405258633557,-0.36603657120572475,-0.828325930257074,3149491.0,3334.509935186458,3330.9759351864577,3382.3709351864577
190,43,20,f,1,4,182.0,30,3,high,8 - 1 + 6 - 7 + 5,11,13,11,12,3344.6741694000084,3346.698561500001,3348.213466800051,3353.231904300046,3353.9269770000246,3353.9269821000053,3355.443509900011,3356.4607491000206,w,11,0.695072699978482,1,+10,996,-28.404698173588358,-0.14108922704400362,-0.04104352327631178,3111282.0,2.720571645247875,-0.9782016372455047,-0.10663601216905327,3114815.0,-3.72554863277694,-3.1662489016363216,-1.8449325883178496,3122044.0,3347.6949351864578,3344.161935186458,3354.9239351864576
191,43,20,f,1,4,183.0,31,4,low,5 + 7 - 4 + 6 + 9,23,25,23,24,3357.9773375000223,3360.002938300022,3361.5181963000214,3366.536583100038,3367.9270196,3367.9270252000424,3369.443548500014,3370.460496600019,w,23,1.390436499961652,1,+1,997,-0.6573848975369811,-3.052238336598414,-14.765842333484828,3124586.0,-2.4649824334559414,-0.19643798980749105,-0.44596310850786836,2988807.0,3.133550960346888,0.5164523206637233,-0.8765293355579407,3176387.0,3221.6869351864575,3357.4659351864575,3409.266935186458
192,43,20,f,1,4,184.0,32,4,low,7 + 8 - 4 + 6 + 5,22,23,21,22,3371.977327900008,3373.999063800031,3375.5142309000366,3380.5326498000068,3381.37518610002,3381.375191400002,3382.89146080002,3383.9083546000184,e,22,0.8425363000133075,1,+1,998,6.0670079121584415,0.03890597762480663,0.051752721724567685,3138582.0,-28.126622013022523,0.4902908541264903,-0.2003977438379918,3128120.0,-22.7542607522311,0.007782891197203767,-1.0306056772101728,3265083.0,3360.9999351864576,3371.4619351864576,3497.962935186458
193,43,20,f,1,4,185.0,33,2,low,4 + 9 - 7 + 1 - 1,6,8,6,5,3385.42505900003,3387.4530756000318,3388.968292800011,3393.987019699998,3394.60707800003,3394.607084200019,3396.123499200039,3397.140124700032,w,6,0.6200583000318147,1,+1,999,-0.49682210507046776,0.7041659503472304,1.8979364927533844,3152036.0,17.53247121801668,-0.2116197984349366,-0.13552971079629472,3155570.0,,,,,3388.449935186458,3384.915935186458,
194,43,20,f,1,4,186.0,34,4,low,3 + 9 - 4 + 7 + 6,21,21,19,20,3398.65710880002,3400.6817225000123,3402.1969363000244,3407.216610000003,3408.2710018000216,3408.271007500007,3409.7872346000518,3410.804090500053,q,21,1.054391800018493,1,+1,1000,6.479473196217887,-0.2417836488595695,-0.05559141048577487,3165265.0,6.850450203967075,-0.8500643805697443,0.20319076907310585,3142115.0,,,,,3374.9949351864575,3398.1449351864576,
195,43,20,f,1,4,187.0,35,3,high,4 + 7 + 1 + 9 - 5,16,18,16,17,3412.320820900029,3414.348066900042,3415.86304320005,3420.8810528000467,3421.559003000031,3421.5590079000103,3423.0747899000417,3424.0920268000336,w,16,0.6779501999844797,1,+10,1010,13.347250236878914,-0.1293175474720889,0.22198576441364315,3178931.0,-52.429257296432034,-0.23051570317464698,0.20828302002942767,3182464.0,-1.7463820300021062,-0.9674269362287391,-1.1639379592918844,3189675.0,3415.3439351864577,3411.8109351864578,3422.554935186458
196,43,20,f,1,4,188.0,36,1,low,6 + 1 + 1 + 9 - 1,16,15,14,16,3425.6091971000424,3427.634823200002,3429.150080100051,3434.1691174000152,3434.966954100004,3434.9669597000466,3436.483769200044,3437.5011847999995,e,16,0.797836699988693,1,+1,1011,-36.78779758928724,-1.7041099827572506,0.264401570163447,3192217.0,-19.429568440463285,-0.6856454018951355,-0.008713073381728442,3195752.0,,,,,3428.6319351864577,3425.096935186458,
197,43,20,f,1,4,189.0,37,1,low,8 + 1 + 1 - 1 - 4,5,6,5,3,3439.0179385000374,3441.039968700032,3442.554904300021,3447.572999200027,3448.390983699996,3448.390989000036,3449.9075099000474,3450.924291600008,w,5,0.8179844999685884,1,+1,1012,-39.60032704795802,-0.12891715552316274,0.7128934044452162,3205623.0,14.494263931850343,0.809678641556927,-0.09738562385607863,3209156.0,,,,,3442.0359351864577,3438.5029351864578,
198,43,20,f,1,5,190.0,0,4,high,4 + 7 - 8 + 9 - 4,8,9,8,7,3487.7874678000226,3489.8132106999983,3491.3284292000462,3496.3485877000494,3496.9669687999994,3496.966974400042,3498.4831198000466,3499.500276800012,w,8,0.6183810999500565,1,+10,1022,1.5617938301530252,0.7233729161747591,2.3496070213866376,3254396.0,14.99615423816661,-0.28897062183239974,-0.047700001813308024,3257931.0,,,,,3490.8109351864578,3487.275935186458,
199,43,20,f,1,5,191.0,1,1,high,8 + 1 + 5 + 1 + 1,16,16,17,15,3501.0177436000085,3503.042006200005,3504.556451600045,3509.574391000031,3510.4869857000303,3510.486991200014,3512.004432500049,3513.0216771000414,q,16,0.9125946999993176,1,+10,1032,-9.372525113669468,0.2588800196029539,0.12192493425025264,3267624.0,,,,,,,,,,3500.5039351864575,
