,id,age,sex,cued,block,trial,trialinblock,efflev,rewlev,calc,corAns,option1,option2,option3,tstart,ITI1Time,probTime,respTime,selectTime,ITI2Time,fbTime,ITI3Time,key_press,chosenAns,RT,acc,feedback,total_points,cuescr,cuecor,cuezyg,cuetime,probscr,probcor,probzyg,probtime,fbscr,fbcor,fbzyg,fbtime,probtime_c,cuetime_c,fbtime_c
0,44,21,F,0,Practice,,0,1,0,4 + 1 + 9 + 1 + 1,16,16,15,14,554.5016797999851,,554.5016821000027,559.7580067999661,561.0819614999928,561.0819678000407,562.599108699942,563.6200849999441,q,16,1.3239547000266612,1,Correct,0,,,,,10.843806358326749,-0.2648575995614042,-0.06873812041393101,219657.0,33.10496110754116,-0.3488386079039536,-0.1088058454598877,227519.0,554.7421718459925,,562.6041718459926
1,44,21,F,0,Practice,,1,1,0,3 + 1 + 1 + 8 - 1,12,11,10,12,565.13717979996,,565.1371828999836,570.1584114000434,572.0100694999564,572.0100759000052,573.5268484000117,574.5444559999742,e,12,1.8516580999130383,1,Correct,0,,,,,-6.388349161203259,-0.6435285862282578,2.5177739086341306,230057.0,0.69354013690727,-0.08410422889632141,-0.6531655549903261,238443.0,565.1421718459925,,573.5281718459926
2,44,21,F,0,Practice,,2,2,0,8 + 1 + 6 + 1 - 4,12,12,11,10,576.0622528999811,,576.0622581000207,581.0820771999424,582.1458926999476,582.1458991999971,583.6630717000226,584.6807484000456,q,12,1.0638155000051484,1,Correct,0,,,,,9.933470641432805,1.0161663678427848,-0.01344425208866884,240981.0,10.444746198451458,-0.14156827611485578,0.08278034450129468,248580.0,576.0661718459926,,583.6651718459925
3,44,21,F,0,Practice,,3,2,0,9 + 4 - 6 + 1 - 1,7,5,6,7,586.1980599999661,,586.1980629999889,591.2173332000384,595.9778818000341,595.9778878999641,597.4947338999482,598.5470132000046,w,6,4.760548599995673,0,Incorrect,0,,,,,26.295202853153977,0.5421917603314039,0.0343073434352017,251116.0,19.805307418115703,-0.059947322366602496,0.7443876376669412,262445.0,586.2011718459926,,597.5301718459925
4,44,21,F,0,Practice,,4,3,0,9 + 3 - 5 + 6 + 7,20,21,20,22,600.0639906999422,,600.0639939999674,605.083431600011,606.2099315000232,606.2099378999555,607.7266718000174,608.7436051999684,w,20,1.126499900012277,1,Correct,0,,,,,-5.019969771721268,-0.20468507962532634,-0.3371193130388712,264982.0,-32.748358261842576,-0.4192171892779184,0.19079969472153469,272643.0,600.0671718459926,,607.7281718459925
5,44,21,F,0,Practice,,5,3,0,2 + 1 + 9 - 7 + 6,11,10,11,9,610.2606248999946,,610.2606280000182,615.2810098000336,616.6579227000475,616.6579288999783,618.1750207999721,619.1930221000221,w,11,1.3769129000138491,1,Correct,0,,,,,7.008104396331724,1.1564795594742954,1.1263291863004345,275180.0,10.140436895487383,-0.37459556788075243,0.060112058114179856,283092.0,610.2651718459925,,618.1771718459925
6,44,21,F,0,Practice,,6,4,0,4 + 8 + 5 - 3 + 7,21,23,21,22,620.7102608999703,,620.7102639999939,625.7310725999996,627.4659043999854,627.4659104000311,628.9826139999786,630.0011976000387,w,21,1.734831799985841,1,Correct,0,,,,,-0.7532371046175275,0.2716742615858596,-0.49322501649278605,285630.0,6.384802236806177,0.2744148440288052,-0.26721870416688165,293900.0,620.7151718459925,,628.9851718459925
7,44,21,F,0,Practice,,7,4,0,5 + 8 - 4 + 6 + 9,24,24,22,23,631.5185937000206,,631.5185969000449,636.5379883999703,638.0418835999444,638.0418895999901,639.5590384999523,640.5771948000183,q,24,1.5038951999740675,1,Correct,0,,,,,-52.90882953106562,-0.19715729153601114,-0.034641003490982536,296437.0,-2.996670034367668,0.24867855413848616,-0.14764831337092987,304476.0,631.5221718459925,,639.5611718459925
8,44,21,F,1,0,0.0,0,2,low,7 + 5 + 1 + 9 + 1,23,21,23,22,808.6394003999885,810.6921367000323,812.2074273000471,817.2319064999465,818.1274567999644,818.1274621000048,819.6443992999848,820.6612778999843,w,23,0.8955503000179306,1,+1,1,6.142099892536791,0.24427273250288772,-1.3937616849396193,473590.0,10.636369418541218,0.19110564643988281,-0.28638460724975623,477130.0,-29.699374340216437,-0.829048168902641,-3.509915358915322,484560.0,812.2151718459925,808.6751718459925,819.6451718459925
9,44,21,F,1,0,1.0,1,3,low,6 + 7 + 8 + 1 - 9,13,14,15,13,822.1786085000494,824.2154102999484,825.730694500031,830.7495077999774,831.6712492000079,831.671254200046,833.1878828000044,834.2049990999512,e,13,0.9217414000304416,1,+1,2,13.722391976943022,0.0494299481534326,-0.24909225738532204,487114.0,-9.553376920845928,0.26965213298261137,-0.24655601318137688,490648.0,28.948774709847918,-0.3673812948052877,-0.30760213951476567,498103.0,825.7331718459925,822.1991718459925,833.1881718459925
10,44,21,F,1,0,2.0,2,1,high,8 - 1 + 1 + 6 + 1,15,16,15,14,835.72178240004,837.7672185000265,839.2819680999964,844.3002449000487,844.9752810000209,844.9752860999433,846.4913502000272,847.5090321999742,w,15,0.6750360999722034,1,+10,12,-27.217577142590883,-0.299603753996291,-0.48683018311639614,500665.0,-17.53920981049349,-0.012477005406646313,-0.29256586396932427,504199.0,-10.617211341541779,0.2599239043342054,0.05352352353187184,511407.0,839.2841718459925,835.7501718459926,846.4921718459925
11,44,21,F,1,0,3.0,3,1,high,6 + 1 + 1 + 7 - 1,14,13,14,12,849.0261782000307,851.0524650999578,852.5675600999966,857.5863854000345,858.1913892000448,858.1913944999687,859.708063099999,860.7255361999851,w,14,0.6050038000103086,1,+10,22,8.655365598050288,0.12901932850453246,0.058109797137872565,513951.0,0.4003798225985502,-0.2841300484469005,-0.020021010280504736,517484.0,1.5492363399786004,0.24592963581491256,0.025360611487461382,524624.0,852.5691718459925,849.0361718459926,859.7091718459926
12,44,21,F,1,0,4.0,4,4,low,9 + 3 - 5 + 8 + 6,21,19,23,21,862.2425543999998,864.2845585000468,865.7995674000122,870.8184646000154,871.5433923000237,871.5433972999454,873.0600117000286,874.0770157999359,e,21,0.7249277000082657,1,+1,23,-15.962011003596876,0.43773603216665036,-0.1038560910273496,527183.0,20.251305696983962,-0.5684188181186327,-0.014098724085287673,530716.0,-2.9930812015605603,0.006141084355933302,0.10970118755839553,537975.0,865.8011718459925,862.2681718459926,873.0601718459925
13,44,21,F,1,0,5.0,5,2,high,4 + 1 + 9 + 1 - 6,9,7,9,8,875.593714299961,877.6679945000215,879.183311700006,884.2016509999521,885.0072597999824,885.0072651000228,886.5238599999575,887.5411838999717,w,9,0.8056088000303134,1,+10,33,-8.49096716023991,0.09843587480778737,0.03637375919069141,540566.0,-22.586245824371947,0.2511369887058721,0.038491164429214964,544100.0,10.638235354615652,-0.41974672073041575,1.0944155895869327,551439.0,879.1851718459925,875.6511718459926,886.5241718459924
14,44,21,F,1,0,6.0,6,4,high,7 + 8 - 4 + 6 + 5,22,23,21,22,889.0580429999391,891.0991766999941,892.6148206000216,897.6332593000261,898.4633673999924,898.4633727000328,899.9800574999535,900.9973243999992,e,22,0.83010809996631,1,+10,43,-19.037565783009313,1.8495670486389124,-0.0927149298486345,553998.0,-17.81784505870452,-0.38023515083266846,0.6663401043129245,557531.0,17.760548795175527,0.18183613167215595,-0.4023528160044876,564896.0,892.6161718459925,889.0831718459926,899.9811718459925
15,44,21,F,1,0,7.0,7,3,high,3 + 1 + 6 - 8 + 9,11,11,12,13,902.5141485000496,904.5600698000052,906.0746775999432,911.0929629999446,911.7593087999848,911.7593143000267,913.2756722000196,914.2933152000188,q,11,0.6663458000402898,1,+10,53,15.212925000601038,0.1735817044611041,-0.2273140306257977,567458.0,-2.9997268727789645,-0.1354735647007037,-0.014267218348873012,570991.0,-7.567852106863025,0.4478286461123271,0.2860657244149212,578191.0,906.0761718459926,902.5431718459924,913.2761718459926
16,44,21,F,1,0,8.0,8,3,high,8 - 1 + 6 - 7 + 5,11,11,13,12,915.810095999972,917.8357316999465,919.3510753000156,924.3694419999374,925.0952900999692,925.095295200008,926.6119131000014,927.6295730000128,q,11,0.7258481000317261,1,+10,63,-48.86868602388638,-0.3221807601979174,0.1629631052539886,580734.0,6.364020302662352,0.11563628536282211,0.22697989805567786,584268.0,2.8574843289959064,0.6760650989068302,-0.2196660019186778,591527.0,919.3531718459926,915.8191718459925,926.6121718459926
17,44,21,F,1,0,9.0,9,2,high,4 + 9 + 1 - 7 - 1,6,5,8,6,929.1463667999489,931.1732748999492,932.688599599991,937.70750280004,939.5111933000152,939.5111984999384,941.02778689994,942.045135000022,e,6,1.803690499975346,1,+10,73,-8.424945496809794,-0.16090155577672283,0.06344010728530458,594071.0,10.54682176019161,0.4242500490796588,-0.3477292940881851,597605.0,-7.876773392829135,-0.13039078225739198,-0.834738879965188,605943.0,932.6901718459926,929.1561718459925,941.0281718459926
18,44,21,F,1,0,10.0,10,1,low,6 + 9 + 1 + 1 - 1,16,14,16,15,943.5620370999676,945.5896595000522,947.104672000045,952.1235234000488,952.8152246000244,952.8152296999468,954.3318243999964,955.3487042000052,w,16,0.691701199975796,1,+1,74,1.4791884753226938,-0.2114745958772506,-0.1641333735010484,608488.0,-23.64777537503994,-0.5401716909210093,0.1096190731896689,612022.0,-8.653126070384168,0.04263740903424651,0.25430243533020747,619247.0,947.1071718459925,943.5731718459926,954.3321718459924
19,44,21,F,1,0,11.0,11,3,low,4 + 7 - 3 + 5 - 1,12,11,13,12,956.865637699957,958.8933748999845,960.4085784000343,965.4280436999396,966.3272398000116,966.3272452999372,967.8441137999762,968.8613165999996,e,12,0.8991961000720039,1,+1,75,0.17038485957505856,-0.33080233312805163,-0.3889096615686376,621791.0,-18.710420487909783,-0.00022280191760426504,0.12423482395181251,625326.0,10.24142916607865,-0.39062194382770965,-0.8242124592733133,632759.0,960.4111718459926,956.8761718459925,967.8441718459926
20,44,21,F,1,0,12.0,12,4,low,6 + 9 - 7 + 8 - 5,11,11,13,12,970.3781550000422,972.406058399938,973.9212227000388,978.941280900035,979.6071977999528,979.60720269999,981.1236518999794,982.1405740999616,q,11,0.6659168999176472,1,+1,76,-0.13003894856128184,0.4271106138649614,-0.4431630362627619,635303.0,-31.595584200090126,0.6402116325231768,0.2730955889013984,638839.0,31.014421345722187,-0.21917301002099254,1.094741536020933,646039.0,973.9241718459925,970.3881718459925,981.1241718459926
21,44,21,F,1,0,13.0,13,2,high,8 + 1 + 9 + 1 - 4,15,14,16,15,983.6573991000188,985.6801145999924,987.1954016999808,992.2135327999712,992.7832626999588,992.7832678999984,994.2998830999712,995.3171600999776,e,15,0.5697298999875784,1,+10,86,38.77139335445316,-0.32617943264138827,-0.7044924907309156,648579.0,13.730509105004128,0.49625096980003436,-0.8426482552207317,652111.0,-14.24949511967416,-1.796467198933195,0.4980546910465635,659215.0,987.1961718459925,983.6641718459925,994.3001718459925
22,44,21,F,1,0,14.0,14,3,low,6 - 1 + 7 - 8 + 9,13,12,13,11,996.8343597999774,998.8595975999488,1000.3746734999586,1005.392573100049,1006.255270099966,1006.255275100004,1007.771930799936,1008.789036400034,w,13,0.8626969999168068,1,+1,87,16.97971108132049,0.1776940883809166,-0.24902715952322074,661758.0,-6.37478048965529,-0.08365107098727798,0.8041192923160232,665291.0,24.264417477669756,-0.43133405764174526,0.022381373363540957,672687.0,1000.3761718459925,996.8431718459926,1007.7721718459925
23,44,21,F,1,0,15.0,15,1,low,4 + 9 + 1 - 1 - 1,12,11,13,12,1010.3058973000152,1012.3326267999364,1013.8475750000216,1018.8660296000309,1019.9351743999867,1019.9351797000272,1021.4517665000168,1022.4686942000408,e,12,1.0691447999561206,1,+1,88,-12.25062610330356,-0.01686613123212144,-0.13306262404262226,675230.0,27.329498135342945,-0.2649368090170512,0.00183452629971681,678764.0,-27.07718830128653,0.4357970966415188,-0.012694413059273879,686367.0,1013.8491718459925,1010.3151718459926,1021.4521718459926
24,44,21,F,1,0,16.0,16,2,low,7 + 5 + 1 - 1 - 8,4,4,3,2,1023.9854782000184,1026.0105423999485,1027.5260489999782,1032.546040999936,1033.295159799978,1033.2951651000185,1034.8118007000303,1035.8287911999505,q,4,0.7491188000421971,1,+1,89,-8.064711169180136,-0.025868549897687387,-0.30895385795331687,688908.0,27.5796168664575,-0.4962630372242147,-0.07928134219548588,692444.0,7.9741448021564585,0.5966744239506481,0.12465885547701205,699727.0,1027.5291718459926,1023.9931718459925,1034.8121718459925
25,44,21,F,1,0,17.0,17,2,high,6 + 8 + 1 + 1 - 7,9,8,9,11,1037.3456523000496,1039.3729523000077,1040.888353300048,1045.9072331000352,1047.5912032000488,1047.5912080999697,1049.108364499989,1050.125970000052,w,9,1.6839701000135392,1,+10,99,-5.814918106253025,-0.3204632263925369,-0.1822041646282353,702271.0,-55.00892951591512,0.2526124570159496,-0.0035108843389219935,705805.0,6.035460866853111,0.19854788705236182,0.07550250209339615,714024.0,1040.8901718459924,1037.3561718459925,1049.1091718459925
26,44,21,F,1,0,18.0,18,4,low,6 + 7 + 9 - 3 + 5,24,24,23,22,1051.642689500004,1053.6668912000025,1055.1820668999571,1060.2011589000467,1061.0231203000294,1061.0231255999531,1062.539730299963,1063.5566057999386,q,24,0.8219613999826834,1,+1,100,-16.32690414451925,0.5506750978020611,-0.065302800549347,716565.0,54.53844142722242,0.1269542445667513,-0.04867530886121996,720098.0,-33.639057494913416,0.6901796424419406,0.038085345590678665,727454.0,1055.1831718459925,1051.6501718459926,1062.5391718459925
27,44,21,F,1,0,19.0,19,4,low,4 + 7 + 8 - 3 + 9,25,26,25,24,1065.0735222999938,1067.099237399991,1068.6144821000053,1073.6332719000056,1074.2071849999484,1074.207190199988,1075.7234433999984,1076.7401606000494,w,25,0.5739130999427289,1,+1,101,-21.939550656356246,-0.19126383710887485,-0.1635368395497221,729997.0,12.57803628770056,0.6605726521247122,0.041520169928374484,733531.0,7.030836942550046,-0.37857934833065876,0.2813965628108517,740638.0,1068.6161718459925,1065.0821718459924,1075.7231718459925
28,44,21,F,1,0,20.0,20,4,high,5 + 7 - 4 - 6 + 9,11,12,13,11,1078.2571796999546,1080.285174699966,1081.8003530999413,1086.819037499954,1087.5271896000486,1087.527195099974,1089.0438371000346,1090.061461300007,e,11,0.7081521000945941,1,+10,111,16.508398142061356,0.6019707580646605,0.1910503340589247,743183.0,-22.285768045596125,-0.1906697589501487,0.11342548243607342,746717.0,12.800874477812386,0.2958557307945364,0.12020342709143228,753959.0,1081.8021718459925,1078.2681718459926,1089.0441718459924
29,44,21,F,1,0,21.0,21,1,low,8 + 1 + 1 - 1 - 4,5,5,6,3,1091.578975399956,1093.6050093000522,1095.1198317999952,1100.139064899995,1101.2791695999913,1101.2791745000286,1102.79568510002,1103.8119140999625,q,5,1.1401046999963,1,+1,112,0.991344349743212,0.0394169410659444,0.0424052457256745,756503.0,47.46523697095633,-0.5200402738946792,-0.025630074187325214,760037.0,3.481352642503177,0.916676393922117,0.03871100333893085,767710.0,1095.1221718459926,1091.5881718459925,1102.7951718459926
30,44,21,F,1,0,22.0,22,4,low,5 + 9 - 4 + 7 + 6,23,25,23,24,1105.3286080999533,1107.353941099951,1108.8694911999628,1113.8894437999695,1114.4870203000028,1114.4870254000416,1116.0036441000411,1117.020500099985,w,23,0.5975765000330284,1,+1,113,-20.608731659037186,-0.2548168694200763,-1.5141588972811175,770252.0,5.9318790533044625,0.4130512466352254,0.061556630374457466,773787.0,-3.412955506215013,-0.2060471412595728,-0.0953274271969089,780918.0,1108.8721718459926,1105.3371718459925,1116.0031718459925
31,44,21,F,1,0,23.0,23,1,high,6 + 1 + 8 + 1 + 1,17,15,16,17,1118.5374503999485,1120.562786299968,1122.077911500004,1127.097223500023,1127.9271404000465,1127.9271456999704,1129.443497600034,1130.4603651999496,e,17,0.829916900023818,1,+10,123,10.180308406713968,0.17766030069062655,0.12498399727665466,783460.0,-24.83623204822899,-0.3110397756475871,0.14552967930634053,786995.0,17.477865222833188,0.43908075383684153,-0.08458469560915471,794358.0,1122.0801718459925,1118.5451718459926,1129.4431718459925
32,44,21,F,1,0,24.0,24,2,high,4 + 7 + 1 + 1 - 8,5,5,4,7,1131.9772173999809,1134.0025085000088,1135.5178091999842,1140.5378580000252,1142.4630177000072,1142.4630231000483,1143.979723699973,1144.9970190000022,q,5,1.925159699982032,1,+10,133,-7.805734678818358,-0.40391585044701817,0.05265901799244843,796900.0,3.343446340070386,-0.09839515416757205,0.017408154712249768,800435.0,-24.91168005574422,-0.5828155610397241,-0.3434497387871631,808895.0,1135.5201718459925,1131.9851718459925,1143.9801718459926
33,44,21,F,1,0,25.0,25,3,high,2 + 1 + 9 - 5 + 6,13,11,13,14,1146.5137397999642,1148.5402533999877,1150.0553506000433,1155.0748091000132,1155.6230327000376,1155.62303779996,1157.1397417000262,1158.1569581000367,w,13,0.5482236000243574,1,+10,143,1.4389831434485307,0.03723886559918288,-0.02285296643362722,811438.0,-49.63132560023225,-0.32899184600284137,0.030229191228677177,814973.0,-7.73878318441033,0.2736031100579659,-0.014057446159584597,822055.0,1150.0581718459925,1146.5231718459925,1157.1401718459924
34,44,21,F,1,0,26.0,26,2,high,8 + 1 + 1 + 9 - 4,15,14,15,16,1159.673746900051,1161.701057899976,1163.2169579999754,1168.234800199978,1168.822991700028,1168.822996599949,1170.3402103999397,1171.357905199984,w,15,0.5881915000500157,1,+10,153,-13.805242671933009,-0.1584230123246897,0.002419963322003893,824599.0,54.50988146585583,-0.039859840230270116,-0.1809788267652026,828133.0,-45.58463632428684,0.2172766606721881,-0.04902274902872428,835255.0,1163.2181718459926,1159.6841718459925,1170.3401718459925
35,44,21,F,1,0,27.0,27,2,high,3 - 1 + 9 - 5 + 1,7,6,7,5,1172.874744700035,1174.8966855000472,1176.4119514999911,1181.430242100032,1182.3111019999487,1182.3111069999868,1183.8276732000522,1184.8449551999802,w,7,0.8808598999166861,1,+10,163,-0.48689380376915636,0.6764080859572248,0.011096388365333887,837794.0,-19.197613367265937,-0.31427156007580415,0.028852822718306914,841328.0,4.968707494713769,0.44072892024483545,0.0090762442429011,848742.0,1176.4131718459926,1172.8791718459925,1183.8271718459926
36,44,21,F,1,0,28.0,28,2,high,3 + 9 + 1 - 5 + 1,9,8,7,9,1186.3619248999748,1188.3836473999545,1189.8994687000522,1194.917352700024,1195.6950497999787,1195.6950549000176,1197.211116899969,1198.228290900006,e,9,0.7776970999548212,1,+10,173,31.87870004580572,0.21239701756765328,-0.32131512498104153,851281.0,10.74297698897466,0.05797193639201126,-0.07232220791740307,854815.0,11.983308143888209,-0.2543952683882278,-0.2761339084648782,862126.0,1189.9001718459926,1186.3661718459925,1197.2111718459926
37,44,21,F,1,0,29.0,29,4,low,7 + 8 - 4 + 6 - 5,12,12,11,13,1199.7450853999471,1201.7711684999522,1203.2864644000074,1208.3050439000365,1209.0550595000386,1209.055064899963,1210.5717352000063,1211.5885418000398,q,12,0.7500156000023708,1,+1,174,35.14707905525206,-0.7685280908462366,2.942173644879121,864669.0,2.8882975933593187,-0.5666954438104752,-1.5324086303915103,868203.0,-11.021920581467167,0.6242036988431496,-1.7770074970008611,875486.0,1203.2881718459926,1199.7541718459925,1210.5711718459925
38,44,21,F,1,0,30.0,30,4,low,8 + 4 + 7 - 5 - 6,8,6,9,8,1213.1052685000468,1215.129399699974,1216.6446644000243,1221.665337900049,1225.6630936999572,1225.6630990999984,1227.1794252999823,1228.1969853000485,w,9,3.997755799908191,0,+0,174,-5.098863573298413,-0.06510970680409578,-0.19022012324909587,878027.0,10.220654347896788,-0.0857047852953241,-0.05838019010707329,881563.0,-18.58166478766144,0.1912096433306658,0.028417237341505475,905982.0,1216.6481718459925,1213.1121718459926,1241.0671718459926
39,44,21,F,1,0,31.0,31,4,low,8 + 4 - 5 + 7 - 6,8,6,7,8,1229.7138299000217,1231.7397023000522,1233.2550234999508,1238.2751880999422,1239.550966299954,1239.5509717999958,1241.0673602999886,1242.084169000038,e,8,1.2757782000117004,1,+1,175,21.826452852834095,-0.09287800497993715,-0.24792408939179356,894637.0,5.828093938182217,-0.2378095839254346,-0.05149425761313342,898173.0,-19.2033719572094,0.7065353661616856,-0.015439243191717411,919262.0,1233.2581718459926,1229.7221718459925,1254.3471718459925
40,44,21,F,1,0,32.0,32,4,high,2 + 9 - 3 + 5 + 8,21,22,23,21,1243.6008865999756,1245.6270755999722,1247.1423825999957,1252.1611529999643,1252.8309119000332,1252.830916799954,1254.3474868000485,1255.3652783000143,e,21,0.6697589000687003,1,+10,185,-20.287329338581433,-0.012491686492206888,0.10344068512170868,908524.0,15.24817095308882,0.24778171081607958,-0.20784625176662597,912059.0,-41.61822175993817,-0.2395861438582667,-0.06739166388332207,932686.0,1247.1441718459926,1243.6091718459925,1267.7711718459925
41,44,21,F,1,0,33.0,33,4,high,8 + 7 - 4 + 5 + 9,25,25,24,26,1256.8822695999406,1258.9051149999725,1260.4203172000125,1265.4387147999369,1266.255006200052,1266.255011399975,1267.7715743000151,1268.788766899961,q,25,0.8162914001150057,1,+10,195,-41.49865810457616,-0.37876710039106065,0.09971605719854226,921803.0,-2.420662556800253,0.26051314287764704,0.05164123327219938,925336.0,9.225630562021287,0.42209225371252135,0.2626695760763129,945974.0,1260.4211718459926,1256.8881718459925,1281.0591718459925
42,44,21,F,1,0,34.0,34,4,low,7 + 6 - 9 + 8 - 3,9,7,8,9,1270.3055734999944,1272.3284042000305,1273.8436103999848,1278.8622177999932,1279.5429840999425,1279.542989299982,1281.0594910000218,1282.0765467999736,e,9,0.6807662999490276,1,+1,196,-2.6586050702472326,-0.2877082357170284,-0.03348949359907438,935226.0,18.903934439375647,-0.1525242328826728,-0.02851287000404601,938760.0,-40.5598907435233,-0.039959375592597546,-0.12000584585109819,1195901.0,1273.8451718459926,1270.3111718459925,1530.9861718459927
43,44,21,F,1,0,35.0,35,2,high,4 + 9 - 7 + 1 - 1,6,8,6,5,1283.593360299943,1285.6189462000038,1287.1341934000377,1292.152921800036,1292.8230184999993,1292.8230238000397,1294.3395937000168,1295.3565259999596,w,6,0.6700966999633238,1,+10,206,18.11850484213903,-0.6788315026022032,-0.23229947111139881,948516.0,12.636944469009098,0.38542380848071733,0.22777132180094606,952050.0,25.108515825592328,-0.43043406698984654,0.03567542752814368,959254.0,1287.1351718459925,1283.6011718459924,1294.3391718459925
44,44,21,F,1,0,36.0,36,1,high,6 + 1 + 8 + 1 - 1,15,14,15,13,1296.8736365999794,1298.901369899977,1300.416933599976,1305.4361566000152,1306.0469199999934,1306.0469249000307,1307.5637736000351,1308.5812608000124,w,15,0.6107633999781683,1,+10,216,-16.779343687641045,0.7114304329781307,2.090145393383852,961799.0,26.707337968298628,-0.13102159408062208,-3.337033525818667,965334.0,-26.095606627736924,0.28190985619199616,0.038012803813366025,972479.0,1300.4191718459924,1296.8841718459926,1307.5641718459926
45,44,21,F,1,0,37.0,37,1,low,6 + 9 + 1 + 1 - 1,16,14,16,15,1310.0977399999974,1312.1244054000126,1313.6399918999523,1318.657793899998,1319.3429944999516,1319.342999799992,1320.8595187000465,1321.8764052999904,w,16,0.6852005999535322,1,+1,217,-16.847487942732428,0.04780545038027473,0.046462343846866316,975022.0,-26.20335846632001,-0.16820667185590032,-0.03481012130298078,978555.0,21.793227017599417,0.14843983887750056,0.027856003467042978,985774.0,1313.6401718459924,1310.1071718459925,1320.8591718459925
46,44,21,F,1,1,38.0,0,3,low,5 + 6 + 7 - 1 - 9,8,8,7,9,1425.7236820999533,1427.751001699944,1429.2661513000494,1434.2863671999658,1435.4308887999505,1435.4308959000043,1436.9479239999782,1437.9652569999453,e,9,1.1445215999847278,0,+0,217,-4.155930183539583,-2.3485490798916397,-0.241314558955817,1090649.0,6.144225539312407,-0.3552157373568705,-0.195124073689539,1094183.0,25.45536201133647,-0.20402676724819102,-0.0742193513658913,1128510.0,1429.2681718459926,1425.7341718459925,1463.5951718459926
47,44,21,F,1,1,39.0,1,1,low,3 + 1 + 1 + 9 - 1,13,13,14,12,1439.482275999966,1441.5092194000026,1443.0244852999458,1448.0425029000037,1448.6707623000257,1448.670767399948,1450.187473800033,1451.204410700011,q,13,0.6282594000222161,1,+1,218,-22.80885081548083,0.12698277666265634,-0.07464185769097398,1104406.0,-35.74234390293667,-0.38707413630975385,-0.06780593410210822,1107940.0,-0.26752611833328555,-0.15213921365453098,0.12045645793223558,1115101.0,1443.0251718459926,1439.4911718459925,1450.1861718459927
48,44,21,F,1,1,40.0,2,3,high,6 - 1 + 7 - 8 + 9,13,13,11,12,1452.7213716999397,1454.7455572000472,1456.2608052999713,1461.2804484999506,1462.0788553999737,1462.0788602000102,1463.5955315999454,1464.6134161000373,q,13,0.7984069000231102,1,+10,228,-8.870592963663206,0.5526070187626222,-0.17632154149592982,1117642.0,16.339295482356647,-0.8312727932174937,0.5610218054403537,1121177.0,6.8076905575411555,0.02336766572209026,-0.08124023979354766,1142670.0,1456.2621718459925,1452.7271718459926,1477.7551718459927
49,44,21,F,1,1,41.0,3,3,high,7 + 1 + 9 + 5 - 6,16,16,14,15,1466.13034969999,1468.1522880999837,1469.6675181000028,1474.6862072000513,1476.2388179999543,1476.2388229999924,1477.7553911999566,1478.7735151000088,q,16,1.55261079990305,1,+10,238,-11.482440503175388,0.19361483813602343,-0.053859307130446954,1131050.0,35.437278702786884,-0.17793757932849363,0.2356783305010981,1134583.0,-0.3184467608611268,0.03445920586595985,-0.110366339604405,1169101.0,1469.6681718459927,1466.1351718459925,1504.1861718459927
50,44,21,F,1,1,42.0,4,2,low,4 + 9 - 7 + 1 - 1,6,8,6,5,1480.2903832000447,1482.3168892000103,1483.8320784999523,1488.8523298000218,1489.4148816999514,1489.4148871999932,1490.9314502000343,1491.9483673999785,w,6,0.5625518999295309,1,+1,239,-17.33410873274304,0.712769143604981,0.02685865454707881,1145214.0,2.1315258539061155,0.8634401240709657,0.2704350218828844,1148749.0,15.376775114324765,0.25192981288198757,-0.6493288763300962,1155845.0,1483.8341718459926,1480.2991718459925,1490.9301718459926
51,44,21,F,1,1,43.0,5,3,high,7 - 1 + 8 - 6 + 4,12,12,11,13,1493.4653611000394,1495.4936918000458,1497.007969500031,1502.0267274000216,1502.6707723999862,1502.6707781000296,1504.1872700999957,1505.204639500007,q,12,0.6440449999645352,1,+10,249,29.796845665614036,0.5433850810268308,0.26553755409163937,1158390.0,33.642776606945944,0.10628414271701114,-0.016705137955745908,1161924.0,-62.097032926598764,0.3656110572278606,0.03130057787814389,1209637.0,1497.0091718459926,1493.4751718459927,1544.7221718459925
52,44,21,F,1,1,44.0,6,2,low,7 + 8 + 1 + 9 + 1,26,26,25,24,1506.7213737999557,1508.7484923000447,1510.263616399956,1515.2835554999765,1515.9906971999444,1515.990701999981,1517.5071957999608,1518.5240260999417,q,26,0.7071416999679059,1,+1,250,-36.14780715264595,-0.542197335452685,0.08131194427569,1171645.0,14.257197448218175,-0.8616753843340339,0.07843402909089203,1175180.0,-4.631245192658994,0.03877040615323857,0.05336151038208037,1182421.0,1510.2651718459927,1506.7301718459926,1517.5061718459926
53,44,21,F,1,1,45.0,7,4,high,3 + 9 - 5 + 6 + 8,21,22,23,21,1520.040755199967,1522.0681140000231,1523.5834420999745,1528.6016714000143,1529.4708120999858,1529.4708177000284,1530.98713090003,1532.004440999939,e,21,0.8691406999714673,1,+10,260,-1.041448173303067,0.15863094286256807,0.2151564872427918,1184965.0,16.923991564510928,0.8844736424692115,-0.10704676943104996,1188499.0,33.451002845886705,-0.14510511462322917,-2.7217606485280053,1262854.0,1523.5841718459926,1520.0501718459925,1597.9391718459926
54,44,21,F,1,1,46.0,8,3,high,3 + 1 + 8 - 5 + 9,16,15,17,16,1533.521527600009,1535.546449800022,1537.061738600023,1542.0807965999702,1543.2068687999854,1543.2068739000242,1544.7233649999837,1545.7405951999826,e,16,1.1260722000151873,1,+10,270,-3.70347671073257,-0.7140307369837569,0.5614331449012897,1198443.0,-2.4717406706577982,-0.17980823386332379,0.02173987642796371,1201978.0,-5.325374079183465,0.3549854584289349,-0.018874894352312932,1222837.0,1537.0631718459927,1533.5281718459926,1557.9221718459926
55,44,21,F,1,1,47.0,9,3,low,5 + 1 + 7 - 8 + 6,11,9,13,11,1547.2573700000066,1549.2804373999825,1550.7955984999426,1555.8140157000162,1556.406672699959,1556.4066778999986,1557.9233954999363,1558.940324599971,e,11,0.5926569999428466,1,+1,271,17.86595520083629,0.29328169565006146,0.15786569729673938,1212177.0,-3.6740216398395433,0.2684353060128686,0.3901717243303757,1215711.0,14.13264467729076,-0.1722449702599338,-3.080272378332214,1276214.0,1550.7961718459926,1547.2621718459925,1611.2991718459925
56,44,21,F,1,1,48.0,10,2,high,2 + 1 + 9 - 4 + 1,9,8,9,11,1560.4573130999925,1562.480798500008,1563.9960299000377,1569.0158182999585,1569.4547242999545,1569.45472899999,1570.9712027000496,1571.9883011999773,w,9,0.438905999995768,1,+10,281,10.267763644276314,-0.18366245403789305,-0.42207758860843336,1225377.0,-34.25199175952726,0.3012242257700235,-0.043778664467848394,1228913.0,2.947013705708181,0.17041523502230582,0.44904235737181764,1235885.0,1563.9981718459926,1560.4621718459925,1570.9701718459926
57,44,21,F,1,1,49.0,11,1,low,2 + 1 + 9 + 1 - 1,12,13,11,12,1573.5051886000438,1575.5325734999496,1577.0477536999388,1582.0662120999768,1582.662747399998,1582.6627527000385,1584.1792079999575,1585.1961728000315,e,12,0.5965353000210598,1,+1,282,59.336949718063636,0.5837728580959629,0.007889648778420355,1238429.0,-4.116616703452966,-0.43532833692137274,-0.07420665260204196,1241963.0,-9.681426924386582,0.6241222672892954,0.5801721162890217,1249093.0,1577.0481718459926,1573.5141718459927,1584.1781718459927
58,44,21,F,1,1,50.0,12,4,low,8 + 4 + 7 - 5 - 6,8,7,8,9,1586.7129719000077,1588.739254300017,1590.2545000000391,1595.272851799964,1596.4227093999507,1596.4227147999918,1597.9394656999502,1598.956652299967,w,8,1.149857599986717,1,+1,283,-2.591585679009592,0.2667088131647839,0.2620809746750634,1251636.0,-22.779726322307805,0.4624219246890169,0.07675414816849058,1255170.0,5.19376311204673,0.9005131113277116,-0.03246085116492381,1384949.0,1590.2551718459927,1586.7211718459926,1720.0341718459927
59,44,21,F,1,1,51.0,13,3,low,6 + 8 + 7 + 1 - 9,13,13,15,14,1600.4733539000154,1602.4991063999478,1604.0144098999444,1609.0330805999693,1609.7827526000328,1609.7827578999568,1611.300237699994,1612.31741160003,q,13,0.7496720000635833,1,+1,284,-5.723567124625271,-0.9952332408067175,0.056946181166755094,1265396.0,0.9025333168460037,-0.20548472660980277,-0.24590475786936894,1268930.0,-56.04442421985774,-0.9752326385076868,-0.03424148247894099,1371469.0,1604.0151718459927,1600.4811718459925,1706.5541718459926
60,44,21,F,1,1,52.0,14,1,low,3 + 1 + 8 - 1 + 1,12,10,13,12,1613.833967500017,1615.8618958999868,1617.3771877000108,1622.3964772999752,1623.246686700033,1623.2466918999562,1624.763246100047,1625.7808923999546,e,12,0.8502094000577927,1,+1,285,8.977467953566954,0.23977400993903242,0.24788759037893549,1278759.0,10.015801437674273,0.4317034057240292,0.12320583281424247,1282292.0,-14.60027610196541,0.19140512672503096,-0.04284363429819438,1289677.0,1617.3771718459925,1613.8441718459926,1624.7621718459925
61,44,21,F,1,1,53.0,15,1,high,3 + 1 + 8 + 1 + 1,14,13,14,12,1627.297857500031,1629.3258314999985,1630.8416510999668,1635.8596222000197,1636.3906673999736,1636.3906730000162,1637.9072453000117,1638.9245267000515,w,14,0.5310451999539509,1,+10,295,30.00896216197188,1.8123558767853263,0.14956093177596985,1292223.0,-10.312281818512613,-0.21140087062730206,-0.21635725895585955,1295756.0,9.410067049224029,-0.8883618677583467,-0.07767064532900236,1302821.0,1630.8411718459927,1627.3081718459925,1637.9061718459925
62,44,21,F,1,1,54.0,16,2,high,9 + 4 + 5 + 1 - 1,18,18,17,19,1640.4413173999635,1642.4688101999927,1643.984578200034,1649.0029245000333,1649.6626470000483,1649.6626517999684,1651.179449700052,1652.1969018999953,q,18,0.6597225000150502,1,+10,305,-25.991094716197992,0.04934772825610256,-0.0008081272924820304,1305366.0,-7.231742923921866,0.05796311376268015,0.026539168751625652,1308899.0,-23.544695896129582,-1.300638223466403,0.08470010865664235,1316093.0,1643.9841718459925,1640.4511718459926,1651.1781718459927
63,44,21,F,1,1,55.0,17,4,high,2 + 9 - 4 + 8 + 7,22,22,23,21,1653.7138015000382,1655.7412032999564,1657.2564287999412,1662.2749039999908,1665.2547492999583,1665.254754499998,1666.7714618999744,1667.7883954000426,w,23,2.9798452999675646,0,+0,305,-0.6054628378950717,-0.20547901306439265,0.1250867987665223,1318638.0,14.67213443575099,0.15199321291632195,0.005645388520708616,1322171.0,-8.228761791942546,-0.3799714523864255,-0.14991539120745823,1425644.0,1657.2561718459926,1653.7231718459925,1760.7291718459926
64,44,21,F,1,1,56.0,18,1,low,7 + 1 + 5 + 1 - 1,13,12,14,13,1669.3049338000128,1671.332223400008,1672.848411899991,1677.8668113000458,1678.446622999967,1678.4466280000051,1679.963466300047,1680.980424999958,e,13,0.5798116999212652,1,+1,306,7.415546294298224,-2.2913044941740175,-0.1325946468963053,1334229.0,47.64846118740709,-0.2870753282032066,1.294343775017664,1337763.0,22.928890471770476,-1.1396255280989784,0.04583299470382163,1344877.0,1672.8481718459925,1669.3141718459926,1679.9621718459925
65,44,21,F,1,1,57.0,19,2,low,7 + 6 + 1 - 1 - 8,5,3,4,5,1682.4983354000142,1684.5239222999662,1686.038877199986,1691.0577641000273,1691.5666084999684,1691.5666138000088,1693.0835984000005,1694.1005390000064,e,5,0.5088443999411538,1,+1,307,2.956763307511739,0.8730752068234171,0.08154111742631298,1347420.0,36.941936093478866,-0.07880085737071241,-0.033982790745469504,1350954.0,-1.2882413692386052,-1.9555846363972602,-0.08060869058183862,1357997.0,1686.0391718459925,1682.5051718459927,1693.0821718459927
66,44,21,F,1,1,58.0,20,3,low,5 - 1 - 4 + 6 + 7,13,15,13,14,1695.617012499948,1697.6454265000066,1699.160653900006,1704.178933899966,1705.038697400014,1705.0387027999386,1706.555407100008,1707.5723918000003,w,13,0.8597635000478476,1,+1,308,12.76700793342349,0.8156133421765848,-0.8142731243691137,1360541.0,-45.243237325470325,-0.09349043026952764,0.022710835731453383,1364075.0,-24.016443260413972,-2.1247906139985693,-0.7667297933687505,1398213.0,1699.1601718459926,1695.6261718459925,1733.2981718459926
67,44,21,F,1,1,59.0,21,4,high,7 + 6 + 8 - 4 + 5,22,23,22,21,1709.0891271999571,1711.1143877999857,1712.629719999968,1717.6484194999794,1718.518697099993,1718.5187024000334,1720.0352496999549,1721.0527144999942,w,22,0.870277600013651,1,+10,318,6.19017910973988,0.15216149045673433,0.28624724417685643,1374011.0,10.905310549354745,0.08901435598772345,-0.39658126800448557,1377545.0,19.569315038983056,-0.38102501356711604,0.08791490909782773,1753675.0,1712.6301718459927,1709.0961718459926,2088.7601718459923
68,44,21,F,1,1,60.0,22,3,high,8 + 4 + 1 - 7 + 9,15,15,16,13,1722.569868599996,1724.5970137999393,1726.1122188000008,1731.1306136000203,1731.7826142000267,1731.78261939995,1733.299017900019,1734.316310200025,q,15,0.6520006000064313,1,+10,328,35.0524072822909,-0.581869944529779,-0.1428539247631071,1387493.0,34.592043118976186,0.13830061910826696,0.04307687050862885,1391027.0,-8.69515901381429,0.32445719089624436,0.009597094145309182,1411477.0,1726.1121718459926,1722.5781718459925,1746.5621718459927
69,44,21,F,1,1,61.0,23,3,high,7 - 6 + 8 + 1 + 7,17,17,16,15,1735.8323036000363,1737.8582227999575,1739.3735001999885,1744.3919070999837,1745.04652860004,1745.0465334999608,1746.5630275999429,1747.5801725999918,q,17,0.654621500056237,1,+10,338,0.4281196397488678,0.14005733919663932,0.6269768018098341,1400755.0,12.411688681423637,-0.4132423877488858,2.278318334138406,1404288.0,2.4378882220522904,0.1557010986902534,-2.908792133978672,1452557.0,1739.3731718459926,1735.8401718459927,1787.6421718459926
70,44,21,F,1,1,62.0,24,4,high,4 + 7 + 8 - 3 + 9,25,25,26,24,1749.096935800044,1751.123373799957,1752.638615099946,1757.6573630999774,1759.214702800033,1759.2147075999528,1760.7306484000292,1761.7482013000408,q,25,1.5573397000553086,1,+10,348,37.37208181132728,-1.7671448480332268,0.12357244671558876,1414020.0,-44.77187049932688,-0.23492494207001346,-0.15936305519234106,1417554.0,15.589909732351321,0.41483673162485335,0.13009805911208283,1889899.0,1752.6391718459927,1749.1051718459926,2224.9841718459925
71,44,21,F,1,1,63.0,25,1,low,8 + 1 + 1 + 1 - 3,8,9,6,8,1763.2649479999673,1765.2925183000043,1766.8084720999468,1771.8266890000086,1772.566610399983,1772.566615800024,1774.08328729996,1775.1009027999826,e,8,0.7399213999742642,1,+1,349,-26.06659803151226,0.1880358291750337,-0.0220153926539417,1428189.0,30.038867059331768,-0.12445788508829736,-1.0902679410951963,1431723.0,-9.775461220746255,-1.9944348042085664,0.6519696513821103,1438996.0,1766.8081718459925,1763.2741718459927,1774.0811718459927
72,44,21,F,1,1,64.0,26,3,high,7 - 1 + 9 - 5 + 4,14,13,14,15,1776.618241899996,1778.6456928999396,1780.160855700029,1785.1809228999773,1786.1264836000046,1786.126488500042,1787.6431575999595,1788.6612597999629,w,14,0.945560700027272,1,+10,359,-5.254210895837989,-0.12567250547836473,-2.6996569797242236,1441541.0,6.484677648390637,-0.09542747717165057,-0.24046247082795214,1445077.0,-18.79087826165744,-0.10602060184713968,0.10352424408212046,1479612.0,1780.1621718459926,1776.6261718459925,1814.6971718459927
73,44,21,F,1,1,65.0,27,1,high,5 + 1 + 1 + 9 + 1,17,17,16,19,1790.177893599961,1792.2045706999488,1793.7194417000285,1798.7369837999577,1799.206548099988,1799.2065534000285,1800.723286699969,1801.7407501999987,q,17,0.4695643000304699,1,+10,369,7.1523661532114975,-0.5953887101116906,0.1876175306961787,1455101.0,12.438195865758235,0.15827623448379136,-0.1480945711171524,1458633.0,-41.158779097224,0.42247734232106593,0.021909951101509062,1465637.0,1793.7181718459926,1790.1861718459927,1800.7221718459925
74,44,21,F,1,1,66.0,28,3,low,7 + 5 + 9 + 1 - 6,16,14,16,15,1803.2575247000204,1805.2825440999584,1806.7977982000448,1811.816217900021,1813.182493199944,1813.1824981999816,1814.6991820000112,1815.7162738000045,w,16,1.3662752999225631,1,+1,370,16.356443408170517,0.22107864201804395,-0.01884507563040949,1468179.0,49.51458204979599,-0.0035995528126191445,0.05770984543421642,1471713.0,27.83158772673857,0.16970504556692267,-0.13750483892725662,1494196.0,1806.7981718459926,1803.2641718459927,1829.2811718459925
75,44,21,F,1,1,67.0,29,3,low,9 - 5 - 1 - 6 + 8,5,5,4,7,1817.2330430999864,1819.2598281999817,1820.7751311999743,1825.7939223999856,1827.766542800004,1827.7665484000463,1829.283264299971,1830.300148300012,q,5,1.9726204000180587,1,+1,371,0.8189753452756321,-0.2780361675447516,-0.07047799800223986,1482156.0,-65.61821441633867,0.18784838330763654,0.04368876412694145,1485689.0,-35.05239041444172,0.31333636483402616,-0.3896112494079762,1700956.0,1820.7741718459927,1817.2411718459925,2036.0411718459925
76,44,21,F,1,1,68.0,30,2,low,8 + 1 + 9 + 1 - 5,14,14,15,13,1831.81726349995,1833.8450381000291,1835.3603576000316,1840.378767800052,1842.454511499964,1842.4545165000015,1843.970814100001,1844.9871979999589,q,14,2.075743699911982,1,+1,372,-0.7326459931114968,-0.47912292921740995,-0.0221639017016797,1496741.0,4.474071518442265,0.007511132540000354,-0.03186614505791541,1500275.0,9.832054426489035,-0.6510429442552557,-0.0678621949678877,1508884.0,1835.3601718459927,1831.8261718459926,1843.9691718459926
77,44,21,F,1,1,69.0,31,1,low,4 + 8 + 1 - 1 - 1,11,13,9,11,1846.5040209,1848.5295205999864,1850.044753500028,1855.0640870999775,1855.5904796000104,1855.5904842000452,1857.1069859999695,1858.1243829999585,q,13,0.5263925000326708,0,+0,372,43.83682983838366,-0.1460378550066439,0.5193531924880594,1511425.0,37.21360316021559,0.5314214363794143,-0.23141977649834833,1514960.0,14.412889895541959,0.011191788487602494,-0.7833506869185394,1548636.0,1850.0451718459926,1846.5101718459925,1883.7211718459926
78,44,21,F,1,1,70.0,32,2,low,6 + 1 + 1 + 7 - 9,6,6,4,8,1859.6406265000116,1861.6679453999968,1863.1832696000347,1868.201574499952,1869.062428900041,1869.0624341999649,1870.579048600048,1871.595951299998,q,6,0.8608544000890106,1,+1,373,7.700351960878278,-0.29520066209717477,-0.018953184161428105,1524564.0,-27.150329795933168,-0.4320883302980416,0.03126646375533726,1528098.0,-5.717643044578587,0.3927810916490606,-0.24100130293323652,1535492.0,1863.1831718459925,1859.6491718459927,1870.5771718459926
79,44,21,F,1,1,71.0,33,1,high,7 - 1 + 1 + 9 - 1,15,13,15,14,1873.112703699968,1875.1390211000107,1876.6545006999515,1881.67437230004,1882.2065065000209,1882.206512199948,1883.7230693999445,1884.73997720005,w,15,0.5321341999806464,1,+10,383,-13.446584499692122,-1.0546350308724346,0.0978525971726727,1538035.0,-0.21436525571729703,-0.12131795944114332,0.40809589620551545,1541570.0,-5.073944558111566,3.407514953538815,2.3201435920152305,1727371.0,1876.6551718459925,1873.1201718459927,2062.4561718459927
80,44,21,F,1,1,72.0,34,2,high,9 + 6 + 1 + 7 + 1,24,25,24,23,1886.2568312999792,1888.2839809999568,1889.799163299962,1894.81739630003,1895.374399499968,1895.3744046000063,1896.8911946000296,1897.908803600003,w,24,0.5570031999377534,1,+10,393,5.010522819073933,0.1566525465267845,-0.15990549435633739,1551180.0,4.763457612003902,0.07148806419941645,0.2587241698748972,1554713.0,-1.8227333650101745,0.44456325824542287,-0.19757191120824946,1561804.0,1889.7981718459926,1886.2651718459927,1896.8891718459927
81,44,21,F,1,1,73.0,35,2,high,3 + 9 - 1 - 5 + 1,7,5,7,6,1899.425260799937,1901.4499099999664,1902.9650807,1907.9834050999489,1908.6144866000395,1908.614491999964,1910.1312331999648,1911.1481705999468,w,7,0.6310815000906587,1,+10,403,-81.10684434567028,0.5047242790276174,-0.08379745536146976,1564346.0,37.24682802669487,0.23095727013130274,-0.06853363900696774,1567879.0,-8.460110508333242,0.6190796570997201,0.006762739029027021,1575044.0,1902.9641718459925,1899.4311718459926,1910.1291718459927
82,44,21,F,1,1,74.0,36,1,low,6 + 1 + 1 + 9 - 1,16,16,14,15,1912.664999400033,1914.692000500043,1916.2071587999817,1921.225058299955,1921.902377099963,1921.9023818999997,1923.4191122000336,1924.436544399941,e,15,0.6773188000079244,0,+0,403,-3.124505199066922,-0.07599226994830577,0.07840570319560358,1577588.0,-6.299635822564379,-0.019054268997960477,-0.0918827012897725,1581121.0,-0.6495787148596968,0.4364356112488803,-1.9450121431645897,1740468.0,1916.2061718459927,1912.6731718459926,2075.5531718459924
83,44,21,F,1,1,75.0,37,2,high,5 - 8 + 7 + 1 + 1,6,7,6,8,1925.9536207000488,1927.9818936999652,1929.497798700002,1934.516716100043,1937.950478099985,1937.950483600027,1939.4668633999536,1940.4841767000037,q,7,3.4337619999423623,0,+0,403,9.49581876197911,0.13106446581621434,-0.005286102766544509,1590878.0,-2.971075645819365,-0.3041995802039281,0.13199113039392563,1594412.0,55.91707615908426,0.49687310406367224,0.2247792576076324,1714131.0,1929.4971718459926,1925.9631718459925,2049.2161718459924
84,44,21,F,1,2,76.0,0,3,high,3 + 8 - 7 - 1 + 9,12,14,13,12,2025.291025500046,2027.3193374000257,2028.8345071000515,2033.854462999967,2034.5262763999635,2034.5262814000016,2036.042947400012,2037.0604000999592,e,12,0.6718133999966085,1,+10,413,9.311207074339642,-1.1140117258524214,-1.9927992012172413,1690215.0,-26.90604830121741,2.2965818402885763,-0.38217300531757115,1693750.0,41.68770374186019,-1.247141779390342,0.5810029157040173,1821026.0,2028.8351718459926,2025.3001718459925,2156.1111718459924
85,44,21,F,1,2,77.0,1,2,high,9 + 5 - 6 + 1 - 1,8,9,8,7,2038.5772215999896,2040.6046467999693,2042.1197116000112,2047.138229400036,2047.7022863000168,2047.702290999936,2049.2186991999624,2050.235921400017,w,8,0.5640568999806419,1,+10,423,17.75221971910734,-0.2745520799816217,-0.0725308660274695,1703500.0,-9.863648684241959,-0.18828648007406557,0.1359245112945895,1707034.0,-18.492572911591086,0.43674696985492556,-0.11838778922112425,1766836.0,2042.1191718459927,2038.5851718459926,2101.9211718459924
86,44,21,F,1,2,78.0,2,1,low,3 + 1 + 9 + 1 + 1,15,17,15,14,2051.754218499991,2053.781344200019,2055.295653400012,2060.3135144000407,2060.942284799996,2060.942289700033,2062.458673399989,2063.475592099945,w,15,0.6287703999551013,1,+1,424,15.89217365193838,-0.05146569087912667,3.3325236404309666,1716677.0,1.7325399616259816,-11.73678816161835,-1.1804400483249444,1720209.0,30.00405986541361,-0.07120484421515849,0.09073808758324864,1780083.0,2055.2941718459924,2051.7621718459923,2115.1681718459927
87,44,21,F,1,2,79.0,3,1,high,7 + 1 + 4 + 1 - 1,12,13,12,14,2064.9926585999783,2067.018577700015,2068.53382370004,2073.553658399964,2074.038495899993,2074.0385012000334,2075.554943399969,2076.572048299946,w,12,0.4848375000292435,1,+10,434,-8.227006658870524,-0.36815134462423504,1.8639541157281556,1729914.0,-24.284084751168734,0.30480338167399434,-2.7460198674801433,1733449.0,-8.162901671376567,0.6972205391625219,2.962081108015709,1847420.0,2068.5341718459927,2064.9991718459924,2182.5051718459927
88,44,21,F,1,2,80.0,4,4,high,6 + 9 + 7 - 3 - 5,14,14,13,12,2078.089233699953,2080.11422670004,2081.629691499984,2086.647884599981,2087.2462920999387,2087.24629749998,2088.7627958999947,2089.780671900022,q,14,0.5984074999578297,1,+10,444,24.37882449107371,0.09031180341796974,1.421357550006011,1743009.0,-3.818874492568007,-0.5782944075749161,-1.303018236986416,1746544.0,3.2744664397311,0.6485018959944178,0.00022676214496408775,2017370.0,2081.6291718459925,2078.0941718459926,2352.4551718459925
89,44,21,F,1,2,81.0,5,2,high,6 + 1 + 7 + 5 - 1,18,18,16,17,2091.2973097000504,2093.3248349999776,2094.840289999964,2099.858492700034,2100.4062365000136,2100.406241400051,2101.922793400008,2102.940775300027,q,18,0.5477437999797985,1,+10,454,22.73142522471705,0.32681950220936207,0.0387848265622166,1756220.0,-13.886029542826819,-0.25968710517358495,2.6659401175251194,1759754.0,11.225608670048615,-0.09678825255116852,0.28309818904426276,1793267.0,2094.8391718459925,2091.3051718459924,2128.3521718459924
90,44,21,F,1,2,82.0,6,1,low,6 + 9 + 1 + 1 - 1,16,15,14,16,2104.4577552999835,2106.485605099937,2108.0008700999897,2113.0186815999914,2113.6542398999445,2113.654244999984,2115.1709550999803,2116.187505500042,e,16,0.635558299953118,1,+1,455,37.26800682267077,-0.06231729399124131,0.5203743761412962,1769381.0,-25.043723668640407,-0.15865321899641582,0.4948332474233683,1772914.0,17.214458024361093,0.1572699754707716,-3.564992872544658,1874859.0,2107.9991718459924,2104.4661718459924,2209.9441718459925
91,44,21,F,1,2,83.0,7,2,low,5 + 1 + 7 - 6 + 1,8,7,6,8,2117.7041659000097,2119.7322607999668,2121.2465744999936,2126.265303399996,2126.838302099961,2126.838307400001,2128.355055100052,2129.3720287999604,e,8,0.5729986999649554,1,+1,456,13.195548966868465,-0.13781666139418025,0.3615886673693862,1782627.0,-18.829929289569122,0.8728735164570307,0.10932521726222033,1786160.0,12.482071556628487,0.48225317046543514,0.09021860218250533,1807699.0,2121.2451718459924,2117.7121718459925,2142.7841718459927
92,44,21,F,1,2,84.0,8,2,low,5 - 1 + 1 + 8 + 9,22,22,23,21,2130.888852000004,2132.9134275999386,2134.4276847,2139.4458473999985,2141.270272499998,2141.270277500036,2142.786795299966,2143.803659099969,q,22,1.824425099999644,1,+1,457,44.907873200198765,-0.45303362566993055,-0.15264785331707742,1795808.0,16.12667661009822,-0.09057558320554371,0.6039519638626314,1799341.0,14.726929863245708,-0.38645410629323695,-0.025749432861478905,1834211.0,2134.4261718459925,2130.8931718459926,2169.2961718459924
93,44,21,F,1,2,85.0,9,3,high,9 - 1 + 5 - 6 + 8,15,15,14,17,2145.320429399959,2147.347833500011,2148.862845800002,2153.881313599996,2154.598228799994,2154.5982340000337,2156.1141791000264,2157.131079099956,q,15,0.7169151999987662,1,+10,467,-3.9876006768571806,-0.09008928812098027,0.13090908641204724,1810243.0,21.255156028302046,-0.1498258852692138,0.08012246159685699,1813777.0,18.753446129093355,0.20355064976180293,-0.30925660241873487,1861595.0,2148.8621718459926,2145.3281718459925,2196.6801718459924
94,44,21,F,1,2,86.0,10,2,low,8 + 1 + 7 + 1 - 4,13,12,13,14,2158.6476481000427,2160.6741911999416,2162.189425799996,2167.2077723999973,2167.782248900039,2167.782253899961,2169.2989329999546,2170.3158885999583,w,13,0.5744765000417829,1,+1,468,-58.161246271389544,-0.48655272882757794,0.5259136651527103,1823569.0,24.311421757242435,0.2656494593600347,0.02982530184566512,1827103.0,-48.25059073869626,0.43368649442190277,0.3148653829767829,1960250.0,2162.1881718459927,2158.6541718459926,2295.3351718459926
95,44,21,F,1,2,87.0,11,1,high,9 + 8 + 1 + 1 - 1,18,17,20,18,2171.8325154000195,2173.8593147000065,2175.374613199965,2180.3922448999947,2180.990189800039,2180.9901952999644,2182.506813899963,2183.524543400039,e,18,0.5979449000442401,1,+10,478,26.11558752869316,0.6846444911062868,0.7860512818194643,1836755.0,6.4718237189099215,0.29879267533438814,-1.4843793376742243,1840288.0,13.40226124812737,-1.3614271435920093,0.1117724876298627,1903443.0,2175.3731718459926,2171.8401718459927,2238.5281718459923
96,44,21,F,1,2,88.0,12,3,low,3 - 7 + 5 + 1 + 9,11,12,13,11,2185.0407701999648,2187.0657673999667,2188.580933299964,2193.599705599947,2195.1663176999427,2195.1663228999823,2196.6829344000435,2197.699815499945,e,11,1.5666120999958366,1,+1,479,5.8558809398395235,0.785172001344022,4.616037278775003,1849961.0,-27.861531222777597,-0.8305095572768306,0.7339407081569473,1853495.0,-0.2664207749369911,0.16291436900494238,0.08232965884618704,1931098.0,2188.5801718459925,2185.0461718459924,2266.1831718459925
97,44,21,F,1,2,89.0,13,1,high,9 + 7 + 1 + 1 + 1,19,19,18,20,2199.216493600048,2201.241530500003,2202.755879299948,2207.7740427999524,2208.4302385000046,2208.4302440000465,2209.9466571999947,2210.9642589000287,q,19,0.6561957000521943,1,+10,489,-10.325732771456249,-0.24201048592807206,-0.576619270170323,1864136.0,-3.9179147435477972,0.1117242268758889,0.44160980425768237,1867669.0,1.7297595645110455,-0.02779405926940326,-0.0011676128099973315,1916578.0,2202.7541718459925,2199.2211718459926,2251.6631718459926
98,44,21,F,1,2,90.0,14,4,high,3 + 9 - 4 + 7 + 6,21,21,20,19,2212.480942999944,2214.5085219000466,2216.023724499973,2221.042436999968,2223.47014869994,2223.4701539999805,2224.986542599974,2226.003972699982,q,21,2.4277116999728605,1,+10,499,58.18080166796907,0.12840990153336218,3.1151270024077924,1877403.0,17.64398088007977,-0.4383541710299905,-1.6537862931049214,1880937.0,0.11291746830254645,0.9475083713945294,-0.002010484579515026,2056922.0,2216.0221718459925,2212.4881718459924,2392.0071718459926
99,44,21,F,1,2,91.0,15,1,low,7 - 1 + 8 + 1 - 1,14,13,12,14,2227.520821299986,2229.5474766000407,2231.0634625999955,2236.0820639999583,2237.014121299959,2237.0141264999984,2238.530637599993,2239.547727999976,e,14,0.9320573000004516,1,+1,500,11.124399202354926,0.2072112251827707,0.11240604663048503,1892443.0,0.2866837766554724,-0.014474152382889738,0.12416360878566746,1895977.0,20.461850085685224,0.1709324208644647,-0.08468523299016217,2043683.0,2231.0621718459925,2227.5281718459923,2378.7681718459926
100,44,21,F,1,2,92.0,16,1,high,4 + 1 + 1 + 7 - 1,12,12,14,13,2241.064577099984,2243.093193499953,2244.60837599996,2249.627663400024,2250.1502725000028,2250.1502790999366,2251.6661149000283,2252.6834249999374,q,12,0.5226090999785811,1,+10,510,17.811882572414145,-0.4572572082633175,0.17704147935096248,1905988.0,15.823706725083753,-0.1268836220629468,0.009236459780254558,1909522.0,-24.719203753075316,0.7822471427560189,0.06870088172958733,2083714.0,2244.6071718459925,2241.0731718459924,2418.7991718459925
101,44,21,F,1,2,93.0,17,3,low,8 + 6 - 7 + 1 - 4,4,3,5,4,2254.200496300007,2256.2266121000284,2257.7419755000155,2262.7605073000304,2264.6701950000133,2264.6702001999365,2266.186475800001,2267.2031468000496,e,4,1.9096876999828964,1,+1,511,2.7040106827892467,0.31474532939281463,-0.14410007625379073,1919121.0,31.156764984878556,0.037955924829447873,0.011750071963084752,1922655.0,30.304748448067038,2.813085027723299,1.804343811090996,1990299.0,2257.7401718459923,2254.2061718459927,2325.3841718459926
102,44,21,F,1,2,94.0,18,3,low,8 + 5 + 1 - 7 + 9,16,16,14,17,2268.7200172999874,2270.7461865999503,2272.2615242999746,2277.279930999968,2280.622242399957,2280.622248,2282.1389159000246,2283.1560602999525,e,17,3.34231139998883,0,+0,511,-36.23074397709838,-0.06386145312965352,0.15682972922645622,1933641.0,-50.36976716448912,-0.012576013026222466,-0.2063537409788747,1937175.0,45.449280712767724,0.016835847712445506,-0.004596390327182398,2003451.0,2272.2601718459923,2268.7261718459927,2338.5361718459926
103,44,21,F,1,2,95.0,19,2,high,9 + 4 - 6 + 1 - 1,7,9,8,7,2284.672829799936,2286.6985738000367,2288.213972199941,2293.2338964999653,2293.8220871000085,2293.822092300048,2295.338449300034,2296.355962199974,e,7,0.5881906000431627,1,+10,521,-3.7591631254430347,-0.19751394171936099,-0.4429840272344798,1949593.0,9.87951076230543,0.34336076968669627,-0.05567905428582498,1953129.0,-68.09928512819161,0.6242422448573404,0.16769352028356277,2190465.0,2288.2141718459925,2284.6781718459924,2525.5501718459927
104,44,21,F,1,2,96.0,20,4,low,9 + 4 - 6 + 8 + 7,22,22,24,21,2297.872825699975,2299.8970642000204,2301.412369300029,2306.432459500036,2310.534150599968,2310.5341558000077,2312.05055159994,2313.067592300009,w,24,4.101691099931486,0,+0,521,-8.280791856932137,0.1828266097682132,-0.2507352199667401,1962792.0,-10.010400945190002,0.05403314250862801,0.02265802209768042,1966327.0,-12.353837122735044,0.549705047788021,0.07580679585602534,2177098.0,2301.4121718459924,2297.8771718459925,2512.1831718459925
105,44,21,F,1,2,97.0,21,3,high,6 + 1 + 8 + 7 - 9,13,14,15,13,2314.584489300032,2316.610664900043,2318.125966600026,2323.1460362999933,2323.870121499989,2323.870126600028,2325.3868190000067,2326.404214999988,e,13,0.7240851999958977,1,+10,531,12.783130548449904,-0.22143989070771353,6.444134261067068,1979505.0,-18.419131253183423,-0.07453079109902072,-0.7310879182932104,1983041.0,23.49141430361143,0.18979805305274366,-0.04385197205853597,2030602.0,2318.1261718459923,2314.5901718459927,2365.6871718459925
106,44,21,F,1,2,98.0,22,3,high,4 + 5 - 3 + 7 - 1,12,13,11,12,2327.92104149994,2329.9456164999865,2331.4609352999832,2336.479638300021,2337.0221667999867,2337.022171700024,2338.53869820002,2339.5563347999705,e,12,0.542528499965556,1,+10,541,-6.188206742872673,1.589774557764294,0.7780821870960763,1992840.0,31.507187354009314,-0.04515478142373386,-0.1530673537306817,1996374.0,-1.8500893518395785,0.03224511689078646,0.18756916119629263,2070010.0,2331.4591718459924,2327.9251718459923,2405.095171845993
107,44,21,F,1,2,99.0,23,4,low,2 + 5 - 3 + 9 + 8,21,22,21,19,2341.0730853000423,2343.1008465000195,2344.6160458000377,2349.6349385000067,2350.9421770999907,2350.942186699948,2352.458957499941,2353.475961399963,w,21,1.3072385999839753,1,+1,542,30.75539060020833,0.13883812450775856,0.11861565314380629,2005995.0,24.69340416714853,0.0647486410967919,0.1566216380441845,2009529.0,10.753476737255518,-0.19755154027764776,-2.4924801275226263,2392201.0,2344.6141718459926,2341.0801718459925,2727.2861718459926
108,44,21,F,1,2,100.0,24,3,low,2 + 9 - 3 + 4 + 1,13,13,11,14,2354.9927977999905,2357.0202100999886,2358.535158399958,2363.5537835999858,2364.17414430005,2364.1741494999733,2365.690839700052,2366.70775880001,q,13,0.6203607000643387,1,+1,543,-1.4562635354914342,0.30848480710430426,0.10151574773706917,2019915.0,47.030948876981896,-0.017834915226528913,0.2500047304580364,2023448.0,0.5657057771680911,0.13296722316245368,0.023077033080391107,2110018.0,2358.5331718459925,2355.0001718459926,2445.1031718459926
109,44,21,F,1,2,101.0,25,1,high,3 + 1 + 8 + 1 + 1,14,16,14,13,2368.224533800036,2370.2472847000463,2371.762399900006,2376.780511799967,2377.254120599944,2377.2541258999845,2378.770626100013,2379.788339599967,w,14,0.473608799977228,1,+10,553,-22.299304423064523,0.32084406873719074,0.0964214538332846,2033142.0,-15.527389340366053,-0.2724208682631515,0.28317722685441415,2036675.0,17.858733768449238,0.8899255070549721,0.12242816497388098,2096938.0,2371.7601718459923,2368.2271718459924,2432.0231718459927
110,44,21,F,1,2,102.0,26,4,high,4 + 7 + 9 - 5 + 7,22,22,23,24,2381.3051533999387,2383.328983900021,2384.8442925999407,2389.863023499958,2390.494071300025,2390.494076099945,2392.0102829999523,2393.027492000023,q,22,0.6310478000668809,1,+10,563,4.51289714340966,-0.08065013024591483,-0.35292185451346825,2046223.0,-17.829955014668432,-0.2554132619128211,0.1949504552254404,2049758.0,10.442769588947645,0.024005500148591707,-0.05961744115689571,2486681.0,2384.8431718459924,2381.3081718459925,2821.7661718459926
111,44,21,F,1,2,103.0,27,3,high,2 + 1 + 9 - 4 + 6,14,16,14,15,2394.5443279000465,2396.5708685000427,2398.086148499977,2403.104514900013,2403.5821196000325,2403.5821248999564,2405.0987420999445,2406.116129099973,w,14,0.4776047000195831,1,+10,573,-9.358849267032095,0.29240933489627086,0.02435246944399605,2059465.0,44.26805271392399,0.39709317777342434,-0.00446371053321748,2062999.0,27.411638897721037,0.8889739807426897,-0.027042833911462782,2163938.0,2398.0841718459924,2394.5501718459927,2499.0231718459927
112,44,21,F,1,2,104.0,28,1,high,8 + 1 + 5 + 1 + 1,16,15,16,17,2407.6323768999428,2409.6562859000405,2411.1715539,2416.191514099948,2417.2859719999838,2417.285977200023,2418.8024144000374,2419.819676400046,w,16,1.094457900035195,1,+10,583,3.331422056249836,-0.031665862592042515,0.1647773460272317,2072551.0,-3.778474135388107,-0.6840886601472018,-0.0828944089019572,2076085.0,-12.260736223724502,0.4094340168811428,0.16814567823775972,2123161.0,2411.1701718459926,2407.6361718459925,2458.2461718459926
113,44,21,F,1,2,105.0,29,1,low,4 + 7 + 1 - 1 - 1,10,9,11,10,2421.3368661999702,2423.364053199999,2424.879338499973,2429.89758660004,2430.510012999992,2430.510017900029,2432.026530000032,2433.0440340000205,e,10,0.6124263999518007,1,+1,584,-37.167649564353596,0.4021204099930893,0.1593569858465842,2086258.0,-10.599604013341411,0.35166354139045364,-0.23691252255869566,2089792.0,8.523978430171587,0.15862440133974243,0.09606974114281974,2136658.0,2424.8771718459925,2421.3431718459924,2471.7431718459925
114,44,21,F,1,2,106.0,30,3,high,2 + 9 + 1 - 5 + 7,14,14,15,12,2434.560973500018,2436.586477000033,2438.1015644000145,2443.121588199981,2443.5902342000045,2443.5902397000464,2445.106312799966,2446.123607299989,q,14,0.4686460000229999,1,+10,594,-2.4904608015562903,0.017072295282683392,6.886147336052022,2099481.0,-15.465881534883904,-0.6482745540454689,-1.4368107368418648,2103016.0,33.06980758604145,-1.0733325251171886,-0.40287732638706375,2203778.0,2438.1011718459927,2434.566171845993,2538.8631718459924
115,44,21,F,1,2,107.0,31,1,low,8 + 1 + 4 + 1 + 1,15,14,15,16,2447.640420199954,2449.6665414000163,2451.1817262000404,2456.1998434000416,2456.733980800025,2456.733985699946,2458.250204800046,2459.268007799983,w,15,0.5341373999835923,1,+1,595,7.158525493935914,-0.5600044424210564,0.01871323407440406,2112561.0,6.367436877483389,-0.11477145440801717,-0.040817411261065306,2116094.0,11.055060779258882,0.25863526363720446,-0.03415063638534099,2149961.0,2451.1791718459926,2447.6461718459927,2485.0461718459924
116,44,21,F,1,2,108.0,32,1,low,2 + 1 + 9 + 1 - 1,12,13,11,12,2460.784447800019,2462.8079089999665,2464.323220900027,2469.341393399984,2470.229996699956,2470.2300025000004,2471.7464779999573,2472.763559599989,e,12,0.8886032999726012,1,+1,596,1.2918365776682759,0.17233383468059937,0.10332228551792566,2125702.0,45.769198141672476,0.05855002389329167,-0.1169825050811848,2129236.0,-2.79501341324713,-1.257664588728213,0.23092368853357792,2405369.0,2464.3211718459925,2460.787171845993,2740.4541718459927
117,44,21,F,1,2,109.0,33,1,low,9 + 1 + 1 + 7 - 1,17,19,16,17,2474.280259400024,2476.304298299947,2477.819500499987,2482.838022400043,2483.5339990999782,2483.5340041000163,2485.049967900035,2486.066708200029,e,17,0.6959766999352723,1,+1,597,-28.601274898828592,0.007184775317910841,0.012429076291279983,2139199.0,-3.6150990466567947,0.42391702144602306,-0.05093138416326792,2142732.0,0.6685987834644411,2.0654524723213536,2.0679064473292232,2432033.0,2477.8171718459926,2474.2841718459927,2767.1181718459925
118,44,21,F,1,2,110.0,34,3,low,3 + 8 - 7 + 1 + 9,14,14,12,13,2487.584048200049,2489.611564900028,2491.126775200013,2496.145719900029,2497.510044499999,2497.510050000041,2499.027274099993,2500.043866800028,q,14,1.364324599970132,1,+1,598,-2.286722549569662,0.3386837684013351,0.03794276348240766,2152506.0,11.123386161679317,-0.15113790378401504,-0.15874254872365912,2156040.0,-62.96776193701113,0.13335018296316692,0.6151129907110806,2418905.0,2491.1251718459926,2487.5911718459924,2753.990171845993
119,44,21,F,1,2,111.0,35,4,high,9 + 8 - 5 - 7 + 6,11,13,11,10,2501.560469900025,2503.5852496000007,2505.1005291000474,2510.119103700039,2510.6699618999846,2510.6699669000227,2512.186586500029,2513.204263399937,w,11,0.550858199945651,1,+10,608,6.74339633690791,0.5479475523899051,-0.031075643275593645,2166479.0,-39.703152457594065,0.31401477324761196,0.02253628956536602,2170013.0,43.15390136156499,0.1322703507570835,2.047814388060815,2499880.0,2505.0981718459925,2501.5641718459924,2834.9651718459927
120,44,21,F,1,2,112.0,36,2,low,3 + 8 + 1 - 5 + 1,8,8,9,6,2514.7206758999964,2516.749185699969,2518.264386199997,2523.2821537000127,2524.037898599985,2524.037903600023,2525.554366700002,2526.571274899994,q,8,0.755744899972342,1,+1,609,-0.3739522936351012,0.08708634376867685,0.06071488877498221,2179643.0,11.451672048961335,1.3871490368540442,-0.11800318992700753,2183177.0,19.853298399103032,0.8737687661340008,3.1749543039757606,2552825.0,2518.2621718459927,2514.7281718459926,2887.9101718459924
121,44,21,F,1,2,113.0,37,3,high,5 + 6 - 4 - 1 + 7,13,13,15,14,2528.087961000041,2530.115488199983,2531.6307898999657,2536.649514000048,2537.3499744000146,2537.3499796999386,2538.8665345000336,2539.8838663999923,q,13,0.700460399966687,1,+10,619,18.03016022133999,-0.2283872597169463,-0.025452846134860874,2193009.0,18.403635061982598,-0.6589992773577977,0.11271636326529788,2196543.0,9.267082421318907,-0.3707572678775337,0.025332241127217436,2458504.0,2531.6281718459927,2528.0941718459926,2793.5891718459925
122,44,21,F,1,3,114.0,0,4,low,4 + 7 - 8 + 9 - 3,9,8,11,9,2715.6744151000166,2717.701796700014,2719.217138499953,2724.2371566999936,2725.7737726999912,2725.7737777000293,2727.29042450001,2728.3073273999617,e,9,1.5366159999975937,1,+1,620,-121.33293917694652,-0.5372117087563963,0.19137501905558718,2380595.0,43.42483352978125,-0.07233957427423032,0.04764296116116906,2384131.0,2.4279649613344674,0.08977427009590233,0.08659576489686005,2513312.0,2719.2161718459924,2715.6801718459924,2848.3971718459925
123,44,21,F,1,3,115.0,1,1,high,5 + 8 - 1 + 1 + 1,14,16,14,12,2729.824277900043,2731.851823200006,2733.3667774000205,2738.385056399973,2738.9418726000004,2738.941878800048,2740.458470099955,2741.4759623999707,w,14,0.5568162000272423,1,+10,630,-21.677907313485036,0.15754274127685886,-0.22373901635245397,2394746.0,8.971072609219604,-0.09652211080701756,-0.031979208809754356,2398278.0,10.60335405082522,-0.932795828023842,-0.13083142255890134,2673401.0,2733.3631718459924,2729.8311718459927,3008.4861718459924
124,44,21,F,1,3,116.0,2,3,high,3 + 8 + 1 + 5 - 9,8,7,9,8,2742.992771600024,2745.0168700000504,2746.5319475999568,2751.5503187000286,2752.477732499945,2752.477737899986,2753.9942649999866,2755.011855599936,e,8,0.927413799916394,1,+10,640,-12.786575169015997,-0.19617359197484996,-0.07063403518727318,2407910.0,-26.4715032487865,0.14676454746817624,0.09438270363525447,2411444.0,9.540255566865483,-0.6069025664620216,-1.081236705596143,2526544.0,2746.5291718459926,2742.9951718459924,2861.6291718459925
125,44,21,F,1,3,117.0,3,1,high,5 + 6 + 1 + 1 + 1,14,15,14,16,2756.5299460999668,2758.554281599936,2760.0695139999734,2765.087079399964,2765.6058076999616,2765.6058132000035,2767.122134599951,2768.1392505000117,w,14,0.5187282999977469,1,+10,650,-0.6462598637763781,0.7961867014754178,1.3004448524014611,2421448.0,53.134404980502694,-0.18944007418467645,-0.6842599286783799,2424981.0,-14.100267455219129,1.998301145496427,2.808130461746342,2686560.0,2760.066171845993,2756.5331718459925,3021.6451718459925
126,44,21,F,1,3,118.0,4,4,low,3 + 8 - 7 + 9 - 5,8,9,7,8,2769.6560776999686,2771.6828496999806,2773.198055600049,2778.2168300000485,2779.0137511000503,2779.013756099972,2780.530117199989,2781.547329399968,q,9,0.7969211000017822,0,+0,650,6.405400605323836,-0.439173791437228,2.2421356602157347,2434576.0,-10.381486608280392,1.04391845918045,0.6274352349518795,2438110.0,14.86622922399054,0.06272786229913319,0.087278252929337,2579288.0,2773.1951718459927,2769.6611718459926,2914.3731718459926
127,44,21,F,1,3,119.0,5,3,low,5 + 7 + 1 - 4 + 6,15,17,15,13,2783.0643756999634,2785.091721200035,2786.606969799963,2791.626985099981,2792.0777186000487,2792.077723399969,2793.594219599967,2794.61110129999,w,15,0.4507335000671446,1,+1,651,26.095172010780978,-0.08035136951143951,-0.10918564788580598,2447985.0,11.444726412158357,0.43128539134535293,0.07924199950137423,2451520.0,20.497402199265686,0.1361420052746154,-0.20603643562404095,2539665.0,2786.6051718459926,2783.0701718459927,2874.7501718459926
128,44,21,F,1,3,120.0,6,4,high,9 + 7 - 5 + 8 + 6,25,27,24,25,2796.127840799978,2798.152392799966,2799.6676785999443,2804.6864061999368,2806.949795200024,2806.9498005999485,2808.4662391999736,2809.4832397999708,w,24,2.263389000087045,0,+0,651,-45.8602844845816,0.07978304961356875,0.13422877051799675,2461046.0,-5.335291316335754,-0.13289957621902415,0.07055343053357332,2464580.0,18.366397041636745,1.1245228566123866,-0.7645870097800431,2633632.0,2799.6651718459925,2796.1311718459924,2968.7171718459927
129,44,21,F,1,3,121.0,7,4,high,7 + 6 - 4 + 9 - 5,13,13,14,12,2811.000356000033,2813.02675119997,2814.5419652999844,2819.559761599987,2820.2536487999605,2820.253654,2821.770331799984,2822.787777599995,q,13,0.6938871999736875,1,+10,661,9.337117329167187,-0.7096537045646198,-0.32140580724648093,2475920.0,10.15212447031639,0.09558618284082643,-0.024509109741693846,2479454.0,-5.3594001706463175,0.5590357301919311,-0.05889804350864947,2660049.0,2814.5391718459928,2811.0051718459927,2995.1341718459926
130,44,21,F,1,3,122.0,8,4,low,7 + 6 - 9 + 8 - 3,9,9,8,7,2824.3044598000124,2826.3320028999588,2827.847243599943,2832.8657791999867,2833.453769600019,2833.453774799942,2834.970193100045,2835.987044399953,q,9,0.5879904000321403,1,+1,662,11.56232160835453,-0.2660674837788113,-0.12918477947927354,2489225.0,11.25372644551087,0.07931675590804721,-0.20813889935409535,2492759.0,-20.554887990681436,-0.4277186004230229,0.25628687186440935,2701488.0,2827.8441718459926,2824.3101718459925,3036.5731718459924
131,44,21,F,1,3,123.0,9,4,low,5 + 8 - 6 + 7 + 4,18,17,19,18,2837.503510799957,2839.5264074000297,2841.041582899983,2846.060094099957,2846.885641900008,2846.885647400049,2848.402007699944,2849.419002500013,e,18,0.8255478000501171,1,+1,663,-13.920021952121822,-1.7307120423189373,-1.8216629234350998,2502420.0,3.584587670775873,0.09651569764683154,0.03292309936832871,2505953.0,-1.0649682697526401,0.2431774590504876,-0.11844632595269666,2797048.0,2841.0381718459926,2837.5051718459927,3132.1331718459924
132,44,21,F,1,3,124.0,10,3,low,4 + 1 + 8 + 9 - 5,17,17,18,19,2850.9361045999685,2852.9633571000304,2854.478542399942,2859.496826800052,2860.11769069999,2860.117695600027,2861.6342765999725,2862.6511109999847,q,17,0.6208638999378309,1,+1,664,12.19704172629838,0.1471060616867348,0.04504803941901914,2515857.0,-15.72779141271393,-0.37922264242159276,0.34682326239052097,2519390.0,-5.007670327171127,-0.15541424824355676,-0.019980978352944323,2566049.0,2854.4751718459925,2850.9421718459926,2901.1341718459926
133,44,21,F,1,3,125.0,11,3,low,8 - 7 + 9 + 1 + 4,15,15,16,14,2864.167825100012,2866.191801600042,2867.7065030999947,2872.725184799987,2873.237669099937,2873.237674199976,2874.7544393000426,2875.7715944999363,q,15,0.5124842999503016,1,+1,665,5.184297180637169,-0.6205828016498462,-0.1486935838502177,2529085.0,13.623944890268222,0.3045754709863999,-0.9576051539149262,2532618.0,-1.6161154514810931,0.10536109921107739,0.06126025328340301,2593640.0,2867.7031718459925,2864.1701718459926,2928.7251718459925
134,44,21,F,1,3,126.0,12,2,low,6 + 1 + 8 + 5 - 1,19,18,19,17,2877.2883632000303,2879.315056600026,2880.830368899973,2885.848217100021,2886.3977023999905,2886.397707700031,2887.914394099964,2888.931395699969,w,19,0.549485299969092,1,+1,666,22.775520043276785,-0.30687197328527116,-0.049293058179688654,2542209.0,29.721489821992648,-0.41897170561191865,-0.10832876909681621,2545742.0,3.731169228748791,0.5001117800426869,-0.11459745294189938,2646896.0,2880.827171845993,2877.2941718459924,2981.981171845993
135,44,21,F,1,3,127.0,13,3,high,4 + 7 + 1 + 9 - 5,16,17,16,18,2890.448139799992,2892.4738599000266,2893.989848199999,2899.0099414000288,2899.6217043000506,2899.621709799976,2901.138275000034,2902.155565400026,w,16,0.6117629000218585,1,+10,676,-22.651592084675638,-0.5189921866014706,-0.7928263980338404,2555367.0,13.199468525604352,-0.4201139639586793,-0.1839753529435617,2558903.0,9.739205705244432,0.3417381820167922,-0.3445083379809475,2607256.0,2893.9881718459924,2890.452171845993,2942.3411718459924
136,44,21,F,1,3,128.0,14,4,low,3 + 8 - 4 + 9 + 6,22,22,21,23,2903.672244800022,2905.69860220002,2907.213979299995,2912.2332998999627,2912.8616301999427,2912.861635499983,2914.3780138000147,2915.394864000031,q,22,0.6283302999800071,1,+1,677,13.767867090194105,0.1418486343070482,-0.13131660332532924,2568592.0,3.038130488365546,-0.30384054435542884,0.20569901965290738,2572126.0,-10.076652348083591,0.024998090010383223,0.10904269867173966,2877920.0,2907.211171845993,2903.6771718459927,3213.0051718459927
137,44,21,F,1,3,129.0,15,3,low,7 - 5 + 9 + 1 - 4,8,8,7,9,2916.9119117000373,2918.9370774000417,2920.452429599944,2925.4729440000374,2927.213673399994,2927.213678400032,2928.730068300036,2929.747127700015,q,8,1.7407293999567628,1,+1,678,15.454470995072969,-0.11604162783421446,-0.11860424499981015,2581830.0,-11.691867028173348,-0.40708962392550685,0.12125261970734025,2585366.0,-20.489916720760014,0.3500692181360847,0.052826458228188766,2620425.0,2920.4511718459926,2916.9151718459925,2955.5101718459928
138,44,21,F,1,3,130.0,16,3,low,4 + 8 - 3 + 5 - 1,13,13,12,14,2931.263871300034,2933.286086600041,2934.8010805000085,2939.819284099969,2940.82973290002,2940.829737999942,2942.3462207999546,2943.363161699963,q,13,1.0104488000506535,1,+1,679,4.032903839391086,0.7306633105000384,-2.4433937001636314,2596179.0,15.725927068143047,-0.48440059143561154,-3.9163580996205387,2599712.0,-25.109552978900712,0.05178104941330153,0.06283392211687766,2727992.0,2934.7971718459926,2931.2641718459927,3063.077171845993
139,44,21,F,1,3,131.0,17,3,high,5 + 6 - 4 - 1 + 8,14,16,15,14,2944.8798702999484,2946.9030491999583,2948.4179745999863,2953.4361544999992,2953.997703299974,2953.9977085000137,2955.5142965000123,2956.531885299948,e,14,0.5615487999748439,1,+10,689,4.544935276636021,0.6589228807828218,-0.15152291427029363,2609796.0,19.247951464066023,0.09454788171997919,0.2231135814430676,2613329.0,-10.389748107251831,0.12476658737720747,0.08587528621483109,2754904.0,2948.4141718459928,2944.8811718459924,3089.9891718459926
140,44,21,F,1,3,132.0,18,4,low,8 + 3 - 4 + 5 + 9,21,22,21,23,2958.048674999969,2960.0763597999467,2961.591689900029,2966.609922999982,2967.2055254000006,2967.2055305000395,2968.7222414000425,2969.7390704000136,w,21,0.5956024000188336,1,+1,690,27.029644705310417,0.06889369125113198,-0.06502279323375681,2622969.0,10.13007318149587,1.046929679584621,-0.0009866257974229242,2626503.0,18.266724229765465,0.8431597629508927,-0.06125982871705471,3200840.0,2961.5881718459927,2958.0541718459926,3535.9251718459927
141,44,21,F,1,3,133.0,19,2,low,2 + 9 + 1 + 1 - 5,8,6,8,7,2971.2552688999567,2973.2841509999707,2974.799317899975,2979.817635399988,2980.4695861999644,2980.4695911000017,2981.9858050999464,2983.0028295000084,w,8,0.6519507999764755,1,+1,691,-30.423904578848592,-0.41788824053194196,-0.7101913764175101,2636177.0,23.22079379153577,-0.3172661533017722,-0.06597340185776401,2639711.0,5.126805938492801,0.3669063829293546,0.07660987107521322,2768408.0,2974.7961718459924,2971.2621718459927,3103.4931718459925
142,44,21,F,1,3,134.0,20,4,high,5 + 6 - 4 + 7 + 9,23,24,23,25,2984.5202296000207,2986.5481072999537,2988.0634075000416,2993.0817783999955,2993.621613699943,2993.6216191999847,2995.138112799963,2996.15507410001,w,23,0.5398352999472991,1,+10,701,-27.1976709213489,0.21442990808623597,-0.002517463699440281,2649441.0,23.551760984257026,0.1689696909602314,0.009599177615602361,2652975.0,21.873970837830885,0.7298719796660542,-0.1690344336955456,3214047.0,2988.0601718459925,2984.5261718459924,3549.1321718459926
143,44,21,F,1,3,135.0,21,1,high,5 + 1 + 1 + 6 + 1,14,14,13,16,2997.671981899999,2999.69756729994,3001.2125388999702,3006.2300076000392,3006.973578299978,3006.973583200015,3008.4903186999727,3009.507504599984,q,14,0.7435706999385729,1,+10,711,-41.125455953206284,0.22819797415560306,0.10054518304276816,2662591.0,19.829580685245965,-0.3494398632626523,-0.07558322779497706,2666123.0,-4.738954005569468,0.5116955036650364,-0.02540801229266254,2714896.0,3001.2081718459926,2997.6761718459925,3049.981171845993
144,44,21,F,1,3,136.0,22,1,low,7 - 1 + 9 + 1 - 1,15,15,13,14,3011.024315000046,3013.0522262000013,3014.567381300032,3019.5858624000102,3020.133584999945,3020.1335901999846,3021.650176699972,3022.666952300002,q,15,0.5477225999347866,1,+1,712,19.38251185441993,-0.2898704963022891,0.2593759275867453,2675945.0,3.5063660361951516,0.15051064997259678,-0.271721745540507,2679479.0,23.022139894190307,0.7993625392628156,-0.05167940364045509,2741664.0,3014.5641718459924,3011.0301718459928,3076.749171845993
145,44,21,F,1,3,137.0,23,4,low,4 + 9 - 7 + 8 + 5,19,20,21,19,3024.183757700026,3026.2122187999776,3027.7281717000296,3032.746814599959,3035.0615348999854,3035.0615404000278,3036.578125200001,3037.594172699959,e,19,2.314720300026238,1,+1,713,-19.284666515248233,-0.07114878408862157,0.9513864089489132,2689105.0,-9.86095594353699,-0.051220315843511166,-0.09383208231492635,2692640.0,12.992199463119336,-0.11635649090603817,0.16807855596456855,3240270.0,3027.7251718459925,3024.1901718459926,3575.3551718459926
146,44,21,F,1,3,138.0,24,1,high,2 + 1 + 1 + 9 - 1,12,12,13,11,3039.1107351999963,3041.13765369996,3042.652931699995,3047.671297600027,3048.469551800052,3048.469556499971,3049.986284399987,3051.003715800005,q,12,0.7982542000245303,1,+10,723,7.8442447714427015,-0.08987315625029613,-0.032930067237436855,2704031.0,-17.489834467496316,-0.24057762103629976,0.0681922157782271,2707564.0,-26.035077956167225,-0.09289341492040659,0.006387703990839988,2810264.0,3042.6491718459924,3039.1161718459925,3145.3491718459927
147,44,21,F,1,3,139.0,25,3,low,2 + 1 + 9 - 7 + 6,11,11,13,12,3052.520344699966,3054.546430999995,3056.0615574000403,3061.0799899999984,3061.5655966999475,3061.5656017999863,3063.082300800015,3064.099293999956,q,11,0.4856066999491304,1,+1,724,8.204619283601357,-0.1926109315862039,0.26214133144469143,2717439.0,0.9074615030559654,0.1599689630072092,-2.121303247455346,2720973.0,22.504686097150863,0.600397486403935,0.025865127113399167,2781673.0,3056.0581718459925,3052.5241718459924,3116.7581718459924
148,44,21,F,1,3,140.0,26,1,high,5 + 6 + 1 + 1 + 1,14,16,13,14,3065.6159718999406,3067.641841399949,3069.1569672999904,3074.174629000016,3075.237541200011,3075.2375466999365,3076.754088500049,3077.771356799989,e,14,1.0629121999954805,1,+10,734,4.017506693432335,-0.3476630595486334,0.3646235388117258,2730535.0,32.25662793276494,0.0177800140913158,-0.24270024002206503,2734068.0,-6.229758971063436,-0.0493863148169531,0.1292475536332478,2851456.0,3069.153171845993,3065.6201718459924,3186.5411718459927
149,44,21,F,1,3,141.0,27,3,low,2 - 4 + 9 + 7 + 1,15,15,16,13,3079.288181400043,3081.3150721000275,3082.830340399989,3087.848829000024,3088.4775136000244,3088.477518699947,3089.99397099996,3091.010856500012,q,15,0.6286846000002697,1,+1,735,-0.5786063058424613,-0.09560975306490471,-0.04950896735225219,2744208.0,32.589377926190714,0.07162305646476863,0.11329048536924913,2747742.0,5.065058027067334,0.33128264745679914,0.2305181698617622,2864608.0,3082.827171845993,3079.2931718459927,3199.6931718459928
150,44,21,F,1,3,142.0,28,2,high,7 + 6 + 1 + 8 + 1,23,22,21,23,3092.527673900011,3094.554092800012,3096.0696166999405,3101.088377799955,3101.9815635000123,3101.981568700052,3103.497695600032,3104.5146368000424,e,23,0.8931857000570744,1,+10,745,2.45400705710413,0.5405241708181467,-0.00041843472387603775,2757447.0,18.07242166116869,-0.5788177701412698,0.030656580350836737,2760981.0,-0.41450555916205545,1.137517786743988,-0.04815196448249015,2823424.0,3096.066171845993,3092.5321718459927,3158.5091718459926
151,44,21,F,1,3,143.0,29,3,high,4 + 1 + 8 + 9 - 5,17,19,18,17,3106.031447199988,3108.0589464999503,3109.574116099975,3114.593454799964,3115.245600300026,3115.245606499957,3116.762772899936,3117.7801421999466,e,17,0.6521455000620335,1,+10,755,-24.610854406817097,0.5427662635478052,-0.07129008493379763,2770952.0,18.82600986385271,0.18173757458469986,0.049181913837719415,2774486.0,17.349178726258884,1.0468972999983244,2.5432337082837586,3174519.0,3109.5711718459925,3106.037171845993,3509.6041718459924
152,44,21,F,1,3,144.0,30,4,low,8 + 5 - 4 + 7 + 9,25,24,25,26,3119.2970182000427,3121.3243326999946,3122.8398294999497,3127.858997900039,3130.621497799992,3130.621502700029,3132.13803989999,3133.155189199955,w,25,2.7624998999526724,1,+1,756,-5.338133703910286,-0.165415107722386,-0.025868031936681524,2784217.0,6.936162731459792,-0.21046797202366285,-0.07095745859408487,2787751.0,0.7033580653366869,1.3311059510007617,0.0949445243345517,3253815.0,3122.836171845993,3119.3021718459927,3588.9001718459926
153,44,21,F,1,3,145.0,31,1,high,2 + 9 + 1 + 1 + 1,14,12,14,13,3134.6719132999424,3136.699572199956,3138.213621099945,3143.232586600003,3143.837391600013,3143.837396600051,3145.3538918000413,3146.3717755000107,w,14,0.6048050000099465,1,+10,766,-25.095924187743265,0.37592974321148986,-0.1777677703795424,2799592.0,25.856716135348318,-0.4634727078839278,-0.10172256156684756,2803125.0,7.401896157054779,0.5036888525970586,0.01128581367037107,3267063.0,3138.2101718459926,3134.6771718459927,3602.1481718459927
154,44,21,F,1,3,146.0,32,2,low,7 + 1 + 9 - 1 - 8,8,6,7,8,3147.8884346999694,3149.9162081000395,3151.4313876000238,3156.4497944000177,3156.9974528000457,3156.9974581999704,3158.514033799991,3159.530917400029,e,8,0.5476584000280127,1,+1,767,31.064474965887314,-0.4321844203512839,-0.17049853591550734,2812809.0,0.08995243381234275,0.17319642460470153,0.002959082821358816,2816343.0,-6.644012162578768,-0.3829139323943225,-0.018615297932669694,2836673.0,3151.4281718459924,3147.894171845993,3171.7581718459924
155,44,21,F,1,3,147.0,33,2,high,8 + 1 + 4 - 7 + 1,7,5,6,7,3161.0479181000264,3163.072653100011,3164.587999999989,3169.608285799972,3170.245462100021,3170.245467199944,3171.762826399994,3172.7801599999657,e,7,0.6371763000497594,1,+10,777,-16.896611747044346,-2.0433335876291236,-0.0683859428558451,2825965.0,-0.085281733976732,0.46783206472038597,0.13061136141226326,2829501.0,19.969694226125963,0.4267797622066345,-0.07542317093380291,2890968.0,3164.586171845993,3161.0501718459927,3226.0531718459924
156,44,21,F,1,3,148.0,34,1,low,7 + 1 + 4 + 1 - 1,12,13,12,11,3174.2969178999774,3176.3239429999376,3177.8392139000352,3182.858823499992,3185.0294412999647,3185.0294464000035,3186.546473799972,3187.563855199958,w,12,2.1706177999731158,1,+1,778,24.131045218804783,0.06882650305349358,0.03675264077284646,2839217.0,-39.57952437606763,-0.1772550914966411,0.0668727726201439,2842751.0,1.373038251959838,0.32943408417393494,0.01563537921550484,3280638.0,3177.836171845993,3174.3021718459927,3615.7231718459925
157,44,21,F,1,3,149.0,35,3,low,4 + 8 - 9 + 1 + 7,11,13,11,9,3189.080645999988,3191.107905199984,3192.62319990003,3197.642955300049,3198.1814637000207,3198.181468799943,3199.697909999988,3200.7150268999394,w,11,0.5385083999717608,1,+1,779,-17.496987513962832,-0.4528654886897767,-0.19686086746936526,2854001.0,-19.474829198704402,-0.5562251614915503,0.022987976111738195,2857536.0,13.246339954865968,0.8056739141363409,-0.21706235109919447,3412686.0,3192.6211718459926,3189.086171845993,3747.7711718459927
158,44,21,F,1,3,150.0,36,4,high,3 + 9 - 5 + 8 - 7,8,8,9,7,3202.230898899957,3204.254749099957,3205.769902699976,3210.7885079999687,3211.493454899988,3211.4934603000293,3213.01003939996,3214.0269486999605,q,8,0.7049469000194222,1,+10,789,-6.1707579724639885,-0.588744208406407,-0.02374458771906207,2867148.0,-41.386535441846476,-0.35341848823590905,0.036002080506607914,2870681.0,7.511200796026197,0.3890793777393413,-1.5052736304483014,3293926.0,3205.7661718459926,3202.2331718459927,3629.0111718459925
159,44,21,F,1,3,151.0,37,2,low,5 + 7 - 8 + 1 + 1,6,8,6,7,3215.544105599984,3217.5705888000084,3219.085917899967,3224.10447390005,3224.541346400045,3224.5413512999658,3226.058351799962,3227.075695000007,w,6,0.4368724999949336,1,+1,790,-7.234055642967519,0.5977308748308685,-0.12579750930549105,2880463.0,4.460472961728996,0.22984272175210485,0.2660425762116858,2883997.0,-0.0915751132905207,0.564964242404749,-0.12039234897634832,3134711.0,3219.0821718459924,3215.548171845993,3469.7961718459924
160,44,21,F,1,4,152.0,0,2,low,2 + 9 - 4 + 1 + 1,9,8,9,11,3459.2019451999804,3461.227122399956,3462.742366199964,3467.7623435000423,3468.285253899987,3468.2852587000234,3469.8017755999463,3470.818685099948,w,9,0.5229103999445215,1,+1,791,-33.20789731907257,0.8704295024252298,0.061658541806665745,3124119.0,28.629546931189118,-0.16572100736448636,0.7820920054771341,3127654.0,0.6637519469493611,0.07074159436284466,0.19490617709252822,3147894.0,3462.7391718459926,3459.2041718459927,3482.9791718459924
161,44,21,F,1,4,153.0,1,2,low,4 + 8 + 1 + 1 - 6,8,8,7,9,3472.335961799952,3474.3621129000094,3475.8771585000213,3480.895962200011,3481.4692504999693,3481.4692555000074,3482.985278600012,3484.0025511999847,q,8,0.5732882999582216,1,+1,792,-7.295413568073775,0.37563441843411205,0.05969867756755498,3137254.0,1.2950346892928026,0.0017759177025733486,0.001351102626335754,3140788.0,-56.24841071729976,0.3076682084750346,0.6983298147491679,3161391.0,3475.8731718459926,3472.3391718459925,3496.4761718459927
162,44,21,F,1,4,154.0,2,2,high,6 + 1 + 1 + 7 - 9,6,6,8,4,3485.5192413999466,3487.5457794000395,3489.0617981000105,3494.0799238999607,3494.965240599937,3494.965245699976,3496.481830099947,3497.499028699938,q,6,0.8853166999761015,1,+10,802,1.7791254922070632,0.5439266643712783,0.23199730699534937,3150437.0,9.787282553887792,-0.33498732389716723,0.025130291619072986,3153972.0,-6.395265405761757,0.21194500850327258,1.9935678897812412,3187703.0,3489.057171845993,3485.5221718459925,3522.7881718459926
163,44,21,F,1,4,155.0,3,3,high,3 + 1 + 8 - 5 + 6,13,15,14,13,3499.016057200032,3501.041906600003,3502.557248799945,3507.576803199947,3508.093221400049,3508.093226999976,3509.609671700048,3510.6270196000114,e,13,0.5164182001026347,1,+10,812,-44.33099979790323,-0.002062379904455902,2.506129974578445,3163934.0,-2.5174067259837365,0.4719659827542513,-0.8952569262989383,3167469.0,2.9776566232620745,0.7086212138651451,0.39318966861598303,3532821.0,3502.5541718459926,3499.019171845993,3867.9061718459925
164,44,21,F,1,4,156.0,4,2,low,6 + 1 + 8 + 7 - 1,21,21,19,23,3512.143706299946,3514.170646799961,3515.6858169999905,3520.704570599948,3521.2770918000024,3521.277096500038,3522.793694399996,3523.810768599971,q,21,0.5725212000543252,1,+1,813,-0.3175354369019754,-0.39837031889670893,0.2709438063260272,3177062.0,14.382356827796306,-0.28638652717776747,-0.4930461559993997,3180596.0,8.232089082312662,1.458813411107978,0.10675366041904555,3227175.0,3515.6811718459926,3512.1471718459925,3562.2601718459928
165,44,21,F,1,4,157.0,5,4,high,4 + 7 - 8 + 9 - 4,8,8,9,7,3525.327662299969,3527.354817899992,3528.8704605000094,3533.890755899949,3534.413194400025,3534.413199399947,3535.93075509998,3536.948426499963,q,8,0.5224385000765324,1,+10,823,-14.08483484166737,-0.0617274761247808,-0.7487151224163879,3190246.0,-11.693577323967098,0.11584219188204559,0.06826811608957484,3193783.0,6.171346545016947,0.11453053567205718,-0.4384924527148155,3320350.0,3528.8681718459925,3525.3311718459927,3655.4351718459925
166,44,21,F,1,4,158.0,6,4,high,2 + 9 - 6 + 8 - 4,9,7,11,9,3538.4652132999618,3540.48968670005,3542.0049680999946,3547.023874199949,3547.6212379999924,3547.621243300033,3549.1380426000105,3550.1554732000222,e,9,0.5973638000432402,1,+10,833,9.249107488819591,0.19652072128064946,0.05655167374945158,3203382.0,4.826028068316324,0.04720868993921368,-0.10254741962049319,3206916.0,-23.614085119602038,0.14574401831625616,-0.006795166061384528,3346819.0,3542.0011718459928,3538.4671718459927,3681.9041718459926
167,44,21,F,1,4,159.0,7,2,high,3 + 1 + 8 - 5 - 1,6,5,6,7,3551.672009599977,3553.699802499963,3555.2151098999893,3560.2345630000345,3560.749096499989,3560.74910190003,3562.265694999951,3563.2825317999814,w,6,0.5145334999542683,1,+10,843,-1.3590683559337906,0.08091811354590028,-0.14896829531764832,3216592.0,16.52554277837865,-0.01735163350968172,-0.047528398484365075,3220126.0,-1.443326788862823,0.5657719025505559,3.448863955816131,3333606.0,3555.211171845993,3551.6771718459927,3668.691171845993
168,44,21,F,1,4,160.0,8,4,low,6 + 9 + 7 - 3 - 5,14,14,13,15,3564.799369300017,3566.823930099956,3568.3391496000118,3573.357577200048,3573.845148799941,3573.8451539999805,3575.3617110999767,3576.3786835999927,q,14,0.4875715998932719,1,+1,844,-49.28240563354671,0.01761353709644542,0.030017841581598814,3229716.0,-1.4779008204579043,0.05091148988697469,-0.08456106168377042,3233250.0,9.045333903146485,1.7353678002915744,0.06743114277377038,3452335.0,3568.3351718459926,3564.8011718459925,3787.4201718459926
169,44,21,F,1,4,161.0,9,4,low,3 + 8 - 5 + 9 - 7,8,6,8,7,3577.896220099996,3579.9236300999764,3581.4387034999672,3586.456989299972,3587.3890511000063,3587.389056200045,3588.906482600025,3589.922758299974,w,8,0.9320618000347168,1,+1,845,10.656134261726011,-0.20643701598575337,-0.1549389758489763,3242815.0,2.2188464652251767,0.2302261631265594,0.0658802749173959,3246349.0,7.6884819836608145,-0.4801781126147464,-0.03831160058713534,3519294.0,3581.4341718459928,3577.9001718459926,3854.3791718459925
170,44,21,F,1,4,162.0,10,1,high,5 + 9 - 1 + 1 + 1,15,17,13,15,3591.4395767999813,3593.467376100016,3594.9824810000136,3600.000758099952,3600.637154199998,3600.6371595000383,3602.15364959999,3603.170941999997,e,15,0.6363961000461131,1,+10,855,8.494633203855589,-0.2662326640084647,0.6090039264811846,3256359.0,-5.007323473173042,-0.09116499707380044,0.995761397303681,3259892.0,5.960531593451669,0.2669825842538387,-0.0454771716991722,3307079.0,3594.9771718459924,3591.4441718459925,3642.1641718459928
171,44,21,F,1,4,163.0,11,1,high,2 + 9 + 1 + 1 + 1,14,12,13,14,3604.688429599977,3606.7119226000505,3608.2271617000224,3613.245375499944,3614.213137499988,3614.213142700028,3615.729521699948,3616.746782499948,e,14,0.9677620000438764,1,+10,865,-16.934002614635727,-0.0867302240321135,1.2144417453106702,3269604.0,-5.92459328702839,-0.4454467825056758,-0.11489582828884926,3273137.0,0.8667313508404861,-0.1000097881219788,-0.026127209974080134,3359927.0,3608.2221718459928,3604.6891718459924,3695.0121718459927
172,44,21,F,1,4,164.0,12,4,high,6 + 5 - 7 + 8 - 9,3,5,4,3,3618.2635232999455,3620.287387899938,3621.8025410999535,3626.820855499944,3627.501047399943,3627.501052399981,3629.017510400037,3630.035287300008,e,3,0.6801918999990448,1,+10,875,-11.889147203933653,0.2028403347086094,0.044384161185103466,3283179.0,18.73322860132494,-0.22635803144987854,-0.0003173636591071727,3286713.0,-11.894407611697332,0.16176394262617944,0.08277479778663555,3559445.0,3621.798171845993,3618.2641718459927,3894.5301718459928
173,44,21,F,1,4,165.0,13,1,low,3 + 1 + 1 + 8 - 1,12,14,13,12,3631.551815600018,3633.579533600016,3635.094754999969,3640.112828699988,3640.65312240005,3640.653127599973,3642.170327799977,3643.18717030005,e,12,0.5402937000617385,1,+1,876,22.55345812612991,0.007023427334460486,-0.0023687005164969577,3296471.0,0.7730122263537513,-0.18149596305643367,-0.09412015959220454,3300004.0,10.069868426584044,0.20294549722953592,-0.2882160161573837,3386182.0,3635.0891718459925,3631.5561718459926,3721.2671718459924
174,44,21,F,1,4,166.0,14,4,high,5 + 8 - 4 - 6 + 9,12,13,14,12,3644.704115199973,3646.732202999992,3648.247420600034,3653.266197699937,3653.9250163999386,3653.925021999981,3655.441460000002,3656.458623399958,e,12,0.658818700001575,1,+10,886,-12.040497037459504,-0.6549913717180598,0.16815626955325724,3309624.0,16.42092518162373,0.0023073718536261723,0.11782357207913852,3313158.0,-36.01328687152298,0.33166302370942224,1.5964177612672201,3625733.0,3648.2431718459925,3644.7091718459924,3960.8181718459928
175,44,21,F,1,4,167.0,15,2,low,2 + 1 + 9 - 4 + 1,9,9,8,11,3657.975396299968,3660.001813599956,3661.517007999937,3666.5355617000014,3667.181018000003,3667.181023000041,3668.697511499981,3669.71432889998,q,9,0.6454563000006601,1,+1,887,-31.0862998440195,0.06437523389995103,-0.030259294314561203,3322893.0,9.243846441832858,0.5577898596326372,0.07464427774846527,3326427.0,-24.652281251207704,0.33119778413001777,0.019528292671310954,3372998.0,3661.5121718459927,3657.9781718459926,3708.0831718459926
176,44,21,F,1,4,168.0,16,4,high,8 + 4 + 7 - 5 - 6,8,8,6,9,3671.231032800046,3673.256945200032,3674.772436099942,3679.791459299973,3680.3889982999535,3680.389003499993,3681.905539399944,3682.927510599955,q,8,0.5975389999803156,1,+10,897,3.568195926388783,0.4435757642848843,-0.3239160158351324,3336149.0,43.49771706243502,-0.5513666406686433,-0.21136172872383696,3339683.0,2.5642371674666045,0.585029714679834,0.05368694882340597,3907757.0,3674.7681718459926,3671.2341718459925,4242.842171845992
177,44,21,F,1,4,169.0,17,1,high,8 + 1 + 1 + 1 - 4,7,7,8,5,3684.444233999937,3686.469369299943,3687.9846287999535,3693.0026615000097,3693.501068099984,3693.501073300024,3695.018072100007,3696.035755699966,q,7,0.4984065999742597,1,+10,907,10.288373383130775,-0.10188789151638922,0.0058570521493146455,3349361.0,-10.02002634070498,0.03640695653593262,-0.1340379714070361,3352894.0,-76.5935054814321,0.39246118255837104,-0.040184372772533505,3465518.0,3687.9791718459924,3684.4461718459925,3800.6031718459926
178,44,21,F,1,4,170.0,18,2,low,9 + 6 + 1 + 7 + 1,24,25,24,23,3697.552441100008,3699.579127099947,3701.094259000034,3706.11217940005,3706.5730283999583,3706.5730339,3708.089569399948,3709.106450299965,w,24,0.4608489999081939,1,+1,908,7.037110560290851,0.3810396958129667,0.08927440516022522,3362470.0,7.116227545529796,0.09557901291888005,-0.04310168303011119,3366004.0,-19.136000101400068,-0.12937140024571825,-0.09125579152468166,3399519.0,3701.0891718459925,3697.5551718459924,3734.6041718459924
179,44,21,F,1,4,171.0,19,1,high,9 + 8 + 1 + 1 - 1,18,17,19,18,3710.6231581999455,3712.651048599975,3714.166379299946,3719.184686399996,3719.757046999992,3719.75705200003,3721.273665199988,3722.290945400018,e,18,0.5723605999955907,1,+10,918,13.128447263015193,0.3777067817499926,-0.5464503018020976,3375542.0,16.179735638461914,0.010231605543942202,0.014847286022532824,3379076.0,5.083090299295705,0.1813715367738915,0.14619144613130675,3572629.0,3714.1611718459926,3710.6271718459925,3907.7141718459925
180,44,21,F,1,4,172.0,20,2,high,9 + 1 + 6 + 7 + 1,24,24,23,25,3723.8078783999663,3725.833524700021,3727.348487499985,3732.366362600005,3733.09304139996,3733.0930463999975,3734.6095613000216,3735.627248300007,q,24,0.726678799954243,1,+10,928,4.156567800756628,0.15031777884411035,-0.011826850482556939,3388725.0,7.809960333665273,-0.0006465372705983796,0.03084341207030472,3392258.0,-10.659671444982873,0.3637378707158492,-0.1043234375559341,3425902.0,3727.3431718459924,3723.8101718459925,3760.9871718459926
181,44,21,F,1,4,173.0,21,3,high,9 + 3 - 4 + 6 + 7,21,23,21,22,3737.144121399964,3739.170757399989,3740.68633539998,3745.704753599945,3746.260921900044,3746.260926899966,3747.7776561999926,3748.794931799988,w,21,0.5561683000996709,1,+10,938,-0.10308711248090141,-0.17200513250757998,-0.050733315077148955,3402062.0,-11.555745551651164,-9.815616195665783,-9.753768404943981,3405596.0,22.17336927051133,0.36817670494028487,0.015575044701847451,3545966.0,3740.6811718459926,3737.1471718459925,3881.0511718459925
182,44,21,F,1,4,174.0,22,2,high,5 + 9 - 8 + 1 + 1,8,7,8,9,3750.311745899962,3752.3380464999937,3753.853286999976,3758.871354099945,3759.4769580999855,3759.4769636000274,3760.993416300044,3762.009767799988,w,8,0.60560400004033,1,+10,948,7.105077782599726,-0.582356676685162,-0.2266208073482594,3415229.0,10.90605660601517,0.26885071838567054,-0.15239765170747566,3418763.0,12.021234638653773,0.17747443882054625,-0.16416300356161662,3439078.0,3753.8481718459925,3750.3141718459924,3774.1631718459926
183,44,21,F,1,4,175.0,23,2,low,6 + 1 + 1 + 8 - 9,7,9,7,5,3763.5265255999984,3765.553101300029,3767.06868399994,3772.0867535000434,3772.652949700016,3772.652954599937,3774.169478800032,3775.186337699997,w,7,0.5661961999721825,1,+1,949,-15.212084605071304,-1.867162607026235,3.5664990224409125,3428444.0,-1.8529832135396838,0.6228970743014441,-0.005199112109391724,3431978.0,-1.4753535853140676,0.4269664161347819,0.08230297187613367,3478886.0,3767.0631718459927,3763.5291718459926,3813.9711718459926
184,44,21,F,1,4,176.0,24,4,high,5 + 7 - 4 + 8 + 6,22,24,22,23,3776.703082800028,3778.73136970005,3780.246601699968,3785.265437299968,3785.9090497000143,3785.909054699936,3787.4261691999855,3788.443402400008,w,22,0.6436124000465497,1,+10,959,20.262272441514042,0.08346425551172931,0.00934352061359589,3441623.0,12.434381086542182,0.210729927461915,0.06467112676324227,3445157.0,,,,,3780.2421718459927,3776.7081718459926,
185,44,21,F,1,4,177.0,25,1,high,3 + 1 + 9 + 1 - 1,13,13,12,14,3789.960282000015,3791.986039999989,3793.501230099937,3798.5192084000446,3799.09298289998,3799.0929880000185,3800.609631599975,3801.6268539000303,q,13,0.573774499935098,1,+10,969,26.042201594049786,-0.7619794428341393,-0.04101345231613318,3454877.0,2.4750122697661947,-0.43681723744134526,0.030391438753577527,3458410.0,-5.9313981426580575,1.2399137742845538,-0.054617594576470196,3585837.0,3793.4951718459924,3789.9621718459925,3920.9221718459926
186,44,21,F,1,4,178.0,26,2,low,5 + 8 + 1 - 1 + 9,22,21,23,22,3803.14384569996,3805.178837700049,3806.694196600001,3811.7123798000393,3812.461052299943,3812.461058099987,3813.977686499944,3814.994550599949,e,22,0.7486724999034777,1,+1,970,-8.655576882886761,-0.990708914614661,0.22495705329635673,3468070.0,-5.823815086254365,-0.44304227102159466,-0.0960316302876214,3471604.0,-20.699417587078457,-0.15415973913260483,0.0689547846739258,3492014.0,3806.6891718459924,3803.1551718459928,3827.0991718459927
187,44,21,F,1,4,179.0,27,2,high,6 + 1 + 7 - 8 - 1,5,7,5,4,3816.511333200033,3818.53931709996,3820.05458919995,3825.073288599961,3825.5889035,3825.588908500038,3827.10546979995,3828.122627799981,w,5,0.5156149000395089,1,+10,980,3.563430389781507,-0.8227928895925274,-0.00938478506653495,3481430.0,17.251438885408497,0.24346714897121924,-0.04410794604365886,3484965.0,16.519151917470563,0.16579526719478554,-0.06087039006957884,3505205.0,3820.0501718459927,3816.5151718459924,3840.2901718459925
188,44,21,F,1,4,180.0,28,2,low,3 + 8 - 5 + 1 + 1,8,8,9,6,3829.6393594000256,3831.665274500032,3833.180627899943,3838.198974999949,3838.780868700007,3838.780873900047,3840.297247600043,3841.314184100018,q,8,0.581893700058572,1,+1,981,-14.068352581216793,0.31706302481511006,-0.027281358411989975,3494556.0,-13.237044174855836,0.5509222215019332,0.12435485694719373,3498090.0,14.751694562161362,-0.30664623310168526,0.13831962468926173,3612205.0,3833.1751718459927,3829.6411718459926,3947.2901718459925
189,44,21,F,1,4,181.0,29,4,high,4 + 8 + 9 - 3 + 7,25,24,25,26,3842.831197899999,3844.857471499941,3846.3727572000353,3851.391621500021,3852.8689457,3852.868951300042,3854.385415800032,3855.402994700009,w,25,1.4773241999791935,1,+10,991,5.9682955818239805,0.16341894891339237,0.003250215662243594,3507748.0,-11.738903770706578,0.2333697381135904,-0.013078459894590111,3511282.0,,,,,3846.3671718459927,3842.8331718459926,
190,44,21,F,1,4,182.0,30,3,low,6 - 1 + 7 - 8 + 9,13,12,11,13,3856.919507400016,3858.9437075000014,3860.45886080002,3865.4790052999742,3866.397011499968,3866.3970168000087,3867.913435299997,3868.9303673999375,e,13,0.9180061999941244,1,+1,992,0.6004910085231181,0.3682495915040409,0.004317283813064066,3521834.0,-0.10783922770713339,-1.7678535686660313,0.04586145020159349,3525370.0,-4.8354050079398085,0.6838299408525499,-3.132781015521954,3894500.0,3860.4551718459925,3856.9191718459924,4229.585171845993
191,44,21,F,1,4,183.0,31,3,high,7 - 1 + 8 - 6 + 4,12,11,12,13,3870.4477388999658,3872.469885800034,3873.985114000039,3879.003443100024,3879.540925199981,3879.540930500021,3881.05759490002,3882.074789599981,w,12,0.5374820999568328,1,+10,1002,-2.6483123332529006,0.6438321593925709,-0.1736350995713405,3535361.0,-42.91981757280347,-0.5038977532461946,0.1374454164687855,3538895.0,,,,,3873.9801718459926,3870.4461718459925,
192,44,21,F,1,4,184.0,32,4,low,5 + 7 - 4 + 6 + 9,23,24,25,23,3883.591926999972,3885.6192269000458,3887.1344498000103,3892.15316039999,3893.0208641999634,3893.0208692000015,3894.537431100034,3895.554348999984,e,23,0.867703799973242,1,+1,1003,2.008876262195585,-0.098997228579905,0.007128240206299319,3548510.0,-19.056720031161678,-0.03746869362283878,0.03240847923405488,3552044.0,,,,,3887.1291718459925,3883.595171845993,
193,44,21,F,1,4,185.0,33,1,low,7 + 1 + 6 + 1 + 1,16,16,17,18,3897.071028299979,3899.098624599981,3900.6139775000047,3905.6330478000455,3906.2047897999873,3906.2047947000246,3907.721157999942,3908.738665699959,q,16,0.571741999941878,1,+1,1004,0.3750585663921093,-0.2721909393565234,0.07140884307650675,3561989.0,9.401317409913181,-0.7558114327033874,0.03191657026090189,3565524.0,21.937150113857502,0.4484661112228072,3.74838407845038,3599013.0,3900.6091718459925,3897.0741718459926,3934.0981718459925
194,44,21,F,1,4,186.0,34,1,low,7 + 1 + 4 + 1 - 1,12,11,12,13,3910.2551065000007,3912.278235899983,3913.794113600045,3918.812794500031,3919.4128200999694,3919.412825100008,3920.9296011000406,3921.947367900051,w,12,0.6000255999388173,1,+1,1005,-5.1386421778534945,0.050309137675344395,0.056804759880337174,3575169.0,7.962333631986745,-0.7208324169024012,-0.11815201735318093,3578704.0,,,,,3913.7891718459928,3910.2541718459925,
195,44,21,F,1,4,187.0,35,1,low,2 + 1 + 9 + 1 + 1,14,13,14,12,3923.4646096000215,3925.488219699939,3927.00344739994,3932.021362400032,3932.588844200014,3932.58884890005,3934.105316299945,3935.122938200017,w,14,0.5674817999824882,1,+1,1006,20.139731192650157,0.2986853834560286,-0.07406154797736697,3588379.0,-35.166512189312286,1.1030244351569656,-0.161158060629923,3591912.0,,,,,3926.9971718459924,3923.4641718459925,
196,44,21,F,1,4,188.0,36,2,low,4 + 8 + 1 + 1 - 5,9,9,8,11,3936.639342400013,3938.664863800048,3940.1800868000137,3945.1981657999568,3945.780755899963,3945.780760900001,3947.297560599982,3948.314224599977,q,9,0.5825901000062004,1,+1,1007,-5.411671731674906,-0.038617799846941914,-0.5283511741215201,3601556.0,-20.89700365928253,-0.09337682415792337,0.5167794539055852,3605089.0,,,,,3940.1741718459925,3936.6411718459926,
197,44,21,F,1,4,189.0,37,4,low,3 + 8 - 4 + 9 + 7,23,23,24,22,3949.831008399953,3951.858033800032,3953.373513699975,3958.392864899943,3959.308802900021,3959.3088088999502,3960.8254123999504,3961.842204299988,q,23,0.915938000078313,1,+1,1008,5.61332540235763,-1.0497738799470033,0.019299673111059512,3614749.0,5.384562098695777,-0.5396662194779775,0.07890029199688353,3618284.0,,,,,3953.3691718459927,3949.8341718459924,
198,44,21,F,1,5,190.0,0,3,low,8 + 3 + 1 - 7 + 9,14,12,14,15,4218.946037900052,4221.0653746000025,4222.580435500015,4227.599020099966,4228.076729499968,4228.076735200011,4229.592461499968,4230.609350100043,w,14,0.4777094000019133,1,+1,1009,2.6763514277796077,0.025743627433053362,-0.595965607274334,3883957.0,4.785170886489528,0.18631023313978412,-0.13523218530906211,3887490.0,,,,,4222.575171845992,4219.042171845992,
199,44,21,F,1,5,191.0,1,4,high,5 + 7 - 4 - 6 + 9,11,13,11,12,4232.160411900026,4234.230994499987,4235.746898500016,4240.766238600016,4241.332565100049,4241.332570399973,4242.849020399968,4243.866452699993,w,11,0.5663265000330284,1,+10,1019,25.993116126069125,0.029390089615235482,0.3359843114828136,3897121.0,-3.2308819317762776,-0.15598191351687074,-0.07198994192346708,3900656.0,,,,,4235.7411718459925,4232.206171845993,
