,id,age,sex,cued,block,trial,trialinblock,efflev,rewlev,calc,corAns,option1,option2,option3,tstart,ITI1Time,probTime,respTime,selectTime,ITI2Time,fbTime,ITI3Time,key_press,chosenAns,RT,acc,feedback,total_points,cuescr,cuecor,cuezyg,cuetime,probscr,probcor,probzyg,probtime,fbscr,fbcor,fbzyg,fbtime,probtime_c,cuetime_c,fbtime_c
0,45,21,f,0,Practice,,0,1,0,4 + 1 + 9 + 1 + 1,16,15,14,16,75.8706658000001,,75.87066830000003,81.16187930000069,83.95486120000078,83.95486670000082,85.47126010000011,86.49322030000076,e,16.0,2.792981900000086,1,Correct,0,,,,,14.321561921677102,-0.019782960601440358,0.11316363365462667,74344.0,-13.95750815534976,-0.6973690016394167,-0.4551647886711758,83676.0,76.14501201850041,,85.47701201850042
1,45,21,f,0,Practice,,1,1,0,3 + 1 + 1 + 8 - 1,12,10,11,12,88.01007980000031,,88.01008320000074,93.03266750000056,98.54698170000027,98.54699400000028,100.06440480000036,101.09773100000076,w,11.0,5.514314199999717,0,Incorrect,0,,,,,-10.04794561566682,-4.98454267946123,-0.018966271645508348,86215.0,-3.141329691047985,-2.1571180797336087,5.114542782092181,98281.0,88.01601201850042,,100.08201201850042
2,45,21,f,0,Practice,,2,2,0,8 + 1 + 6 + 1 - 4,12,10,12,11,102.6159189,,102.6159258000007,107.63484030000018,108.9069029000002,108.90690910000012,110.42388090000075,111.44256590000076,w,12.0,1.2720626000000266,1,Correct,0,,,,,27.17760261811949,0.8227749265043522,-0.8227484372220903,100818.0,20.708906264412033,-0.9471771710836867,0.7359050484440752,108625.0,102.61901201850041,,110.42601201850042
3,45,21,f,0,Practice,,3,2,0,9 + 4 - 6 + 1 - 1,7,5,7,6,112.9593732000003,,112.95937720000074,117.97860650000077,119.4588730000005,119.4588786000004,120.97572510000008,121.99276230000032,w,7.0,1.4802664999997432,1,Correct,0,,,,,12.874229245021517,0.3471916054436841,-0.20357268580808752,111161.0,8.674903865689771,-0.2553465771674315,-0.9451110363716659,119175.0,112.96201201850042,,120.97601201850041
4,45,21,f,0,Practice,,4,3,0,9 + 3 - 5 + 6 + 7,20,20,22,21,123.50976550000088,,123.5097738000004,128.52907700000014,129.93103300000075,129.93103930000052,131.44799000000057,132.46539640000083,q,20.0,1.4019560000006095,1,Correct,0,,,,,-27.784557099125763,-0.562027241282216,0.9462240983325949,121712.0,-11.213633104660437,-0.6094181129067424,-0.19574305737862208,129648.0,123.51301201850042,,131.4490120185004
5,45,21,f,0,Practice,,5,3,0,2 + 1 + 9 - 7 + 6,11,10,11,9,133.98247920000085,,133.98248270000022,139.00266890000057,140.35477150000042,140.3547778000002,141.87172100000043,142.89026770000055,e,9.0,1.3521025999998528,0,Incorrect,0,,,,,3.5225458631826596,-0.1250369740193813,-0.7445957514900223,132185.0,12.069827500127802,9.83863538560346,3.4244212101215323,140073.0,133.98601201850042,,141.87401201850042
6,45,21,f,0,Practice,,6,4,0,4 + 8 + 5 - 3 + 7,21,22,21,23,144.40754820000075,,144.40755210000043,149.42863580000085,152.0829207000006,152.0829263000005,153.59966730000087,154.61842790000082,e,23.0,2.654284899999766,0,Incorrect,0,,,,,-29.992569072997373,0.31860649695581733,2.8591881917255844,142611.0,-16.27448053855194,-0.6713694076916683,3.7255218217708386,151800.0,144.4120120185004,,153.60101201850043
7,45,21,f,0,Practice,,7,4,0,5 + 8 - 4 + 6 + 9,24,24,23,22,156.13523540000006,,156.13523930000065,161.1547812000008,164.08285670000078,164.0828631000004,165.5998627000008,166.6183770000007,w,23.0,2.928075499999977,0,Incorrect,0,,,,,5.049569528808146,0.35775703828619276,17.50527799190781,154337.0,-31.30229796887032,6.7283349970201165,21.774401189224733,163801.0,156.1380120185004,,165.6020120185004
8,45,21,f,1,0,0.0,0,1,low,5 + 6 + 1 + 1 + 1,14,14,16,13,248.2004233000007,250.2270829000008,251.7425362000004,256.7711160000008,261.78938370000014,261.7893862000001,263.3057261000004,264.3456208000007,,,,0,Too Slow!,0,1.4164191561580886,3.9462323149101657,0.6230251275400258,246409.0,6.284119926178278,-1.9549354545703252,-0.4614138584171523,249953.0,-32.53704381284019,-0.3024960227832114,1.3492599641912504,261528.0,251.75401201850042,248.2100120185004,263.3290120185004
9,45,21,f,1,0,1.0,1,2,low,6 + 1 + 7 - 8 - 1,5,4,5,7,265.86225260000083,267.8977786000005,269.4128522000001,274.43191410000054,275.96046060000026,275.96046620000016,277.47750690000066,278.4946260000006,w,5.0,1.5285464999997205,1,+1,1,-23.818078646210736,-4.394752183640936,0.1864050342920378,264080.0,-17.533778678337104,-0.32697769477828587,1.0133494174740751,267614.0,-33.67083163024819,-2.4647112266010915,0.7745578937713984,1123178.0,269.41501201850036,265.88101201850037,1124.9790120185005
10,45,21,f,1,0,2.0,2,3,low,8 + 4 + 1 - 7 + 9,15,16,13,15,280.0118222000001,282.0559686000006,283.5713131000002,288.5911490000008,290.1044419,290.1044472000003,291.62154760000067,292.638508,e,15.0,1.5132928999992146,1,+1,2,26.008683006089882,-0.6287727834134706,0.44795262812956826,278238.0,7.819694076013807,0.23289789325005206,0.002499705786363382,281773.0,,,,,283.5740120185004,280.0390120185004,
11,45,21,f,1,0,3.0,3,3,low,6 - 1 + 7 - 8 + 9,13,13,11,12,294.1555724,296.17774070000087,297.6929870000004,302.71155720000024,304.0723929000005,304.0723979000004,305.5888008000002,306.60560280000027,q,13.0,1.3608357000002798,1,+1,3,-15.053328300562683,-0.49577428788398326,-0.517802959547101,292360.0,20.83797569039605,0.28275344455765605,-1.99431523272973,295894.0,,,,,297.6950120185004,294.1610120185004,
12,45,21,f,1,0,4.0,4,3,high,8 - 1 + 6 - 7 + 5,11,11,12,13,308.1227090000002,310.1690326000007,311.6838576,316.70263780000005,317.82452320000084,317.82452850000027,319.3412349,320.35875790000046,q,11.0,1.1218854000007925,1,+10,13,4.296825776790449,0.41283381939062114,-1.256482925563763,306351.0,31.674574686149143,0.82198886900842,-0.04962876214973777,309885.0,,,,,311.6860120185004,308.1520120185004,
13,45,21,f,1,0,5.0,5,4,high,6 + 5 - 7 + 8 - 9,3,4,3,5,321.87643670000034,323.9081741,325.4234606,330.44172360000084,331.72838910000064,331.7283943000002,333.2449856000003,334.26250510000045,w,3.0,1.286665499999799,1,+10,23,12.119657736969097,-1.0225831730038992,0.14405390760081205,320090.0,-32.213151108123355,0.44132514437852066,-0.02571345055653329,323624.0,,,,,325.4250120185004,321.89101201850036,
14,45,21,f,1,0,6.0,6,1,low,3 + 1 + 8 + 1 + 1,14,13,14,16,335.77959980000014,337.80569340000056,339.32101410000087,344.3392171000005,345.25639880000017,345.25640400000066,346.7728083000002,347.78984560000026,w,14.0,0.9171816999996736,1,+1,24,13.95666606614274,0.2766415465164833,-0.06806184644034508,333988.0,-30.874724182660437,-0.6607141174820246,-0.12970592113267587,337521.0,,,,,339.3220120185004,335.7890120185004,
15,45,21,f,1,0,7.0,7,3,high,2 + 9 + 1 - 5 + 7,14,12,15,14,349.3063217000008,351.3338059000007,352.8489832000005,357.8678107000005,359.67238780000025,359.67239300000074,361.1886232000006,362.20575910000025,e,14.0,1.804577099999733,1,+10,34,-2.932083690120051,-1.4218714763850437,0.2136868210763263,347516.0,3.66843475371509,-0.853728003164222,0.015564189111298532,351050.0,,,,,352.8510120185004,349.3170120185004,
16,45,21,f,1,0,8.0,8,1,high,9 + 8 + 1 + 1 - 1,18,17,18,19,363.72269980000056,365.8039000000008,367.3192872000009,372.3375995000006,373.1843796000003,373.1843852000002,374.7010778000004,375.71847530000014,w,18.0,0.8467800999997053,1,+10,44,12.828938093513898,-2.017116505035866,-6.172464195531761,361986.0,-0.6365612138201335,0.46133843775015126,0.14596362977688093,365519.0,,,,,367.3200120185004,363.7870120185004,
17,45,21,f,1,0,9.0,9,2,low,5 + 7 - 8 + 1 + 1,6,6,8,7,377.2350414000002,379.2614168,380.7767356000004,385.7953928000006,388.5365102000005,388.53651590000027,390.0533017000007,391.07083860000057,e,7.0,2.7411173999998937,0,+0,44,-0.43192718591904367,-0.20531937121304722,0.15602665776491875,375443.0,-3.131988468140481,0.5971017431835222,1.9529229208933425,378977.0,,,,,380.77801201850036,377.24401201850037,
18,45,21,f,1,0,10.0,10,3,high,4 + 1 + 8 + 9 - 5,17,18,19,17,392.58850770000026,394.6153898000002,396.1301463000009,401.1480958000002,402.3124305000001,402.3124359000003,403.8290108000001,404.8454414000007,e,17.0,1.164334699999927,1,+10,54,-8.181420314719329,-0.11837051700784595,0.0003750892054987798,390797.0,21.422866032764787,0.012106500008089327,3.9936883489121477,394330.0,,,,,396.13101201850037,392.5980120185004,
19,45,21,f,1,0,11.0,11,3,low,3 + 8 + 1 + 5 - 9,8,9,8,7,406.36285790000056,408.38902730000063,409.90401160000056,414.9223693000004,416.1043348000003,416.1043400000008,417.6209783000004,418.6379151000001,w,8.0,1.181965499999933,1,+1,55,7.9416810681942644,1.4332450730048993,-0.1218560389576624,404571.0,27.57723773001263,0.5979362641680108,0.020264547884696338,408104.0,,,,,409.9050120185004,406.3720120185004,
20,45,21,f,1,0,12.0,12,2,low,4 + 9 + 1 - 7 - 1,6,5,6,8,420.1546212000003,422.1915783000004,423.7066956000008,428.72555210000064,429.5524581000009,429.55246330000045,431.0687754000001,432.0854739000006,w,6.0,0.8269060000002355,1,+1,56,22.511925279388024,-0.41113331818762067,-1.7708259822940784,418373.0,-17.869560314434366,0.4867457343666679,-0.578436718581619,421907.0,,,,,423.70801201850037,420.1740120185004,
21,45,21,f,1,0,13.0,13,4,low,7 + 6 - 4 + 9 - 5,13,13,14,12,433.6023465000008,435.6337246000003,437.1490687000005,442.1681190000008,444.4562820000001,444.4562868000002,445.9731173,446.9904438000003,e,12.0,2.2881629999992583,0,+0,56,-27.339842445557295,0.5087732578384516,1.1002662499825786,431815.0,14.877224364859252,-0.03153851046248146,0.3864897978153805,435350.0,,,,,437.1510120185004,433.6160120185004,
22,45,21,f,1,0,14.0,14,3,high,2 + 9 - 3 + 4 + 1,13,11,14,13,448.5069054000005,450.5343685000007,452.0491752000007,457.0685504000003,458.0642907000001,458.0642959000006,459.5818935000007,460.59927830000015,e,13.0,0.995740299999852,1,+10,66,-10.072428145797094,0.8050404571545187,-0.5359811880568208,446716.0,11.228420084627484,-0.07135129613957947,-0.06603405441071164,450250.0,,,,,452.0510120185004,448.5170120185004,
23,45,21,f,1,0,15.0,15,2,high,3 + 1 + 8 - 5 - 1,6,6,7,5,462.1159888000002,464.16217790000064,465.6774008000002,470.6952175000006,472.3843313000007,472.3843372000001,473.90093870000055,474.91825380000046,q,6.0,1.6891138000000865,1,+10,76,-2.3491788487388803,0.12021283064810273,0.11414342343290351,460344.0,12.83963201716259,0.831455557898857,-0.023485894180370837,463877.0,,,,,465.6780120185004,462.1450120185004,
24,45,21,f,1,0,16.0,16,1,high,3 + 1 + 9 + 1 + 1,15,15,17,14,476.4350159000005,478.4616027000002,479.9769891000005,484.9960791000003,486.48829300000034,486.4882986000002,488.0048139,489.0221915000002,q,15.0,1.4922139000000243,1,+10,86,-34.168130975576645,-0.5790585835361579,-1.4138282879546766,474643.0,8.708555647004241,0.27188182867142263,-0.017788572521141965,478178.0,,,,,479.9790120185004,476.44401201850036,
25,45,21,f,1,0,17.0,17,1,high,3 + 1 + 8 + 1 + 1,14,13,14,12,490.5387671000008,492.56281880000006,494.0778609000008,499.0967238000003,500.4563521,500.4563576000001,501.9740140000004,502.9916866000003,w,14.0,1.359628299999713,1,+10,96,12.179851024651335,-0.7126237524961017,0.3024531882554986,488744.0,22.217511756422123,-0.22192252814919122,0.674864303826308,492278.0,,,,,494.0790120185004,490.5450120185004,
26,45,21,f,1,0,18.0,18,2,high,8 + 1 + 9 + 1 - 4,15,16,15,14,504.5088530000003,506.5350083000003,508.0509519000007,513.0692277000007,513.7602536000004,513.7602591000004,515.2767562000008,516.2939883000008,w,15.0,0.6910258999996586,1,+10,106,-8.345734548107245,-10.602902079202309,-8.700459020630053,502716.0,13.421391755858572,1.5332172663881023,-0.45563707939733256,506251.0,,,,,508.05201201850036,504.5170120185004,
27,45,21,f,1,0,19.0,19,2,low,9 + 1 + 6 + 7 + 1,24,23,25,24,517.8105091000007,519.8373860000002,521.3526670000001,526.3706652000001,527.3843272000004,527.3843325000007,528.9006162000005,529.9176683000005,w,25.0,1.013662000000295,0,+0,106,32.50603718240956,-1.0136321533782588,-0.15599044639155468,516019.0,22.472517564440572,0.23684379421017088,0.2460782800313035,519552.0,,,,,521.3530120185004,517.8200120185004,
28,45,21,f,1,0,20.0,20,4,low,7 + 8 - 4 + 6 + 5,22,23,21,22,531.4345324000005,533.4613077000004,534.9765931000002,540.0051168,543.1283323000007,543.1283380000004,544.6447754000001,545.6615046000006,e,22.0,3.123215500000697,1,+1,107,10.741648656650725,-0.13301578243491452,0.00308780161458877,529642.0,14.000214339682962,0.5666078326489687,-0.15847553880993237,533186.0,,,,,534.9870120185004,531.4430120185004,
29,45,21,f,1,0,21.0,21,4,high,2 + 9 - 3 + 5 + 8,21,21,23,22,547.1783992000001,549.2014206000003,550.7169450000001,555.7371395,557.0643306000002,557.0643359000005,558.5810685000006,559.5988637,q,21.0,1.3271911000001635,1,+10,117,1.587656890791039,-0.06888199605863665,-0.07414578056740595,545383.0,37.878296463868004,-0.6310695698880471,-0.16982902347619078,548919.0,,,,,550.7200120185004,547.1840120185004,
30,45,21,f,1,0,22.0,22,3,low,6 + 7 + 8 + 1 - 9,13,15,14,13,561.1157212000007,563.1395238000005,564.6556626000001,569.6742984000002,573.8002496000008,573.8002572000005,575.3169032000005,576.3343639000004,q,15.0,4.1259512000006,0,+0,117,42.55485229884285,-1.0156063315815338,-0.40166579560702953,559321.0,10.159351181158874,-0.34336075514710984,-0.012892131247242977,562856.0,,,,,564.6570120185004,561.1220120185004,
31,45,21,f,1,0,23.0,23,3,low,5 + 6 - 4 - 1 + 8,14,14,16,15,577.8511430000008,579.8775095000001,581.3928010000009,586.4119741000004,588.8562416000004,588.8562468,590.3730586000001,591.3899204000008,q,14.0,2.444267500000024,1,+1,118,2.1714485052111083,-0.8806688479126912,0.0959185405803391,576059.0,-5.34754996090037,-0.4265812642669511,0.2249641546683061,579593.0,,,,,581.3940120185003,577.8600120185004,
32,45,21,f,1,0,24.0,24,1,low,7 - 1 + 9 + 1 - 1,15,13,15,14,592.9066539000005,594.9335950000004,596.4486290000004,601.4669293000006,602.5282099000005,602.5282152000009,604.0450756,605.0625724000001,w,15.0,1.0612805999999182,1,+1,119,-9.65328022844357,-0.1283818587862937,-0.333628768544338,591115.0,17.540120555545286,-1.6556062738959474,-0.0029593325864940567,594648.0,,,,,596.4490120185004,592.9160120185004,
33,45,21,f,1,0,25.0,25,3,high,5 + 7 + 1 - 4 + 6,15,17,15,13,606.5803002000002,608.6085934000002,610.1237581000005,615.1417879,615.9282835000004,615.9282889000006,617.4449605000009,618.4623286000005,w,15.0,0.7864956000003076,1,+10,129,-21.674972450506466,-0.8980570498979006,-1.2369413510319998,604790.0,14.428978270264803,1.114598288329491,0.3210205544765814,608323.0,,,,,610.1240120185004,606.5910120185004,
34,45,21,f,1,0,26.0,26,2,low,7 + 5 + 1 - 1 - 8,4,2,4,3,619.9787832000002,622.0057345000005,623.5210015000002,628.5413791000001,629.3282404000001,629.3282464000004,630.8456060000008,631.8624942000006,w,4.0,0.786861300000055,1,+1,130,-4.864927349903491,-0.46793153972928536,-0.09707719255697222,618187.0,-8.207728915285713,0.2137648664017382,0.14209322741827624,621723.0,,,,,623.5240120185003,619.9880120185004,
35,45,21,f,1,0,27.0,27,1,low,4 + 9 + 1 - 1 - 1,12,12,13,11,633.3788946000004,635.4072128000007,636.9223463000008,641.9401835000008,643.4563073000008,643.4563137000005,644.9728873000004,645.9898342000006,q,12.0,1.5161238000000594,1,+1,131,-6.730479619681844,-0.8715111770129802,0.126802351770964,631588.0,8.576868307520744,0.2491834468343992,0.03498679005304184,635122.0,,,,,636.9230120185003,633.3890120185004,
36,45,21,f,1,0,28.0,28,2,low,4 + 7 + 1 + 1 - 8,5,4,5,7,647.5069971000003,649.5337641000006,651.0487826000008,656.0687839000002,660.4164909000001,660.4164963000003,661.9329595000008,662.9503369000004,q,4.0,4.3477069999999,0,+0,131,9.075084011583806,0.23762802649209647,0.676405217097751,645715.0,0.8159267257742391,-0.012813695562965854,0.1227956268871806,649250.0,,,,,651.0510120185004,647.5160120185004,
37,45,21,f,1,0,29.0,29,2,low,8 + 1 + 7 + 1 - 4,13,13,12,14,664.4671163000003,666.4904245000007,668.0056293000007,673.0243437000008,673.6721568000003,673.6721622000005,675.1888900000004,676.2057610000002,q,13.0,0.6478130999994391,1,+1,132,-6.742636531627218,-0.030650251895730563,0.1278134341835846,662672.0,-1.4730589719001612,0.17743486180933044,0.05626039532887006,666205.0,,,,,668.0060120185004,664.4730120185004,
38,45,21,f,1,0,30.0,30,1,low,6 + 9 + 1 + 1 - 1,16,16,14,15,677.7226595000002,679.7471811000005,681.2625164000001,686.2808677000003,687.1522425000003,687.1522477000008,688.6687529000001,689.6856120000002,q,16.0,0.8713748000000123,1,+1,133,25.034175404838564,-0.001239762176886039,-0.007702922567157433,675928.0,-3.9882686220146795,1.0439249575162526,-0.00038696118974002047,679462.0,,,,,681.2630120185004,677.7290120185004,
39,45,21,f,1,0,31.0,31,4,low,7 + 6 - 9 + 8 - 3,9,9,8,7,691.202456,693.2294806,694.7446344,699.7639379000002,700.9362924000006,700.9362977000001,702.4529114000006,703.4695777000006,q,9.0,1.1723545000004378,1,+1,134,21.57844426513544,-0.03875402080177981,-0.1837128105223802,689410.0,1.376179331418431,0.08441961487467164,-0.03510480032148178,692944.0,,,,,694.7450120185003,691.2110120185004,
40,45,21,f,1,0,32.0,32,3,low,9 + 3 - 4 + 6 + 7,21,22,21,23,704.9860895000002,707.0140074000001,708.5292945000001,713.5476935000006,714.7521079000007,714.7521128000008,716.2691893000001,717.2862887000001,w,21.0,1.2044144000001324,1,+1,135,-42.706271420302684,0.5247566279424385,0.10637052213863796,703195.0,-36.76014305925957,-0.09574685051472365,-0.10369743683277033,706729.0,,,,,708.5300120185004,704.9960120185004,
41,45,21,f,1,0,33.0,33,3,high,7 - 1 + 8 - 6 + 4,12,13,11,12,718.8030393000008,720.8262734,722.3413615000009,727.3601290000006,730.6641515000001,730.6641578000008,732.1805363000003,733.1979523,e,12.0,3.304022499999519,1,+10,145,14.624006361343195,-1.5756919343546887,2.166035312483526,717008.0,14.821908340375606,-13.286281761659735,-1.270967843211972,720541.0,,,,,722.3420120185004,718.8090120185004,
42,45,21,f,1,0,34.0,34,2,high,3 + 8 + 1 - 5 + 1,8,9,8,6,734.7146013000001,736.7415721000007,738.2569254,743.2752579000007,744.2642218000001,744.2642270000006,745.7813209000005,746.7986208000002,w,8.0,0.9889638999993622,1,+10,155,11.71397084133779,-3.9529126668749655,-0.11045618805118762,732922.0,13.839043901548955,1.031144103471311,1.271079864147594,736456.0,,,,,738.2570120185004,734.7230120185004,
43,45,21,f,1,0,35.0,35,4,high,2 + 9 - 4 + 8 + 7,22,21,23,22,748.3155471,750.3428962000007,751.8581938000007,756.8769473000002,757.9282144000008,757.9282196000004,759.4447936000006,760.4624286000007,e,22.0,1.0512671000005869,1,+10,165,-3.762479603856839,-2.200501015400751,-0.7172123254419693,746524.0,18.444594545934212,0.838238442875384,1.066337813377253,750058.0,,,,,751.8590120185004,748.3250120185004,
44,45,21,f,1,0,36.0,36,3,low,6 - 1 + 7 - 8 + 9,13,12,13,11,761.9797383000005,764.0045458000004,765.5199735000006,770.5384027,773.3921785000002,773.3921841000001,774.9088146000004,775.9261308000005,e,11.0,2.8537758000002214,0,+0,165,26.390295560754325,-1.4851605559744883,-0.039269031796789644,760185.0,5.125666514895748,0.4387938377674079,0.3450998972662527,763719.0,,,,,765.5200120185004,761.9860120185003,
45,45,21,f,1,0,37.0,37,1,low,2 + 9 + 1 + 1 + 1,14,13,12,14,777.4430531000007,779.4706827,780.9856521000002,786.0034830000004,787.2321495000006,787.2321553000002,788.7487505000008,789.7656530000004,e,14.0,1.2286665000001449,1,+1,166,-18.320748274592475,-1.038759970293519,-0.20589225974359504,775651.0,-0.693386181127674,0.32300815776070824,-0.03503125048808542,779185.0,,,,,780.9860120185003,777.4520120185003,
46,45,21,f,1,1,38.0,0,4,low,5 + 7 - 4 - 6 + 9,11,13,12,11,819.7723352000003,821.7996024000004,823.3146563,828.3346840000004,829.8961554000007,829.8961605000004,831.4131854000007,832.4307943000003,q,13.0,1.5614714000003005,0,+0,166,-1.903829837265047,-0.8945286459471449,3.0035639491243944,817980.0,17.551208991885307,-0.5045904539806001,-0.05164902815769157,821516.0,,,,,823.3170120185003,819.7810120185004,
47,45,21,f,1,1,39.0,1,2,high,9 + 5 - 6 + 1 - 1,8,8,7,9,833.9477815,835.9699489000004,837.4852823000001,842.5043629000002,843.2000456000005,843.2000506000004,844.7167543000005,845.7347826000005,q,8.0,0.6956827000003614,1,+10,176,-11.504335252109254,0.8478779396058655,-1.0667012501248698,832151.0,-2.722592397018559,0.10678773420124887,-2.0052115355729234,835685.0,,,,,837.4860120185003,833.9520120185003,
48,45,21,f,1,1,40.0,2,4,high,3 + 8 - 4 + 9 + 6,22,21,22,23,847.2519792000003,849.2802865000003,850.7955347000006,855.8136684000001,856.6881517000002,856.6881571000004,858.2045775000006,859.2215919,w,22.0,0.8744833000000654,1,+10,186,-4.304443722320356,1.3739635972025397,-3.205964308242005,845461.0,21.473608026653732,-0.08771993113916654,0.22301843533494736,848995.0,,,,,850.7960120185004,847.2620120185004,
49,45,21,f,1,1,41.0,3,1,high,9 + 8 + 1 + 1 - 1,18,17,18,20,860.7384665000009,862.7618453000005,864.2770512000006,869.2949097000001,870.0801031000001,870.0801083000006,871.5967323000004,872.6138222000009,w,18.0,0.7851934000000256,1,+10,196,19.66954885514694,0.041078262768725615,0.234256133897071,858942.0,-39.97540590924223,0.8650299310852185,0.035612465510312497,862476.0,,,,,864.2770120185004,860.7430120185004,
50,45,21,f,1,1,42.0,4,2,high,6 + 1 + 1 + 8 - 9,7,9,5,7,874.1312108000002,876.1583684000007,877.6737121000006,882.6917532000007,883.5920132000001,883.5920183000007,885.1085212000007,886.1257800000003,e,7.0,0.9002599999994345,1,+10,206,-0.3825107688869056,-0.4736927636340944,0.13620858022764382,872339.0,7.514183178503554,-1.2199944226016681,-0.35091157402324624,875872.0,,,,,877.6730120185003,874.1400120185004,
51,45,21,f,1,1,43.0,5,1,low,8 + 1 + 1 - 1 - 4,5,3,6,5,887.6423796000008,889.6695714000007,891.1849692000005,896.2037287000003,897.0721673000007,897.0721730000005,898.5885383000004,899.6059017000007,e,5.0,0.8684386000004451,1,+1,207,-12.205330347403894,0.02286426894265592,0.0061327649368363435,885850.0,1.9856574476864566,1.5576152566553443,0.2990799533988515,889385.0,,,,,891.1860120185004,887.6510120185004,
52,45,21,f,1,1,44.0,6,2,low,4 + 8 + 1 + 1 - 6,8,9,8,7,901.1226735,903.1502139000004,904.6655442,909.6837294000006,910.8320649000008,910.8320703000009,912.3484970000007,913.3656612000004,q,9.0,1.1483355000000302,0,+0,207,45.30819039850523,-0.09980784289628097,0.1334850213852654,899331.0,-17.474675094913675,-0.07618179611437625,0.06517117391652594,902864.0,,,,,904.6650120185004,901.1320120185004,
53,45,21,f,1,1,45.0,7,4,low,8 + 4 + 7 - 5 - 6,8,6,9,8,914.8821368000008,916.9083253000008,918.4235367,923.4422492000004,924.6400969000006,924.6401022,926.1568389000004,927.1736835000002,e,8.0,1.1978477000002383,1,+1,208,21.150307023736172,0.5463879505774205,-0.05219750464161521,913089.0,-24.069455688715017,-0.11883549887520672,-0.07731297319922703,916623.0,,,,,918.4240120185004,914.8900120185004,
54,45,21,f,1,1,46.0,8,1,high,7 + 1 + 4 + 1 - 1,12,12,11,13,928.6903771000008,930.7178752000008,932.2333317000002,937.2515893000008,937.9841560000004,937.9841612,939.5008458000002,940.5183398000008,q,12.0,0.7325666999995519,1,+10,218,-21.9711895316749,0.6236951446284884,-0.15009220773928744,926898.0,0.6970881185568771,-0.14654631815127583,-0.05332535026045049,930432.0,,,,,932.2330120185004,928.6990120185004,
55,45,21,f,1,1,47.0,9,3,low,7 + 1 + 9 + 5 - 6,16,14,16,15,942.0349449000004,944.0604874,945.5756989,950.5938576000008,951.1761073000008,951.1761129000006,952.6924881000004,953.7093563000008,w,16.0,0.5822496999999203,1,+1,219,-11.992012694562291,0.2520484867959025,-0.7227695466179362,940241.0,-14.816459629227229,0.3800169729114664,0.09845918535319198,943775.0,,,,,945.5760120185004,942.0420120185004,
56,45,21,f,1,1,48.0,10,2,low,4 + 1 + 9 + 1 - 6,9,7,9,8,955.2262048000002,957.2534834000008,958.7695051,963.7881579000004,964.4160013,964.4160064000008,965.9326672000008,966.9498373000006,w,9.0,0.6278433999996196,1,+1,220,-6.336872405145258,0.9113870895187546,6.414250441138652,953434.0,-26.423122074165754,0.5191372252084001,0.5538791054773471,956968.0,,,,,958.7690120185003,955.2350120185004,
57,45,21,f,1,1,49.0,11,2,high,6 + 1 + 8 + 7 - 1,21,21,23,19,968.4666287,970.4940193000002,972.0093377000004,977.0278704000002,980.6801167000004,980.6801221000004,982.1969694000009,983.2143018000006,w,23.0,3.6522463000001153,0,+0,220,7.033878433923846,0.8784646838511829,1.363151823898233,966674.0,-41.434863262876284,-0.09122741608395568,-0.3018823518996565,970208.0,,,,,972.0090120185004,968.4750120185004,
58,45,21,f,1,1,50.0,12,4,low,9 + 3 - 5 + 8 + 6,21,23,19,21,984.7316605000004,986.7549172000008,988.2702062000008,993.2886171,995.4880851000008,995.4880903000004,997.0044813000004,998.0217539000004,q,23.0,2.1994680000007065,0,+0,220,36.35745511620938,-5.3529368485582935,-2.185910093590111,982935.0,13.602345983802223,-0.4735671642927066,-0.06582310468785701,986469.0,,,,,988.2700120185004,984.7360120185003,
59,45,21,f,1,1,51.0,13,2,low,6 + 1 + 1 + 7 - 9,6,6,8,4,999.5385987000008,1001.5642722000002,1003.0795964000008,1008.0985374000012,1008.7760318,1008.7760369000008,1010.292539,1011.309403700001,q,6.0,0.6774943999989773,1,+1,221,-4.9587923966563245,-0.6882989582245003,0.42160996915931026,997745.0,11.184270405564588,0.7049892479863002,0.4855500532971999,1001279.0,,,,,1003.0800120185004,999.5460120185004,
60,45,21,f,1,1,52.0,14,1,high,8 + 1 + 4 + 1 + 1,15,15,14,16,1012.8260443,1014.8513624999996,1016.3662931,1021.3842904000012,1022.1039591999996,1022.1039641999996,1023.6205222000008,1024.6374598000002,q,15.0,0.7196687999985443,1,+10,231,-18.10194353538539,1.5667543462998346,0.7882397509336734,1011032.0,-21.277614291656576,0.012577008661807554,-0.5553847742408964,1014565.0,,,,,1016.3660120185004,1012.8330120185004,
61,45,21,f,1,1,53.0,15,2,high,7 + 5 + 1 + 9 + 1,23,23,21,22,1026.154266200001,1028.1812667000013,1029.6965925000004,1034.7147502000007,1035.4879958,1035.4880013000002,1037.0045138000005,1038.0213423000005,q,23.0,0.7732455999994272,1,+10,241,3.556110029783177,0.9946787094159961,-0.15006233449353856,1024361.0,-8.265461863222605,-0.5086124285186697,0.01218901901478553,1027895.0,,,,,1029.6960120185004,1026.1620120185005,
62,45,21,f,1,1,54.0,16,2,high,3 + 9 + 1 - 5 + 1,9,8,9,7,1039.5383299000005,1041.561025500001,1043.0762112000011,1048.093960100001,1048.8079642000012,1048.8079694000007,1050.3245809,1051.3418978999998,w,9.0,0.7140041000002384,1,+10,251,-23.89547144753874,0.7080980705913218,3.1471751395439758,1037742.0,20.970137322450366,0.48476630818104827,0.055521927251399816,1041274.0,,,,,1043.0750120185003,1039.5430120185003,
63,45,21,f,1,1,55.0,17,1,high,8 - 1 + 1 + 6 + 1,15,15,14,16,1052.8581030000005,1054.88595,1056.4011298000005,1061.4203933999995,1062.1440647,1062.1440733,1063.6605137999995,1064.677664500001,q,15.0,0.7236713000002055,1,+10,261,10.787080368466333,-0.16423647645728412,0.02977329080012181,1051066.0,-5.841323929936729,0.8445782494847176,1.0193037731642818e-05,1054601.0,,,,,1056.4020120185005,1052.8670120185004,
64,45,21,f,1,1,56.0,18,4,high,9 + 8 - 5 - 7 + 6,11,13,10,11,1066.1942052000013,1068.2177413999998,1069.733001500001,1074.7537938000005,1077.9760376000013,1077.9760463000002,1079.4925786000003,1080.509791800001,e,11.0,3.222243800000797,1,+10,271,-1.0443529297649565,-0.12895562488808832,-0.42120164273666383,1064398.0,-1.3024913668967315,-0.3748916053922553,0.13544721299792695,1067933.0,,,,,1069.7340120185004,1066.1990120185003,
65,45,21,f,1,1,57.0,19,1,low,3 + 1 + 9 + 1 - 1,13,14,13,12,1082.0263910000012,1084.0536030000003,1085.5688750999998,1090.588142500001,1091.1759839000006,1091.1759890000012,1092.692690400001,1093.7095526000012,w,13.0,0.5878413999998884,1,+1,272,-28.083919982897953,-0.4800156116784331,-0.06786519641016753,1080234.0,0.8409605168711565,-0.054907734063532665,0.20651998628748358,1083768.0,,,,,1085.5690120185004,1082.0350120185003,
66,45,21,f,1,1,58.0,20,2,low,5 + 1 + 7 - 6 + 1,8,8,7,6,1095.226516300001,1097.2532138999995,1098.7684831999995,1103.7876391999998,1105.832051700001,1105.8320569999996,1107.3493325,1108.3664332999997,q,8.0,2.044412500001272,1,+1,273,-20.75081393448252,2.7033752808470313,0.07671882643007955,1093433.0,5.3709485992072175,-0.6696617797913405,0.2108561220350409,1096967.0,,,,,1098.7680120185005,1095.2340120185004,
67,45,21,f,1,1,59.0,21,4,high,8 + 5 - 4 + 7 + 9,25,25,26,24,1109.883272500001,1111.908837500001,1113.4242933000005,1118.4443302,1123.4623905000008,1123.4623931000006,1124.9792139,1125.997560400001,,,,0,Too Slow!,273,-6.194842920558671,0.07660160379647074,1.0121755086442374,1108088.0,-16.514370282891342,-0.4392917048652558,-0.06974258752040052,1111624.0,,,,,1113.4250120185004,1109.8890120185004,
68,45,21,f,1,1,60.0,22,2,high,3 + 8 - 5 + 1 + 1,8,6,9,8,1127.514427600001,1129.5381857000011,1131.0533458999998,1136.0712678,1139.3038875000002,1139.3038924000011,1140.8206061,1141.837673600001,q,6.0,3.232619700000214,0,+0,273,40.46869033218821,1.1177601764532161,2.74299092208489,1125718.0,6.322574860940279,0.9051749497876171,0.17032634762852483,1129252.0,,,,,1131.0530120185003,1127.5190120185005,
69,45,21,f,1,1,61.0,23,1,high,4 + 1 + 1 + 7 - 1,12,13,14,12,1143.3543229000006,1145.3787908000013,1146.8941551999997,1151.9125865000003,1152.5919265000011,1152.5919317000007,1154.1083791,1155.1258180000004,e,12.0,0.6793400000005931,1,+10,283,6.9471517583857025,-0.05027674257706849,0.5798228207036389,1141558.0,15.36550305236102,-0.84097571742765,-4.15423281784954,1145092.0,,,,,1146.8930120185005,1143.3590120185004,
70,45,21,f,1,1,62.0,24,4,low,6 + 7 + 9 - 3 + 5,24,23,24,22,1156.642575400001,1158.6690159000009,1160.1838656,1165.2024497000002,1166.1998877000003,1166.1998930999998,1167.7165968000008,1168.7333822,w,24.0,0.9974380000003292,1,+1,284,-14.533335066438353,-0.660078500678102,0.2871231549053501,1154849.0,-0.6370793411274995,-0.5705444451287631,-0.40734169736849557,1158382.0,,,,,1160.1830120185004,1156.6500120185003,
71,45,21,f,1,1,63.0,25,1,low,5 + 1 + 1 + 9 + 1,17,16,17,19,1170.2508474000006,1172.2767846000006,1173.7924934000002,1178.8100481,1179.2800184000007,1179.2800236000005,1180.796526600001,1181.8129965999997,w,17.0,0.4699703000005684,1,+1,285,-19.15572889290083,-0.63535316339033,-0.03993122158281848,1168457.0,-51.181529519499584,-0.9981792279201622,0.6195636810207812,1171990.0,,,,,1173.7910120185004,1170.2580120185005,
72,45,21,f,1,1,64.0,26,3,high,6 + 8 + 7 + 1 - 9,13,15,13,14,1183.3297769,1185.3561432000006,1186.8714820000005,1191.8901518000002,1192.7040085999995,1192.7040139,1194.220820800001,1195.237992800001,w,13.0,0.8138567999994848,1,+10,295,-41.42511409551017,-0.09286177727741318,0.17817210958470242,1181536.0,4.930473364928702,-0.23725066412470674,-0.2126574262362353,1185070.0,,,,,1186.8710120185003,1183.3370120185004,
73,45,21,f,1,1,65.0,27,2,high,6 + 1 + 1 + 7 - 9,6,4,6,8,1196.754831100001,1198.7812298999995,1200.2964794,1205.3140426999998,1205.8241242000004,1205.8241295000007,1207.3404102000004,1208.3577000000005,w,6.0,0.5100815000005241,1,+10,305,4.029567655793697,1.386105948121262,0.42576424187576656,1194961.0,11.25291972696589,1.3447623055812583,-0.20958324730014666,1198495.0,,,,,1200.2960120185003,1196.7620120185004,
74,45,21,f,1,1,66.0,28,2,high,7 + 6 + 1 - 1 - 8,5,5,4,3,1209.8741762000009,1211.8979981000011,1213.4129591,1218.4316646999996,1219.6319026,1219.631907500001,1221.1479035000011,1222.1649303000013,q,5.0,1.200237900000502,1,+10,315,-8.85192647965914,0.7981208826995729,-0.13854816649948098,1208078.0,22.683222195339788,0.1823070489138603,0.26160852717706207,1211611.0,,,,,1213.4120120185005,1209.8790120185004,
75,45,21,f,1,1,67.0,29,3,low,4 + 7 + 1 + 9 - 5,16,17,16,18,1223.6817522,1225.708114000001,1227.223136300001,1232.2415695,1232.8639702,1232.8639755000004,1234.380769700001,1235.3976617999997,w,16.0,0.6224007000000711,1,+1,316,-15.457565323888321,-0.6439788485202165,0.08164777588552607,1221888.0,19.324687397469667,-0.4078596437736559,0.36139557258886335,1225421.0,,,,,1227.2220120185004,1223.6890120185003,
76,45,21,f,1,1,68.0,30,3,low,3 + 1 + 8 - 5 + 9,16,15,17,16,1236.9144698,1238.9399320000011,1240.455943500001,1245.4741059999997,1246.1599336,1246.1599389000005,1247.6764804000013,1248.6933604000003,e,16.0,0.6858276000002661,1,+1,317,4.526792626539924,0.5992357231340311,0.24887203961855264,1235120.0,-16.980248003005386,0.8695846434198122,1.5636391817933406,1238654.0,,,,,1240.4550120185004,1236.9210120185003,
77,45,21,f,1,1,69.0,31,1,high,3 + 1 + 1 + 9 - 1,13,14,12,13,1250.2100255000005,1252.2372895999997,1253.752340000001,1258.7706469000004,1259.7839347000008,1259.7839399000004,1261.300680800001,1262.318019800001,e,13.0,1.0132878000003984,1,+10,327,-6.000269437999216,0.23512271387783024,0.015556232208960408,1248417.0,7.6033369838421265,-0.28460494028382133,-1.8404112900950187,1251950.0,,,,,1253.7510120185004,1250.2180120185003,
78,45,21,f,1,1,70.0,32,1,high,8 + 1 + 5 + 1 + 1,16,15,16,17,1263.834622800001,1265.8601003000003,1267.3754243000003,1272.3938103,1272.9118417000009,1272.9118469000005,1274.4282925999996,1275.4461558000005,w,16.0,0.5180314000008366,1,+10,337,1.688208763140242,0.5936298265004538,0.4277930139415982,1262040.0,-5.397026807200078,-0.1863767427794123,0.44461888147049367,1265573.0,,,,,1267.3740120185005,1263.8410120185004,
79,45,21,f,1,1,71.0,33,2,high,3 + 9 - 1 - 5 + 1,7,6,7,5,1276.963033,1278.9906713,1280.5057436999996,1285.524276400001,1286.0238470000004,1286.0238523000007,1287.5405201000012,1288.5577912999995,w,7.0,0.4995705999990605,1,+10,347,9.997148971381872,-3.5327181624177344,-7.430919096638337,1275170.0,18.552477199671152,-0.22072859987231652,0.36779802184625576,1278704.0,,,,,1280.5050120185003,1276.9710120185005,
80,45,21,f,1,1,72.0,34,3,high,4 + 5 - 3 + 7 - 1,12,11,13,12,1290.0742886000007,1292.1013347999997,1293.616554100001,1298.6366732999995,1300.1998500999998,1300.199855500001,1301.716596300001,1302.734499600001,e,12.0,1.563176800000292,1,+10,357,-33.52814756561303,-0.7736555911361735,0.2990706039614899,1288281.0,7.303869170129826,-0.034212619062565786,-0.8304649992238926,1291816.0,,,,,1293.6170120185004,1290.0820120185003,
81,45,21,f,1,1,73.0,35,1,high,5 + 6 + 1 + 1 + 1,14,16,15,14,1304.251407600001,1306.2763250999997,1307.7915568000008,1312.8093019000007,1313.5358821999998,1313.535887600001,1315.0524379,1316.0701710000012,e,14.0,0.7265802999991138,1,+10,367,12.177319155534036,-2.314695500512631,-0.25454573503107514,1302456.0,11.43676515103267,0.8314452355702802,1.026866850427969,1305989.0,,,,,1307.7900120185004,1304.2570120185003,
82,45,21,f,1,1,74.0,36,2,low,5 - 1 + 1 + 8 + 9,22,21,22,23,1317.5869940000011,1319.6145441000008,1321.1299254000005,1326.1478688000009,1326.7198648000012,1326.7198700999998,1328.2360500000011,1329.2522602999998,w,22.0,0.5719960000005813,1,+1,368,24.226570541014073,0.6568234580852348,-0.2453097366626702,1315794.0,52.760793544491946,-0.5289972073123081,0.02998740265246691,1319328.0,,,,,1321.1290120185004,1317.5950120185005,
83,45,21,f,1,1,75.0,37,3,high,5 + 1 + 7 - 8 + 6,11,11,9,13,1330.7690973999995,1332.7965406000003,1334.3118414,1339.3305299000003,1340.0718467000006,1340.0718524000004,1341.5885228000006,1342.605884500001,q,11.0,0.741316800000277,1,+10,378,19.88838200965341,-0.20035408860483717,-0.24310795654198092,1328976.0,36.80448857461457,0.0741944999706119,0.4280513254328979,1332510.0,,,,,1334.3110120185004,1330.7770120185005,
84,45,21,f,1,2,76.0,0,4,low,7 + 6 + 8 - 4 + 5,22,23,21,22,1358.2521506000012,1360.2795556,1361.7948527999995,1366.814854100001,1368.4638231999998,1368.4638290000005,1369.9802289,1370.997222600001,e,22.0,1.6489690999987945,1,+1,379,3.006432221855528,0.6080187896838947,0.0005276911574774168,1356459.0,1.5779114241600354,-0.6130435643215737,0.057957093286873596,1359994.0,,,,,1361.7950120185003,1358.2600120185004,
85,45,21,f,1,2,77.0,1,3,high,9 - 1 + 5 - 6 + 8,15,15,14,17,1372.5142026000012,1374.5431055000008,1376.0581077999996,1381.0762738000012,1382.1517705000006,1382.151776300001,1383.6684853999996,1384.6863728000008,q,15.0,1.0754966999993485,1,+10,389,-59.65025821177521,-0.3873734371286952,-1.5543856628190171,1370722.0,-1.1963058762318362,0.3614005769827511,0.2508009201028396,1374256.0,,,,,1376.0570120185005,1372.5230120185004,
86,45,21,f,1,2,78.0,2,3,high,8 - 7 + 9 + 1 + 4,15,16,14,15,1386.2032,1388.2271536999997,1389.742413,1394.7608915,1395.3598163000006,1395.3598217,1396.8766326000004,1397.8939828000002,q,16.0,0.5989248000005318,0,+0,389,2.1283799768054408,-0.8103552664452254,-0.041602528405035644,1384406.0,11.004263329692073,0.41196117942106625,0.16047821319108024,1387940.0,,,,,1389.7410120185004,1386.2070120185003,
87,45,21,f,1,2,79.0,3,2,high,2 + 1 + 9 - 4 + 1,9,11,9,8,1399.411384000001,1401.4380555000007,1402.9539667999998,1407.972297100001,1408.6078780000007,1408.6078835999997,1410.124116500001,1411.1409201999995,w,9.0,0.6355808999996952,1,+10,399,14.364397727359732,1.0154065922089544,0.38765639811683217,1397617.0,9.174421697582918,0.21177713051396374,-0.00015167534820603734,1401152.0,,,,,1402.9530120185004,1399.4180120185003,
88,45,21,f,1,2,80.0,4,3,low,4 + 8 - 3 + 5 - 1,13,12,13,14,1412.6578386,1414.6853532000005,1416.200724100001,1421.2189345000006,1422.3917985999997,1422.3918040000008,1423.9083320000009,1424.925561,q,12.0,1.1728640999990605,0,+0,399,-17.854944821303025,0.30239471359606984,-0.14697543376123945,1410864.0,12.185184728658154,0.014257336224929418,1.018493920415111,1414398.0,,,,,1416.1990120185003,1412.6650120185004,
89,45,21,f,1,2,81.0,5,1,low,6 + 1 + 1 + 7 - 1,14,12,14,13,1426.4426973000009,1428.4691038,1429.9846113000003,1435.0045805999998,1435.6477699000006,1435.6477753,1437.1643827000007,1438.1813675000012,w,14.0,0.6431893000008131,1,+1,400,35.44715979708611,1.019723734202679,0.06727107778761154,1424648.0,-0.8255171348753274,0.0002427491035730256,0.4696993482681271,1428184.0,,,,,1429.9850120185004,1426.4490120185003,
90,45,21,f,1,2,82.0,6,1,low,5 + 8 - 1 + 1 + 1,14,12,14,16,1439.6982121,1441.7218478000011,1443.237092200001,1448.2554520000012,1448.7838384999995,1448.7838438,1450.3004196000002,1451.3174835999998,w,14.0,0.5283864999983052,1,+1,401,-2.43790837703898,-1.00704088434465,-1.1963519434008472,1437901.0,-17.300427006489084,-0.09135720770971112,-0.22564829031296685,1441435.0,,,,,1443.2360120185003,1439.7020120185005,
91,45,21,f,1,2,83.0,7,3,high,3 + 8 - 7 - 1 + 9,12,12,14,13,1452.8343498000013,1454.8615214,1456.3767860000007,1461.3952711000002,1462.5596708000012,1462.5596760000008,1464.0763184999996,1465.0932457,q,12.0,1.1643997000010131,1,+10,411,12.413056221707283,1.384971039465107,1.357252671709238,1451041.0,14.61654308581446,1.921506069199578,0.7178780526039521,1454574.0,,,,,1456.3750120185005,1452.8420120185003,
92,45,21,f,1,2,84.0,8,4,low,5 + 7 - 4 + 6 + 9,23,25,24,23,1466.6100695000005,1468.6365772999998,1470.1519356999995,1475.1706422000009,1477.3917029000004,1477.3917082999997,1478.9082503999998,1479.925996,e,23.0,2.2210606999997253,1,+1,412,3.5511418499349503,-0.6489021951600522,0.10167888538417591,1464816.0,-18.881441741009333,0.20250816246550274,-0.25009357419630085,1468350.0,,,,,1470.1510120185003,1466.6170120185004,
93,45,21,f,1,2,85.0,9,4,low,3 + 8 - 7 + 9 - 5,8,9,7,8,1481.4428257,1483.4683959000013,1484.9837480000006,1490.0021772,1491.2157461000006,1491.2157516000009,1492.732519700001,1493.7496401999997,w,7.0,1.2135689000006096,0,+0,412,-14.71717429401922,-0.37823716856394096,-0.2520928066734345,1479647.0,6.555129729127419,0.6112126625749212,-0.19134341725103043,1483181.0,,,,,1484.9820120185004,1481.4480120185003,
94,45,21,f,1,2,86.0,10,4,low,5 + 8 - 4 - 6 + 9,12,12,14,13,1495.2669032000013,1497.292227100001,1498.8073154000012,1503.825558300001,1504.3597575000003,1504.3597630000004,1505.8762262,1506.893689300001,w,14.0,0.5341991999994207,0,+0,412,0.827560674049427,-0.5635833988340382,-0.057381481137798396,1493471.0,8.919866948738864,-0.14048117462504361,0.11986846903475512,1497005.0,,,,,1498.8060120185005,1495.2720120185004,
95,45,21,f,1,2,87.0,11,4,low,5 + 6 - 4 + 7 + 9,23,24,25,23,1508.4101182000013,1510.4359906999998,1511.9511363,1516.9697742999997,1517.6956854,1517.6956905999996,1519.2122658000008,1520.2291911000011,e,23.0,0.7259111000003031,1,+1,413,-16.16674790622903,-0.34290783036071604,-0.16209107847808024,1506615.0,-20.89738598709316,-0.0032844989089397814,0.20524067854355743,1510149.0,,,,,1511.9500120185003,1508.4160120185004,
96,45,21,f,1,2,88.0,12,3,low,3 + 1 + 8 - 5 + 6,13,14,15,13,1521.745745600001,1523.7728322000005,1525.2887462,1530.3066547,1531.5357700000004,1531.5357753000008,1533.0522674000003,1534.0696186000005,e,13.0,1.229115300000558,1,+1,414,5.625959085541673,0.3734184045562037,-0.2980113246865377,1519952.0,-32.1150026076478,-0.11735601854649325,0.02823530980631661,1523486.0,,,,,1525.2870120185005,1521.7530120185004,
97,45,21,f,1,2,89.0,13,2,low,2 + 1 + 9 - 4 + 1,9,8,9,11,1535.5865439999998,1537.6135324999996,1539.1292493,1544.149017400001,1547.7277147000004,1547.7277203000012,1549.2442525999995,1550.2616342,e,11.0,3.578697299999476,0,+0,414,10.966778558049231,-0.2341129002986566,0.004541595207962379,1533792.0,30.290264928484437,-0.23331393637358655,0.42261174691979364,1537328.0,,,,,1539.1290120185004,1535.5930120185003,
98,45,21,f,1,2,90.0,14,3,low,8 + 3 + 1 - 7 + 9,14,15,14,12,1551.7783686000002,1553.8068760000006,1555.3217806000011,1560.3399704000003,1560.9356731000007,1560.9356785,1562.452395100001,1563.4692472000006,w,14.0,0.5957027000004018,1,+1,415,25.62486793933536,0.6607417055330451,0.33201360872221586,1549986.0,-28.651300939129413,-0.7475411432089842,-0.3031079461107249,1553519.0,,,,,1555.3200120185004,1551.7870120185005,
99,45,21,f,1,2,91.0,15,4,high,5 + 7 - 4 - 6 + 9,11,11,13,12,1564.9860120000012,1567.0099502000012,1568.5249940000012,1573.5447796000008,1575.3757083,1575.3757137000011,1576.8923919999995,1577.9095966000004,q,11.0,1.8309286999992764,1,+10,425,-17.32255974616893,0.15812406304818527,0.26511879832170515,1563189.0,31.090220904753387,0.7157359197032189,0.10668885447910093,1566724.0,,,,,1568.5250120185003,1564.9900120185005,
100,45,21,f,1,2,92.0,16,4,low,2 + 9 - 6 + 8 - 4,9,7,11,9,1579.426150700001,1581.4540732000005,1582.9694144000005,1587.988298100001,1588.5837260999997,1588.5837314,1590.1002547999997,1591.1170402000007,e,9.0,0.5954279999987193,1,+1,426,-31.71002615398843,-1.835895258281635,-0.023312369869939786,1577633.0,30.723915605773772,1.1280670521264988,1.1304369486515053,1581167.0,,,,,1582.9680120185003,1579.4340120185004,
101,45,21,f,1,2,93.0,17,4,high,4 + 7 - 8 + 9 - 4,8,9,8,7,1592.6336047000004,1594.6622303000004,1596.1774523000004,1601.1960283999997,1601.9436579000012,1601.9436634000012,1603.4607321000003,1604.4780112000008,w,8.0,0.7476295000014943,1,+10,436,-9.715651198051866,-0.2600898823891953,0.0856041633406297,1590841.0,-16.065755183959983,-0.13930665204026615,0.0888451542904416,1594375.0,,,,,1596.1760120185004,1592.6420120185003,
102,45,21,f,1,2,94.0,18,4,high,8 + 3 - 4 + 5 + 9,21,23,21,22,1605.994943400001,1608.0190082999998,1609.5343510000002,1614.552488700001,1616.3036626000012,1616.3036680000005,1617.8200969000009,1618.837355400001,q,23.0,1.7511739000001398,0,+0,436,-14.04582498744904,0.34789525644816477,0.421665229663974,1604198.0,35.79778972288731,0.9151437724278892,0.42729529099917074,1607731.0,,,,,1609.5320120185004,1605.9990120185005,
103,45,21,f,1,2,95.0,19,3,low,7 - 1 + 8 - 6 + 4,12,13,11,12,1620.354103400001,1622.3778651000011,1623.8936696,1628.9122833,1631.2316502000012,1631.2316557000013,1632.7482376000007,1633.7650749000004,e,12.0,2.319366900001114,1,+1,437,32.97927199138619,-1.4010465259015548,0.12661287141383326,1618557.0,9.61261311634349,-1.8734238665722986,-0.06551565478457633,1622091.0,,,,,1623.8920120185003,1620.3580120185004,
104,45,21,f,1,2,96.0,20,3,low,5 - 1 - 4 + 6 + 7,13,13,15,14,1635.281850700001,1637.3045306000004,1638.8199213999997,1643.8383023000006,1644.4557843000002,1644.4557903000004,1645.9726689,1646.9900830000006,q,13.0,0.6174819999996544,1,+1,438,10.448440715027976,5.704321428203734,-0.49557591506229004,1633483.0,9.190285336383376,-0.3323502392887212,0.1353046121147914,1637017.0,,,,,1638.8180120185004,1635.2840120185003,
105,45,21,f,1,2,97.0,21,4,high,3 + 9 - 5 + 6 + 8,21,21,22,23,1648.5067937000003,1650.5291785000009,1652.0450895000013,1657.0643729000003,1659.3997049999998,1659.3997102000012,1660.9161233000011,1661.9330518999996,w,22.0,2.335332099999505,0,+0,438,12.97133292074029,-1.1785791925390257,-0.6957676427725912,1646708.0,69.68229860015711,0.34195748831833805,0.01865059180305506,1650242.0,,,,,1652.0430120185003,1648.5090120185005,
106,45,21,f,1,2,98.0,22,4,low,8 + 7 - 4 + 5 + 9,25,26,24,25,1663.4501484000011,1665.477165100001,1666.9924563000004,1672.0108302999995,1673.0883955000008,1673.0884010999998,1674.6050053,1675.6228296999998,q,26.0,1.0775652000011178,0,+0,438,23.207878561243152,-0.8592342480749471,-0.12179159444084098,1661656.0,8.049672654220144,-2.4345313404988875,0.7151205094344659,1665189.0,,,,,1666.9900120185005,1663.4570120185003,
107,45,21,f,1,2,99.0,23,1,low,2 + 1 + 1 + 9 - 1,12,13,11,12,1677.1395709999997,1679.166684400001,1680.6818009,1685.701748000001,1686.375657500001,1686.3756627000002,1687.8922472000013,1688.9095116999997,q,13.0,0.673909499999354,0,+0,438,12.574172609435202,1.6222756824838056,0.6632876181959859,1675345.0,7.140126004756603,0.06067605282000432,0.2799966218573875,1678880.0,,,,,1680.6810120185005,1677.1460120185004,
108,45,21,f,1,2,100.0,24,2,low,5 + 9 - 8 + 1 + 1,8,7,9,8,1690.4260754999996,1692.4534605000008,1693.968718600001,1698.9867828000006,1699.6876013,1699.6876067000012,1701.2040811999996,1702.2217621,e,8.0,0.7008184999995137,1,+1,439,-36.28518901362893,-0.32275829811943657,-1.082565751572393,1688632.0,13.358980168318197,0.20823288241534543,0.13769150629578908,1692165.0,,,,,1693.9660120185004,1690.4330120185004,
109,45,21,f,1,2,101.0,25,2,high,6 + 8 + 1 + 1 - 7,9,9,11,8,1703.738212100001,1705.7652928999996,1707.2806204000008,1712.2988669000006,1713.0395993000002,1713.0396044999998,1714.5560395000011,1715.573609500001,q,9.0,0.7407323999996152,1,+10,449,47.567729746244005,-0.27917398059331866,0.12905043236844382,1701944.0,7.710125717768687,0.30009652756636873,-0.07107561242081206,1705477.0,,,,,1707.2780120185005,1703.7450120185003,
110,45,21,f,1,2,102.0,26,4,low,4 + 9 - 7 + 8 + 5,19,20,21,19,1717.0903184,1719.1159681999998,1720.6310651000003,1725.6498134000012,1726.2956504000013,1726.2956556999998,1727.812103300001,1728.8289993,e,19.0,0.6458370000000286,1,+1,450,-10.032002316693077,0.2373703278835282,0.03503764302789003,1715294.0,5.127032845189167,0.09893068607395161,0.5274292930789581,1718828.0,,,,,1720.6290120185004,1717.0950120185005,
111,45,21,f,1,2,103.0,27,1,low,8 + 1 + 1 + 1 - 3,8,6,9,8,1730.3454757,1732.3728152000003,1733.8886583000003,1738.9065640999995,1739.679568900001,1739.6795743000002,1741.1961248000007,1742.2128451000008,e,8.0,0.7730048000012175,1,+1,451,12.913756786962866,-0.3827928290215734,0.13578885481041358,1728551.0,37.100418677159354,-1.497593112578513,-8.002282315577876,1732085.0,,,,,1733.8860120185004,1730.3520120185003,
112,45,21,f,1,2,104.0,28,1,low,4 + 7 + 1 - 1 - 1,10,9,11,10,1743.7296656,1745.754440300001,1747.2697024000008,1752.2887026999997,1752.9276182000012,1752.9276236000003,1754.4440796,1755.4609208000002,e,10.0,0.6389155000015307,1,+1,452,1.8120600629748296,-2.878923526643624,-1.0864244925917608,1741933.0,-3.248659938498637,-0.3283737711867514,0.17219948920210548,1745466.0,,,,,1747.2670120185003,1743.7340120185004,
113,45,21,f,1,2,105.0,29,4,high,9 + 4 - 6 + 8 + 7,22,22,24,21,1756.977696,1759.0054665999996,1760.520639800001,1765.5409406,1768.5835172000006,1768.583522700001,1770.1003793,1771.1180237000008,w,24.0,3.042576600000757,0,+0,452,6.011216180646631,-28.090945061834088,-0.12264251115809843,1755184.0,-34.21448281133404,-0.014981627440759482,0.14742712700332916,1758719.0,,,,,1760.5200120185004,1756.9850120185004,
114,45,21,f,1,2,106.0,30,4,high,8 + 4 + 7 - 5 - 6,8,7,9,8,1772.634515400001,1774.6592390000003,1776.1752068000003,1781.193749600001,1781.7275021000005,1781.7275073,1783.243738000001,1784.2610683000005,e,8.0,0.5337524999995367,1,+10,462,6.4469241745362424,0.003643388182083207,-0.2576541743296781,1770837.0,-36.6394130613746,5.479096900686379,0.8852072951191001,1774372.0,,,,,1776.1730120185005,1772.6380120185004,
115,45,21,f,1,2,107.0,31,4,low,3 + 9 - 4 + 7 + 6,21,19,20,21,1785.7783075999996,1787.8059233000004,1789.3214066,1794.339948500001,1794.9036425000013,1794.903648000001,1796.4202071,1797.4369841000007,e,21.0,0.563694000000396,1,+1,463,39.677406289373195,-0.036921976456086636,0.10047129113467035,1783984.0,21.99523579856566,3.118759264880556,7.37628551407788,1787518.0,,,,,1789.3190120185004,1785.7850120185003,
116,45,21,f,1,2,108.0,32,2,low,8 + 1 + 1 + 9 - 4,15,16,14,15,1798.9537536000007,1800.9815853,1802.4969438000007,1807.5145156,1808.2075415,1808.207546700001,1809.7238839,1810.741517600001,e,15.0,0.693025900000066,1,+1,464,-2.9346389052668282,-0.04162010287369755,0.07677113798519075,1797160.0,16.557170161894152,-0.6450649697048334,0.060408293845340966,1800693.0,,,,,1802.4940120185004,1798.9610120185005,
117,45,21,f,1,2,109.0,33,3,low,6 - 1 + 7 - 8 + 9,13,12,11,13,1812.258875900001,1814.2866285,1815.8015957000007,1820.8198933000003,1821.9754586,1821.9754637000003,1823.4920110000005,1824.5093082000003,e,13.0,1.15556529999958,1,+1,465,18.888942810555363,0.33707492603126976,0.03212855600758879,1810464.0,-30.46034211277997,0.1586367045619288,-0.15095568701077222,1813998.0,,,,,1815.7990120185004,1812.2650120185003,
118,45,21,f,1,2,110.0,34,3,high,4 + 8 - 9 + 1 + 7,11,13,9,11,1826.0259320000005,1828.0505476,1829.5657310000008,1834.5842434000008,1835.2316235,1835.2316293000003,1836.7481759,1837.7654453,e,11.0,0.6473800999992818,1,+10,475,-18.85689098534558,0.26900567540893006,0.0839073324576014,1824229.0,-57.20071161189028,0.44054677646829,0.019079942027212526,1827762.0,,,,,1829.5630120185003,1826.0300120185004,
119,45,21,f,1,2,111.0,35,1,high,7 - 1 + 1 + 9 - 1,15,14,13,15,1839.282199700001,1841.307359800001,1842.8227404000008,1847.841186,1848.4235530000003,1848.4235583000009,1849.9401396000007,1850.9574166,e,15.0,0.582367000000886,1,+10,485,-24.7825829558315,-0.17805314240787018,-0.03885811062102906,1837485.0,7.005078946999529,0.08760409007709269,0.07985515792920372,1841019.0,,,,,1842.8200120185004,1839.2860120185003,
120,45,21,f,1,2,112.0,36,1,low,9 + 7 + 1 + 1 + 1,19,18,19,20,1852.473954500001,1854.501689300001,1856.0170758000004,1861.0351609000008,1861.615459300001,1861.6154645000008,1863.1319053000009,1864.148811000001,w,19.0,0.5802984000001743,1,+1,486,10.665699273421852,0.08484315997517866,0.286174309989053,1850680.0,4.671398633572246,1.5871764667351558,1.264132168340415,1854213.0,,,,,1856.0140120185004,1852.4810120185005,
121,45,21,f,1,2,113.0,37,2,high,9 + 6 + 1 + 7 + 1,24,24,23,25,1865.666043700001,1867.691944600001,1869.2071658000004,1874.2262112000008,1875.1915641,1875.1915694,1876.708129100001,1877.7252369,q,24.0,0.965352899998834,1,+10,496,3.9247434772114915,0.3993752674884776,-0.011863673522224394,1863870.0,3.702658457524848,2.851122271509525,4.224758584076455,1867404.0,,,,,1869.2050120185004,1865.6710120185003,
122,45,21,f,1,3,114.0,0,3,high,3 + 8 - 7 + 1 + 9,14,13,12,14,1889.163516300001,1891.1908817000003,1892.7061894,1897.7263748000005,1898.5674678,1898.5674731,1900.0843516000004,1901.1016862,e,14.0,0.8410929999990913,1,+10,506,-43.31956324547826,-7.047148922272392,-19.08444657309114,1887369.0,-10.805245659509588,-0.3625901416115207,-0.09792406606151238,1890904.0,,,,,1892.7050120185004,1889.1700120185003,
123,45,21,f,1,3,115.0,1,3,high,7 - 5 + 9 + 1 - 4,8,8,9,7,1902.618056700001,1904.6407390000004,1906.1560427000004,1911.174380600001,1912.8234586,1912.8234636,1914.3400814,1915.3575787000009,e,7.0,1.6490779999985534,0,+0,506,-50.501317995207714,-0.030840926404209767,0.16380550438800512,1900818.0,18.41516537749483,0.11556485744059097,-0.5083023013578398,1904352.0,,,,,1906.1530120185005,1902.6190120185004,
124,45,21,f,1,3,116.0,2,3,high,8 + 5 + 1 - 7 + 9,16,17,14,16,1916.8751384000009,1918.897049000001,1920.4126651999995,1925.431259300001,1926.0714809,1926.0714863000007,1927.5877612000004,1928.6046504000003,e,16.0,0.6402215999987675,1,+10,516,-21.991496750238674,-7.427719603679548,0.07962733007964395,1915075.0,-11.174814896092695,-0.10628110287761672,-0.11717627080779236,1918609.0,,,,,1920.4100120185003,1916.8760120185004,
125,45,21,f,1,3,117.0,3,4,high,2 + 5 - 3 + 9 + 8,21,19,22,21,1930.121536100001,1932.1474707,1933.6627547000007,1938.6811515000009,1939.311456400001,1939.3114614000008,1940.8279704,1941.8452696000004,e,21.0,0.6303048999998282,1,+10,526,-27.82251651102341,-0.0166691529457883,0.005864516107909168,1928326.0,-36.844931254940434,-0.42223825969034356,0.04590828712183925,1931859.0,,,,,1933.6600120185003,1930.1270120185004,
126,45,21,f,1,3,118.0,4,2,low,8 + 1 + 9 + 1 - 5,14,13,14,15,1943.3620331,1945.3896293,1946.9049257999995,1951.9238731000005,1952.4874388000007,1952.487444100001,1954.0040031000008,1955.0206436000008,w,14.0,0.5635657000002539,1,+1,527,7.268730530038351,0.6396063663659532,0.20459463787843402,1941567.0,21.723805397114987,-0.6045068161804115,1.0185707063516314,1945102.0,,,,,1946.9030120185005,1943.3680120185004,
127,45,21,f,1,3,119.0,5,2,high,5 + 8 + 1 - 1 + 9,22,22,21,23,1956.5374737,1958.5653761000008,1960.0811376,1965.099544300001,1965.7275148000008,1965.7275203000008,1967.2438595000003,1968.261062900001,q,22.0,0.6279704999997193,1,+10,537,-4.0047633207845,0.15555202298734327,2.6955023892880883,1954743.0,10.377466904669802,0.0718021674671987,0.029926649629245627,1958277.0,,,,,1960.0780120185004,1956.5440120185003,
128,45,21,f,1,3,120.0,6,4,high,6 + 9 + 7 - 3 - 5,14,13,14,15,1969.7779182000013,1971.8039923,1973.3191069000004,1978.3376812000008,1978.7674214,1978.7674276,1980.2839621000005,1981.3012190000009,w,14.0,0.4297401999992871,1,+10,547,-7.163842063364076,5.791124048626264,9.878042650007744,1967982.0,-1.2854851960775129,0.03482273447405326,-1.1154640659605979,1971515.0,,,,,1973.3160120185005,1969.7830120185004,
129,45,21,f,1,3,121.0,7,1,low,7 + 1 + 5 + 1 - 1,13,12,14,13,1982.8181162,1984.8457564,1986.360932,1991.3793275000007,1992.1594876,1992.1594929000005,1993.6761757000004,1994.6931659,e,13.0,0.7801600999991933,1,+1,548,3.9725625941887444,0.2973483755695918,0.6168750704038839,1981023.0,31.747556487609117,0.02929240565822866,0.06751542758769591,1984557.0,,,,,1986.3580120185004,1982.8240120185003,
130,45,21,f,1,3,122.0,8,3,low,8 + 6 - 7 + 1 - 4,4,5,4,3,1996.209945500001,1998.237374800001,1999.7523705000003,2004.7711719,2005.3195227,2005.3195281000008,2006.8361050000003,2007.8530365000008,w,4.0,0.5483507999997528,1,+1,549,10.979310898480726,0.25002949744319514,0.11148339126499573,1994415.0,7.18858423718774,0.10677850507006115,-0.022408403896138518,1997949.0,,,,,1999.7500120185005,1996.2160120185004,
131,45,21,f,1,3,123.0,9,3,high,7 + 5 + 9 + 1 - 6,16,16,15,14,2009.3696139000003,2011.3937233,2012.9089449000005,2017.9271783000004,2018.4475038,2018.4475091000004,2019.9640617000005,2020.9814054,q,16.0,0.5203254999996716,1,+10,559,21.388523640527563,1.096553516707464,0.7731842698923717,2007571.0,-33.076254786047485,-0.24366095756299,-1.6450517851967044,2011105.0,,,,,2012.9060120185004,2009.3720120185003,
132,45,21,f,1,3,124.0,10,4,high,8 + 4 - 5 + 7 - 6,8,8,7,6,2022.4983015,2024.5226945000013,2026.0377826000004,2031.0565281,2031.6714587000008,2031.6714641,2033.1880117,2034.2053079,q,8.0,0.6149306000006618,1,+10,569,-6.086841965683016,0.3333783621270321,0.0782735911303194,2020700.0,7.335353587292017,0.21256774523444832,0.01796711912672433,2024234.0,,,,,2026.0350120185003,2022.5010120185004,
133,45,21,f,1,3,125.0,11,2,high,8 + 1 + 4 - 7 + 1,7,6,7,5,2035.7219755000008,2037.7498933000008,2039.265081200001,2044.2837098,2044.8393497,2044.8393545,2046.3558519,2047.3725636,w,7.0,0.5556398999997327,1,+10,579,-13.381483191181385,-0.6086016843204121,-0.04720403835022102,2033927.0,8.13499787889622,-1.6366880876675474,-0.2546629629593695,2037461.0,,,,,2039.2620120185004,2035.7280120185003,
134,45,21,f,1,3,126.0,12,2,low,2 + 9 + 1 + 1 - 5,8,6,8,7,2048.8893147,2050.916271600001,2052.431642700001,2057.4515706,2057.9193956,2057.9194008000013,2059.4356439000003,2060.4526073,w,8.0,0.4678249999997206,1,+1,580,19.68286375319994,-0.1422092415794176,0.11705634370379037,2047094.0,11.504689684244187,-0.42240541831021927,-0.07612974424385355,2050629.0,,,,,2052.4300120185003,2048.8950120185004,
135,45,21,f,1,3,127.0,13,3,high,7 - 1 + 9 - 5 + 4,14,15,13,14,2061.9694409000003,2063.9971943,2065.512668900001,2070.531177300001,2071.271441000001,2071.2714464,2072.787966,2073.8051956,e,14.0,0.7402636999995593,1,+10,590,17.98056383882351,0.010901804397696502,-0.10950341822215282,2060174.0,61.37745509218134,0.007386435217507703,0.10938337674990861,2063709.0,,,,,2065.5100120185,2061.9750120185004,
136,45,21,f,1,3,128.0,14,1,high,5 + 1 + 1 + 6 + 1,14,13,14,16,2075.321819500001,2077.3448019000007,2078.859959900001,2083.8775553,2084.279388000001,2084.2793936,2085.795830500001,2086.8134912000005,w,14.0,0.4018327000012505,1,+10,600,53.616787676351876,0.16689361539882297,-0.004295160090567185,2073522.0,4.9428055466578265,0.16698990954389936,0.03713010697187302,2077055.0,,,,,2078.8560120185,2075.3230120185003,
137,45,21,f,1,3,129.0,15,3,high,5 + 6 + 7 - 1 - 9,8,7,9,8,2088.330834800001,2090.353965800001,2091.8689278,2096.8874051000003,2097.463372800001,2097.4633784,2098.979914700001,2099.9968859,e,8.0,0.5759677000005468,1,+10,610,-31.501948446016613,0.2934049699768977,0.8207287603099758,2086531.0,29.940514225490627,-3.6559245063178496,-7.063665250734766,2090065.0,,,,,2091.8660120185004,2088.3320120185003,
138,45,21,f,1,3,130.0,16,2,high,3 - 1 + 9 - 5 + 1,7,6,7,5,2101.513405900001,2103.5404643,2105.055808900001,2110.0736805,2110.5033418000003,2110.503347,2112.0206597,2113.037854600001,w,7.0,0.4296613000005891,1,+10,620,1.5918565765298816,-0.01419385848523147,-0.2165777455086102,2099718.0,5.30199439831582,0.15132755082293636,-1.7144278901797638,2103251.0,,,,,2105.0520120185006,2101.5190120185002,
139,45,21,f,1,3,131.0,17,3,low,3 + 1 + 6 - 8 + 9,11,12,11,13,2114.5545285000007,2116.5828611,2118.0979195,2123.116128400001,2123.9033017,2123.9033070000005,2125.419727300001,2126.4366831000007,e,13.0,0.7871732999992673,0,+0,620,-31.663760204787657,-0.3083610560596419,1.064189421639746,2112760.0,-27.985280620383055,-1.8763608751757155,-0.5393835768890725,2116294.0,,,,,2118.0950120185003,2114.5610120185006,
140,45,21,f,1,3,132.0,18,1,high,6 + 1 + 1 + 9 - 1,16,14,16,15,2127.9539399000005,2129.977431000001,2131.4926357000004,2136.5103363,2137.1112897000003,2137.1112951,2138.6276538,2139.645010800001,w,16.0,0.6009534000004351,1,+10,630,-12.573951498495088,0.41200376839839237,0.4373719973669139,2126155.0,30.58261295809211,-0.17318977900113364,0.0769057501655741,2129688.0,,,,,2131.4890120185005,2127.9560120185006,
141,45,21,f,1,3,133.0,19,1,high,3 + 1 + 1 + 8 - 1,12,12,14,13,2141.161903100001,2143.185590000001,2144.7014175000004,2149.719308,2150.2953358000013,2150.2953413,2151.8118342,2152.82906,q,12.0,0.5760278000016115,1,+10,640,-9.468505314001181,-0.20259267297420802,-0.006917094484116149,2139363.0,25.15138714266148,-0.13144809375185895,0.09974501783468148,2142897.0,,,,,2144.6980120185003,2141.1640120185,
142,45,21,f,1,3,134.0,20,1,high,2 + 1 + 9 + 1 - 1,12,12,11,13,2154.345589300001,2156.372050600001,2157.8880389000005,2162.9064177,2163.4553154000005,2163.455320700001,2164.9721173,2165.989402500001,q,12.0,0.5488977000004525,1,+10,650,-5.996005662182217,-3.415856721152796,-1.1119356337554653,2152549.0,-37.565846155801694,4.052639761105423,3.284219533011659,2156084.0,,,,,2157.8850120185,2154.3500120185004,
143,45,21,f,1,3,135.0,21,1,high,8 + 1 + 1 + 1 - 4,7,8,5,7,2167.5058493,2169.5324156000006,2171.0475898000004,2176.0660823,2177.191391100001,2177.1913964,2178.7085745000004,2179.7259292,e,7.0,1.1253088000012212,1,+10,660,3.3424496019533265,-0.06800612301338127,0.020235455303802885,2165710.0,21.009662339533953,0.2141036081251939,-0.02333471475692117,2169243.0,,,,,2171.0440120185003,2167.5110120185004,
144,45,21,f,1,3,136.0,22,4,high,5 + 8 - 6 + 7 + 4,18,18,19,17,2181.2429847000003,2183.2650194,2184.7801953,2189.8003781000007,2191.1752954000003,2191.1753004,2192.6913523000003,2193.708933,q,18.0,1.3749172999996515,1,+10,670,-3.3262631541564467,0.10970304149022825,0.4537660057322621,2179443.0,31.937085310895043,-0.5455010565504259,-0.12313762493027358,2182978.0,,,,,2184.7790120185005,2181.2440120185006,
145,45,21,f,1,3,137.0,23,1,low,5 + 9 - 1 + 1 + 1,15,15,17,13,2195.2257709000005,2197.2495798,2198.764768000001,2203.7829972,2204.6553594,2204.6553649,2206.1717917000005,2207.188500800001,q,15.0,0.8723621999997704,1,+1,671,0.7127296857034207,-0.34263933354094966,0.014315868464642278,2193427.0,28.256506340207647,-0.3893278887306302,-2.3741344792151566,2196960.0,,,,,2198.7610120185004,2195.2280120185005,
146,45,21,f,1,3,138.0,24,3,high,6 + 1 + 8 + 7 - 9,13,14,15,13,2208.7053153,2210.7332288,2212.2484927000005,2217.2670191,2218.2712857999995,2218.271291700001,2219.787882800001,2220.8052384,e,13.0,1.0042666999997891,1,+10,681,-32.59946795311605,-2.0013339408153294,-2.635955588493646,2206910.0,-38.23048592785908,0.32079913982905195,0.2551548744025607,2210444.0,,,,,2212.2450120185003,2208.7110120185002,
147,45,21,f,1,3,139.0,25,2,low,4 + 9 - 7 + 1 - 1,6,8,6,5,2222.3214895,2224.3491137,2225.8643460000003,2230.882709900001,2231.495253700001,2231.4952587000007,2233.0116247000005,2234.0285222,w,6.0,0.6125437999999122,1,+1,682,-4.482243250831626,0.7672315125227938,0.4010888614086816,2220526.0,7.038222923966563,-0.04340977973174054,0.12457691797345105,2224060.0,,,,,2225.8610120185003,2222.3270120185,
148,45,21,f,1,3,140.0,26,2,low,4 + 8 + 1 + 1 - 5,9,8,11,9,2235.5451803,2237.568677000001,2239.083883700001,2244.102126900001,2245.1995408,2245.1995468000005,2246.715785800001,2247.7328660000003,e,9.0,1.0974138999990828,1,+1,683,17.67249635006734,0.4979028082151946,1.0947864315151858,2233746.0,-3.756433612265152,-0.5696753172771438,-0.0028612067707922684,2237279.0,,,,,2239.0800120185004,2235.5470120185005,
149,45,21,f,1,3,141.0,27,1,high,6 + 9 + 1 + 1 - 1,16,16,14,15,2249.2498928000005,2251.2731967,2252.7880621000004,2257.8060062000004,2258.823234200001,2258.8232394000006,2260.3397712000005,2261.3568533,q,16.0,1.017228000000614,1,+10,693,-12.599148829760233,-6.270234192636214,5.503534252518247,2247451.0,0.12707448484934014,0.16660178248704138,-1.0432924814143307,2250983.0,,,,,2252.7840120185006,2249.2520120185004,
150,45,21,f,1,3,142.0,28,2,high,9 + 6 + 1 + 7 + 1,24,23,25,24,2262.8736627,2264.900710400001,2266.4160871000004,2271.4352776,2272.5352095,2272.535214700001,2274.0516966,2275.0688874000007,q,23.0,1.0999319000002288,0,+0,693,-31.569665478570514,0.14763825734136837,-0.25273262700242927,2261078.0,11.790608694359197,-0.1440734551160796,0.05576857778739708,2264612.0,,,,,2266.4130120185005,2262.8790120185004,
151,45,21,f,1,3,143.0,29,3,low,4 + 1 + 8 + 9 - 5,17,19,17,18,2276.5859191,2278.659006600001,2280.173463900001,2285.1932268,2285.9512541000004,2285.9512593,2287.4677264,2288.4846168000004,w,17.0,0.7580273000003217,1,+1,694,20.62198519904193,-1.1226810318823115,-0.33482225077437033,2274836.0,3.3841829303061566,0.011054942790470257,-0.3467771533089914,2278370.0,,,,,2280.1710120185003,2276.6370120185,
152,45,21,f,1,3,144.0,30,1,low,4 + 8 + 1 - 1 - 1,11,11,9,13,2290.001121700001,2292.027695500001,2293.5434592,2298.5617344,2299.2872965999995,2299.2873019,2300.803706800001,2301.8206253000008,q,11.0,0.7255621999993309,1,+1,695,13.779194518449769,0.27245238150078066,0.30221950891437954,2288205.0,6.80947831904333,-0.15307889732486668,1.1004948221066524,2291739.0,,,,,2293.5400120185004,2290.0060120185003,
153,45,21,f,1,3,145.0,31,4,low,9 + 7 - 5 + 8 + 6,25,27,25,24,2303.337446900001,2305.3637758000004,2306.8789946,2311.8992746000004,2312.3911964,2312.391201800001,2313.9078949000013,2314.9247632000006,w,25.0,0.4919217999995453,1,+1,696,-72.41373456869131,-0.3491400011368162,0.0374426781474948,2301541.0,28.511901019531418,-3.3761085263133674,-8.102172341621351,2305076.0,,,,,2306.8770120185004,2303.3420120185006,
154,45,21,f,1,3,146.0,32,2,high,5 - 8 + 7 + 1 + 1,6,8,6,7,2316.4419898,2318.4662795000004,2319.9815204999995,2325.000142300001,2325.3912801999995,2325.3912858000003,2326.907739600001,2327.9252831000013,w,6.0,0.3911378999982844,1,+10,706,24.398731842132868,-0.8706904545087841,0.06406809285973547,2314644.0,5.680556519909124,-0.7055731952006203,-1.1255496239000966,2318177.0,,,,,2319.9780120185005,2316.4450120185,
155,45,21,f,1,3,147.0,33,2,low,6 + 1 + 8 + 5 - 1,19,17,19,18,2329.4421807,2331.468599900001,2332.983758100001,2338.0025377,2338.6151604999995,2338.615165700001,2340.132306700001,2341.1496953000005,w,19.0,0.6126227999993716,1,+1,707,4.686601365483776,0.863241252466346,1.3201895839208837,2327645.0,28.33102630156039,0.04427447166018306,0.05857982653157734,2331179.0,,,,,2332.9800120185005,2329.4460120185004,
156,45,21,f,1,3,148.0,34,2,low,9 + 4 + 5 + 1 - 1,18,18,19,17,2342.6661561,2344.6906414000005,2346.2058555000003,2351.2241338000003,2351.823148900001,2351.823154,2353.3393535,2354.3562769,q,18.0,0.5990151000005426,1,+1,708,-13.642198849032184,-0.49689410025994585,-0.007421743425188199,2340868.0,12.147592325814205,0.06657856995226918,-0.05475564432110258,2344401.0,,,,,2346.2020120185,2342.6690120185003,
157,45,21,f,1,3,149.0,35,4,low,3 + 8 - 5 + 9 - 7,8,8,6,7,2355.873018800001,2357.8996634,2359.4148922000004,2364.4330735000003,2366.1352585000004,2366.1352639,2367.6516255000006,2368.6684401,q,8.0,1.7021850000000995,1,+1,709,-11.769811676166636,-0.09660460165345786,0.029663817089581768,2354077.0,-6.863496066922635,-0.16196556696971776,-0.33057876310064094,2357610.0,,,,,2359.4110120185005,2355.8780120185006,
158,45,21,f,1,3,150.0,36,4,high,4 + 7 - 8 + 9 - 3,9,9,8,11,2370.1847908,2372.2113360000003,2373.7265123,2378.746818,2379.3511881000013,2379.3511935000006,2380.8677448,2381.8847002,q,9.0,0.6043701000016881,1,+10,719,-10.787649907475119,0.12803509399438973,0.05225613495848069,2368388.0,-26.455145037757084,0.23188251663087422,-0.042148589502889466,2371924.0,,,,,2373.7250120185004,2370.1890120185003,
159,45,21,f,1,3,151.0,37,3,low,2 + 1 + 9 - 5 + 6,13,14,11,13,2383.4014774000007,2385.4262432,2386.9413993,2391.9596041000004,2392.567139300001,2392.5671445000007,2394.0832929000007,2395.1005757000003,e,13.0,0.6075352000007115,1,+1,720,-29.515307843152037,0.639024674678291,-0.2323568265022875,2381603.0,21.29628166229284,0.5857688625213906,-0.09966029478161098,2385136.0,,,,,2386.9370120185004,2383.4040120185005,
160,45,21,f,1,4,152.0,0,3,high,2 + 1 + 9 - 4 + 6,14,15,16,14,2405.531206200001,2407.5566578,2409.0727002000003,2414.0928655000007,2415.4711835,2415.4711886000005,2416.9876748999995,2418.004997,e,14.0,1.3783179999991262,1,+10,730,22.865757308961975,-4.867080753145601,-4.603517108569868,2403733.0,-2.220240304345725,0.23875138093668014,0.12503340450946232,2407269.0,,,,,2409.0700120185,2405.5340120185006,
161,45,21,f,1,4,153.0,1,4,high,4 + 7 + 9 - 5 + 7,22,22,23,24,2419.5221688,2421.5479937,2423.0630633,2428.081777900001,2428.6872542,2428.6872600000006,2430.2037858000003,2431.2210784,q,22.0,0.6054762999992818,1,+10,740,-67.4598448311021,3.082925045764478,4.060482007427528,2417725.0,19.692220073548285,0.07915203767290535,0.14771121625210193,2421258.0,,,,,2423.0590120185,2419.5260120185003,
162,45,21,f,1,4,154.0,2,4,high,3 + 9 - 5 + 8 - 7,8,9,7,8,2432.7378850000005,2434.763496400001,2436.278443500001,2441.2969424000003,2443.343185200001,2443.3431906000005,2444.8598808000006,2445.877087300001,e,8.0,2.0462428000009822,1,+10,750,-15.924664530841156,-4.337386542944029,-8.210414400479243,2430940.0,-11.156206714495195,0.23102160755598833,-0.928611026368992,2434473.0,,,,,2436.2740120185003,2432.7410120185004,
163,45,21,f,1,4,155.0,3,4,high,4 + 7 + 8 - 3 + 9,25,25,26,24,2447.3938535,2449.419968600001,2450.9352068000007,2455.9539308000003,2456.5751605000005,2456.5751660000005,2458.0917433000013,2459.109257,q,25.0,0.6212297000001854,1,+10,760,45.09156031345677,-0.7292335430660692,-2.997878015443564,2445597.0,18.894147532984224,-0.6004761702707104,0.1693746137661556,2449130.0,,,,,2450.9310120185005,2447.3980120185006,
164,45,21,f,1,4,156.0,4,1,high,2 + 1 + 9 + 1 + 1,14,12,13,14,2460.625941,2462.6524622,2464.1685592000013,2469.1864425000003,2469.743213,2469.743218900001,2471.2597035,2472.2769346000005,e,14.0,0.5567704999994021,1,+10,770,-124.30273428443712,0.44980205615633695,0.3596989812722464,2458829.0,3.504098994828553,1.0268566880562102,2.8911974666567968,2462363.0,,,,,2464.1640120185,2460.6300120185006,
165,45,21,f,1,4,157.0,5,3,low,2 + 1 + 9 - 7 + 6,11,12,13,11,2473.7937500000007,2475.8197605000005,2477.3349894000003,2482.3537055,2483.4072061000006,2483.4072115,2484.924373400001,2485.941511700001,e,11.0,1.0535006000009162,1,+1,771,-3.1424476789407367,-1.0979210117298663,0.09544682305321484,2471996.0,5.527576564339375,-0.7787955262952915,-0.0018743821356088652,2475530.0,,,,,2477.3310120185006,2473.7970120185005,
166,45,21,f,1,4,158.0,6,4,high,7 + 6 - 9 + 8 - 3,9,9,8,7,2487.458385,2489.4851753000003,2491.000379000001,2496.018554800001,2496.695231400001,2496.695237,2498.2116807,2499.2286932000006,q,9.0,0.6766766000000644,1,+10,781,-16.224567672752904,-0.6354715939111708,-0.026398771973620283,2485662.0,23.13541750304983,0.013901262540136905,1.365016030751304,2489195.0,,,,,2490.9960120185006,2487.4630120185,
167,45,21,f,1,4,159.0,7,4,low,5 + 7 - 4 + 8 + 6,22,23,24,22,2500.7454566,2502.7724230000003,2504.2876999,2509.3061369000006,2509.975178300001,2509.9751837000003,2511.4918511,2512.508801600001,e,22.0,0.6690414000004239,1,+1,782,-34.361655894558666,0.1230196665519867,0.05034394988725732,2498949.0,53.313286190573905,0.4934449711309341,-0.11056198073334467,2502483.0,,,,,2504.2840120185006,2500.7500120185005,
168,45,21,f,1,4,160.0,8,4,low,4 + 7 + 8 - 3 + 9,25,26,24,25,2514.025512800001,2516.0486235000008,2517.5639028000005,2522.5823521,2523.4792124,2523.4792179,2524.9956672000008,2526.0124806000003,e,25.0,0.8968602999993891,1,+1,783,-35.18782400321121,-0.5567370767252289,-0.041723220849408715,2512225.0,-14.68442009053075,2.320951809906877,4.6393061979285175,2515759.0,,,,,2517.5600120185004,2514.0260120185003,
169,45,21,f,1,4,161.0,9,2,low,7 + 6 + 1 + 8 + 1,23,22,23,21,2527.5291851,2529.5561608000007,2531.0714874000005,2536.0902912,2536.6391052,2536.6391107,2538.1559070000003,2539.1727684,w,23.0,0.5488139999997657,1,+1,784,15.897113085861772,-0.04055486757056581,0.13438620929718148,2525732.0,20.442969530901824,-0.650475344576757,-31.028944009067384,2529267.0,,,,,2531.0680120185,2527.5330120185004,
170,45,21,f,1,4,162.0,10,3,low,3 - 7 + 5 + 1 + 9,11,13,11,12,2540.6895719000004,2542.7180204,2544.2332855000004,2549.251502900001,2549.775119,2549.7751246000007,2551.2920364,2552.3093212000003,w,11.0,0.5236160999993444,1,+1,785,-6.003689266342187,3.5070117114174972,8.09854478763448,2538894.0,-0.7737229598369844,-1.361494317927575,-3.5432815131214115,2542428.0,,,,,2544.2290120185003,2540.6950120185,
171,45,21,f,1,4,163.0,11,1,high,6 + 1 + 8 + 1 - 1,15,14,13,15,2553.825782,2555.851329500001,2557.3665508000013,2562.3846944,2562.8711318000005,2562.8711372,2564.3877835000003,2565.405095600001,e,15.0,0.4864374000007956,1,+10,795,-4.107988779564892,0.12509259727060407,0.6544878433133297,2552027.0,-9.457637633136674,0.28187665906806636,0.06868128089997594,2555561.0,,,,,2557.3620120185005,2553.8280120185004,
172,45,21,f,1,4,164.0,12,2,high,7 + 1 + 9 - 1 - 8,8,7,8,6,2566.9217162000004,2568.946966700001,2570.4621026000004,2575.4806453,2575.8790613,2575.8790664000007,2577.3956406,2578.4127938,w,8.0,0.3984159999999974,1,+10,805,8.403977041022715,1.7299414326382092,-0.060474744161312266,2565123.0,0.8419208908557576,0.14359276192378445,-0.09449954530977389,2568657.0,,,,,2570.4580120185005,2566.9240120185004,
173,45,21,f,1,4,165.0,13,2,high,4 + 9 - 7 + 1 - 1,6,8,5,6,2579.9298267000013,2581.9535300000007,2583.4687285,2588.488867100001,2589.255206400001,2589.2552117,2590.7717409,2591.7889696,e,6.0,0.7663393000002543,1,+10,815,-8.154056821775022,0.37523629166475647,-0.16359170791447308,2578130.0,-21.343064961559463,1.1556486996084825,0.9808700516876208,2581665.0,,,,,2583.4660120185004,2579.9310120185005,
174,45,21,f,1,4,166.0,14,3,low,5 + 6 - 4 - 1 + 7,13,14,13,15,2593.305498200001,2595.3323569000004,2596.8482365,2601.8687691,2602.4790574,2602.4790624,2603.9955937000013,2605.012397800001,w,13.0,0.6102883000003203,1,+1,816,2.8324909097049336,1.572225413340644,0.9984003933285361,2591508.0,-1.643593116609754,-1.3751696495598824,0.26105771124694277,2595045.0,,,,,2596.8460120185005,2593.3090120185,
175,45,21,f,1,4,167.0,15,3,high,7 - 6 + 8 + 1 + 7,17,17,16,15,2606.5291288000008,2608.553106200001,2610.0683766,2615.0869654,2617.6870175000004,2617.687023300001,2619.2045283000007,2620.222956200001,q,17.0,2.600052100000539,1,+10,826,-14.825253418952386,-0.23148369950384717,-0.044898718739992294,2604730.0,-8.983485285942875,-0.30481537305466766,-0.1969850237991997,2608263.0,,,,,2610.0640120185003,2606.5310120185004,
176,45,21,f,1,4,168.0,16,1,high,7 + 1 + 4 + 1 - 1,12,13,12,11,2621.7397798,2623.765341800001,2625.280751800001,2630.299089300001,2630.7590340000006,2630.7590389,2632.2755652,2633.292635100001,w,12.0,0.4599447000000509,1,+10,836,-9.734333035651321,-0.2480518763030899,0.9732430702235584,2619941.0,7.045618333553875,0.6365883363605951,-0.23045857505544376,2623475.0,,,,,2625.2760120185003,2621.7420120185,
177,45,21,f,1,4,169.0,17,4,low,6 + 9 - 7 + 8 - 5,11,12,13,11,2634.809375300001,2636.8367397,2638.3521005,2643.3708313000006,2644.5670608,2644.5670659000007,2646.0838257,2647.101179700001,w,13.0,1.19622949999939,0,+0,836,4.893420490279578,0.10830760018077346,0.1030439269514214,2633013.0,-19.963222441706854,0.2904977850195265,0.13358754400557737,2636547.0,,,,,2638.3480120185004,2634.8140120185003,
178,45,21,f,1,4,170.0,18,4,high,8 + 4 + 7 - 5 - 6,8,9,6,8,2648.6177002000004,2650.6431053,2652.1583010000013,2657.1783946,2657.7669841000006,2657.7669892000013,2659.283435000001,2660.30062,e,8.0,0.588589500001035,1,+10,846,0.24317585218739168,0.9724465591853444,0.15083038674436566,2646819.0,-10.948520177415482,0.12805780999748295,-0.23017761045338614,2650354.0,,,,,2652.1550120185,2648.6200120185003,
179,45,21,f,1,4,171.0,19,1,low,9 + 1 + 1 + 7 - 1,17,17,19,16,2661.8175287000013,2663.8448554000006,2665.3601512000005,2670.3784608000005,2671.287009,2671.2870144000008,2672.8033789,2673.8203798000013,q,17.0,0.9085481999991316,1,+1,847,9.955846273077665,0.31416544930353485,-0.1785665221822974,2660021.0,46.555131350293934,0.8193939408499551,0.32104499738590486,2663554.0,,,,,2665.3550120185005,2661.8220120185006,
180,45,21,f,1,4,172.0,20,4,low,4 + 8 + 9 - 3 + 7,25,25,24,26,2675.3372587000013,2677.363922800001,2678.8793322,2683.8993699,2684.4390342000006,2684.4390398,2685.9564954,2686.9733598000003,q,25.0,0.5396643000003678,1,+1,848,-37.97601663507904,7.000645340629419,9.167085485072521,2673540.0,9.761135937888666,0.31306147000594464,-4.347650818137756,2677075.0,,,,,2678.8760120185,2675.3410120185004,
181,45,21,f,1,4,173.0,21,1,low,3 + 1 + 8 - 1 + 1,12,12,10,13,2688.490150200001,2690.516885700001,2692.0322374000007,2697.051333700001,2697.703016200001,2697.7030214000006,2699.2198114000003,2700.2366991,q,12.0,0.6516824999998789,1,+1,849,3.1781061866236087,0.04332177379021207,0.1355189005559818,2686693.0,9.098976370772668,0.10927561732521962,0.02340734217273366,2690227.0,,,,,2692.0280120185002,2688.4940120185006,
182,45,21,f,1,4,174.0,22,3,low,9 - 5 - 1 - 6 + 8,5,4,7,5,2701.7535267000003,2703.7810625,2705.297009400001,2710.3152049,2711.0231102,2711.0231158000006,2712.5394822,2713.5564509,e,5.0,0.7079052999997657,1,+1,850,-30.692198538829864,0.14910885379025718,-0.0499196300246294,2699957.0,0.3652321221447581,-0.4142930563203526,0.9656589848056232,2703491.0,,,,,2705.2920120185004,2701.7580120185003,
183,45,21,f,1,4,175.0,23,3,high,2 - 4 + 9 + 7 + 1,15,13,16,15,2715.0732226,2717.0971845000004,2718.612448400001,2723.6310852999995,2724.4630006000007,2724.4630058,2725.9794347000006,2726.9969709,e,15.0,0.8319153000011283,1,+10,860,-14.443814495387528,-11.773466553003265,-2.311880025734279,2713273.0,86.84689934976558,0.8303741756140717,-18.040105419481574,2716807.0,,,,,2718.6080120185,2715.0740120185005,
184,45,21,f,1,4,176.0,24,4,high,6 + 9 + 7 - 3 - 5,14,12,13,14,2728.513595300001,2730.541097200001,2732.057018700001,2737.0758418000005,2737.647041100001,2737.647047100001,2739.1636106000005,2740.180981200001,e,14.0,0.571199300000444,1,+10,870,18.147939535477477,1.065234631117728,1.203430301399834,2726717.0,-4.981375853380957,-0.2947427715992008,0.011097403100007952,2730251.0,,,,,2732.0520120185006,2728.5180120185005,
185,45,21,f,1,4,177.0,25,2,high,7 + 8 + 1 + 9 + 1,26,26,24,25,2741.6983299000003,2743.7255353,2745.2414806,2750.2602611,2750.9110679000005,2750.9110731,2752.4274977000005,2753.4448488,q,26.0,0.6508068000002822,1,+10,880,8.126055978958401,-0.4883398713817497,0.32245655761674774,2739901.0,-2.1019569672308265,-0.4908536446673546,0.00583074881764567,2743436.0,,,,,2745.2370120185005,2741.7020120185,
186,45,21,f,1,4,178.0,26,1,low,6 + 9 + 1 + 1 - 1,16,16,14,15,2754.962130600001,2756.9895959000005,2758.5048969,2763.5236757,2764.207008200001,2764.2070138,2765.723134600001,2766.7400916999995,q,16.0,0.683332500000688,1,+1,881,49.19288146936806,-0.2460925416649875,-0.77110808906472,2753166.0,-15.251090955571089,0.14102003490550175,0.06946341371052789,2756699.0,,,,,2758.5000120185005,2754.9670120185006,
187,45,21,f,1,4,179.0,27,1,high,6 + 1 + 8 + 1 + 1,17,15,16,17,2768.256985400001,2770.2829704,2771.7985390000013,2776.817115900001,2777.455105500001,2777.4551111,2778.9720368,2779.9888852000004,e,17.0,0.6379895999998553,1,+10,891,27.482004200522177,0.5704554233288865,0.020190645980382005,2766459.0,-0.5201673132587707,-0.3510499093002495,0.06121590670917354,2769993.0,,,,,2771.7940120185003,2768.2600120185,
188,45,21,f,1,4,180.0,28,2,low,2 + 9 - 4 + 1 + 1,9,11,9,8,2781.5057318,2783.5328279000005,2785.047832800001,2790.0670714000007,2790.542904,2790.5429091000005,2792.0594395000007,2793.077220500001,w,9.0,0.4758325999991939,1,+1,892,18.56384873092157,-0.5709836389808909,-0.05425413340162333,2779709.0,4.784394772066779,0.10050147056823766,-0.056176151337465674,2783242.0,,,,,2785.0430120185006,2781.5100120185,
189,45,21,f,1,4,181.0,29,1,low,2 + 1 + 9 + 1 - 1,12,11,13,12,2794.5940537999995,2796.6211004,2798.1363831,2803.1549510000004,2803.9510706,2803.951076000001,2805.4676916000008,2806.4846020000005,e,12.0,0.7961195999996562,1,+1,893,3.821983481283933,-0.12512625956746826,-0.0961672292217397,2792796.0,-10.631473056001415,-0.26472187874917097,0.30514677793215106,2796330.0,,,,,2798.1310120185003,2794.5970120185,
190,45,21,f,1,4,182.0,30,1,low,7 + 1 + 6 + 1 + 1,16,18,17,16,2808.001452100001,2810.0252765000005,2811.5406107,2816.559159100001,2817.0710169000013,2817.071024300001,2818.587176500001,2819.6038142,e,16.0,0.5118578000001435,1,+1,894,-2.699440779852014,0.13354899940737486,0.029390639435512567,2806201.0,-26.45558015819419,-0.07870060771392451,-0.015079676390958197,2809735.0,,,,,2811.5360120185005,2808.0020120185004,
191,45,21,f,1,4,183.0,31,2,low,6 + 1 + 7 + 5 - 1,18,18,17,16,2821.1210998000006,2823.1491263000007,2824.6681315000005,2829.686621500001,2830.4710736,2830.471078800001,2831.9876458,2833.004642400001,q,18.0,0.7844520999988163,1,+1,895,3.7672563141992015,-0.25889937507373695,0.03299983417321939,2819325.0,-48.05116641966084,0.25528323339078485,0.13323943955598838,2822862.0,,,,,2824.6630120185005,2821.1260120185,
192,45,21,f,1,4,184.0,32,1,high,2 + 9 + 1 + 1 + 1,14,13,14,12,2834.521443900001,2836.5488518,2838.063688,2843.0816318,2843.6949244000007,2843.69493,2845.211512600001,2846.228883,w,14.0,0.613292600000932,1,+10,905,2.508659049908937,1.4601424770015523,0.5457736786761842,2832724.0,-31.415043790164084,0.059625555290379495,-0.2855331797620715,2836257.0,,,,,2838.0580120185004,2834.5250120185005,
193,45,21,f,1,4,185.0,33,4,low,5 + 9 - 4 + 7 + 6,23,23,25,24,2847.7458407000013,2849.7734294,2851.2892486,2856.308732200001,2857.2069868,2857.2069921,2858.7237035,2859.740903600001,q,23.0,0.8982545999988361,1,+1,906,3.4796050574584605,-0.5345607116969173,-0.10247197534856922,2845949.0,15.084236656380826,-0.07533118689150342,-0.5131134566101494,2849483.0,,,,,2851.2840120185006,2847.7500120185005,
194,45,21,f,1,4,186.0,34,2,high,9 + 4 - 6 + 1 - 1,7,8,7,9,2861.2574802,2863.2806203,2864.7961159000006,2869.8143884,2870.694951200001,2870.694956700001,2872.2114311000005,2873.228701,w,7.0,0.8805628000009165,1,+10,916,8.763298634030384,-0.20381629259349543,0.019778180267248757,2859456.0,-5.540385090284748,-0.022705796061802452,-0.7311241607176584,2862990.0,,,,,2864.7910120185,2861.2570120185005,
195,45,21,f,1,4,187.0,35,1,high,7 - 1 + 8 + 1 - 1,14,13,14,12,2874.745443,2876.772453200001,2878.2876782000003,2883.306432900001,2884.0069719000003,2884.006977500001,2885.5237067,2886.5410388,w,14.0,0.7005389999994804,1,+10,926,-12.165581394998831,-1.8033056346084182,-1.8074054530762713,2872948.0,15.99936114414157,0.14640529986992412,-0.15307063013513367,2876482.0,,,,,2878.2830120185004,2874.7490120185003,
196,45,21,f,1,4,188.0,36,4,low,3 + 8 - 4 + 9 + 7,23,22,23,24,2888.0575525000004,2890.0843102,2891.599383300001,2896.617744700001,2897.326910900001,2897.3269161000007,2898.8441222,2899.8610013,w,23.0,0.7091662000002543,1,+1,927,-9.149121998288596,0.2627740094171216,-0.12252521339571243,2886260.0,28.61331935025477,0.10840666519055286,-0.0430298711659618,2889793.0,,,,,2891.5940120185005,2888.0610120185006,
197,45,21,f,1,4,189.0,37,1,low,7 + 1 + 4 + 1 - 1,12,12,13,14,2901.3779527999995,2903.4053011,2904.9206242,2909.938743300001,2911.054899300001,2911.0549049,2912.5713872,2913.5880545,q,12.0,1.1161560000000463,1,+1,928,11.04081209909028,-0.6175889213642063,0.050916257705637236,2899580.0,-10.1672511824662,0.0003311167932236181,-0.025158242444956347,2903114.0,,,,,2904.9150120185004,2901.3810120185003,
198,45,21,f,1,5,190.0,0,4,high,7 + 8 - 4 + 6 - 5,12,13,11,12,2919.2986078000013,2921.3249531,2922.8401913,2927.8594844,2929.4388925000003,2929.4388977,2930.9553973,2931.9726096000013,q,13.0,1.5794081000003644,0,+0,928,-25.32665437931013,-0.21979243144062055,0.17217298967715422,2917500.0,4.127758619467819,0.8787877884578688,0.5765173211869745,2921034.0,,,,,2922.8350120185005,2919.3010120185004,
199,45,21,f,1,5,191.0,1,3,high,4 + 7 - 3 + 5 - 1,12,13,11,12,2933.4895586,2935.514485900001,2937.0295331,2942.048474500001,2942.7988793000004,2942.798884400001,2944.315351000001,2945.332751400001,e,12.0,0.7504047999991599,1,+10,938,-0.6572120046623766,-0.11500475398740573,-0.018569583250449773,2931689.0,-4.515354377246652,0.13195305322538475,0.006561802991641885,2935224.0,,,,,2937.0250120185005,2933.4900120185002,
