,id,age,sex,cued,block,trial,trialinblock,efflev,rewlev,calc,corAns,option1,option2,option3,tstart,ITI1Time,probTime,respTime,selectTime,ITI2Time,fbTime,ITI3Time,key_press,chosenAns,RT,acc,feedback,total_points,cuescr,cuecor,cuezyg,cuetime,probscr,probcor,probzyg,probtime,fbscr,fbcor,fbzyg,fbtime,probtime_c,cuetime_c,fbtime_c
0,46,24,m,0,Practice,,0,1,0,4 + 1 + 9 + 1 + 1,16,14,15,16,109.81813630007672,,109.81813840009272,115.02440710004883,136.11034840007778,136.1103548000101,137.62809140002355,138.65246880007908,e,16.0,21.08594130002893,1,Correct,0,,,,,3.455147937665803,-0.5335490771844613,-0.0944858457783393,107269.0,-25.991303362592873,-0.28075379369198217,0.09627502479227701,134896.0,110.00880063305331,,137.6358006330533
1,46,24,m,0,Practice,,1,1,0,3 + 1 + 1 + 8 - 1,12,10,11,12,140.1696898000082,,140.1696929000318,145.1920655000722,150.59005660004914,150.5900627000956,152.10708310001064,153.12559720000718,e,12.0,5.397991099976935,1,Correct,0,,,,,-4.466921565995545,0.6552048886982895,-0.09397178854171795,137436.0,17.384696945403547,-0.5013053660537645,-0.02367773952169383,149370.0,140.1758006330533,,152.1098006330533
2,46,24,m,0,Practice,,2,2,0,8 + 1 + 6 + 1 - 4,12,12,10,11,154.64351210009772,,154.64351820002776,159.66338090004865,167.19020960002672,167.19021540007088,168.7078631001059,169.72632690006867,q,12.0,7.526828699978068,1,Correct,0,,,,,12.800658734541049,-0.6386984066337633,-0.001793707772952624,151908.0,8.162668960627341,0.17570235195093975,0.012805250173081983,165971.0,154.6478006330533,,168.7108006330533
3,46,24,m,0,Practice,,3,2,0,9 + 4 - 6 + 1 - 1,7,7,5,6,171.24385280010756,,171.24386040004902,176.26389810000546,177.6300064000534,177.63001200009603,179.1462024000939,180.16337800002657,q,7.0,1.3661083000479266,1,Correct,0,,,,,-19.350849719028666,1.0044153096971846,-0.0452376824733316,168507.0,-26.261502890936576,-0.051665116521341314,0.032057374352330026,176408.0,171.2468006330533,,179.1478006330533
4,46,24,m,0,Practice,,4,3,0,9 + 3 - 5 + 6 + 7,20,22,20,21,181.6802516001044,,181.6802547000116,186.6993984000292,193.8700936000096,193.87009940005373,195.38695850002117,196.4212533000391,q,22.0,7.1706951999804005,0,Incorrect,0,,,,,13.353739823370566,1.3955735404663216,0.4377283042525937,178944.0,-29.262415619385372,-0.57309319689407,0.7991129083361501,192666.0,181.6838006330533,,195.4058006330533
5,46,24,m,0,Practice,,5,3,0,2 + 1 + 9 - 7 + 6,11,10,11,9,197.9381727,,197.9381758000236,202.9586522000609,208.0941034000134,208.0941100000637,209.6111199000152,210.62974980007857,w,11.0,5.135451199952513,1,Correct,0,,,,,-0.7421964691419367,1.7867053504005823,-2.0605248440199944,195203.0,-14.425415016542113,0.48273167081471113,-0.1896639362409207,206873.0,197.9428006330533,,209.6128006330533
6,46,24,m,0,Practice,,6,4,0,4 + 8 + 5 - 3 + 7,21,22,21,23,212.1469447000418,,212.14694770006463,217.1677755001001,221.3821207000874,221.38212700001893,222.89910830010197,223.91713680000976,w,21.0,4.214345199987292,1,Correct,0,,,,,40.18139117631464,0.29332550185193673,0.05394639771236509,209412.0,16.273070632593928,-0.6744668986274474,-1.0192118642057886,220161.0,212.1518006330533,,222.9008006330533
7,46,24,m,0,Practice,,7,4,0,5 + 8 - 4 + 6 + 9,24,24,22,23,225.43431190005504,,225.43431490007788,230.45381050009743,231.9900947000133,231.9901008000597,233.5067750000162,234.52488290006292,q,24.0,1.5362841999158263,1,Correct,0,,,,,24.21392369120556,0.9421343318004916,-0.87080171057071,222698.0,26.535908838055562,-0.5278069501508984,0.2414179154663605,230769.0,225.4378006330533,,233.5088006330533
8,46,24,m,1,0,0.0,0,3,low,4 + 7 - 3 + 5 - 1,12,11,12,13,392.715450800024,394.764302500058,396.27938600000925,401.3105080000824,406.3286971000489,406.3286996000679,407.8449037000537,408.8675718000159,,,,0,Too Slow!,0,-22.589005576852063,0.09817325132452925,-0.016485043919550968,390008.0,2.3656818379970965,0.19285185589214748,0.0941798971809833,393554.0,8.336251967494237,0.43163147922030065,1.0566263835555731,405111.0,396.29380063305325,392.74780063305326,407.85080063305327
9,46,24,m,1,0,1.0,1,3,high,5 - 1 - 4 + 6 + 7,13,14,13,15,410.3844996000407,412.42523680010345,413.940522900084,418.9590081000933,419.7874237000942,419.78742880001664,421.3046481000492,422.3226379000116,w,13.0,0.8284156000008807,1,+10,10,4.855471075538509,0.12864401053664087,-0.28870583576858344,407669.0,-2.6584732642600635,1.222308764295097,0.5009152329985889,411203.0,0.8219230089086373,-0.01646427143295881,-7.89742084198328,467475.0,413.94280063305325,410.40880063305326,470.2148006330533
10,46,24,m,1,0,2.0,2,1,low,6 + 1 + 8 + 1 - 1,15,15,13,14,423.8402332999976,425.8663369000424,427.3813129001064,432.4003331999993,433.53939800010994,433.5394032000331,435.056244000094,436.07308960007504,q,15.0,1.1390648001106456,1,+1,11,4.123243050495708,0.08656594067209467,0.0029743268930797484,421110.0,8.420178285023251,0.5831848985276711,-0.27335295897158574,424644.0,,,,,427.3838006330533,423.8498006330533,
11,46,24,m,1,0,3.0,3,2,high,6 + 8 + 1 + 1 - 7,9,9,11,8,437.5897283001104,439.6436396000208,441.158942900016,446.1775708000641,451.043266300112,451.0432724000421,452.5599802000215,453.5777267001104,q,9.0,4.865695500047877,1,+10,21,18.35303448905854,0.040099244539903545,0.5606428072152916,434888.0,-8.766603895908045,0.19196593887591007,-0.5920475400249594,438422.0,,,,,441.1618006330533,437.62780063305325,
12,46,24,m,1,0,4.0,4,4,low,6 + 9 + 7 - 3 - 5,14,14,13,15,455.0944483000785,457.1445819000946,458.6598319000332,463.6785584000172,468.69597960007377,468.6959822000936,470.21255880000535,471.2314097000053,,,,0,Too Slow!,21,8.770501570935398,-0.29403779084914117,-0.5500694733503311,452388.0,-14.458130673272475,1.797697609238318,-1.175268492547609,455922.0,,,,,458.6618006330533,455.12780063305325,
13,46,24,m,1,0,5.0,5,3,low,7 - 1 + 8 - 6 + 4,12,11,13,12,472.7481271000579,474.7758467000676,476.291185600101,481.31009060004726,482.24320420005824,482.2432094000978,483.7596355000278,484.7764239000389,e,12.0,0.9331136000109836,1,+1,22,14.449155640258846,0.8973789076463774,-1.8048239507299275,470020.0,11.583909514025175,0.00995936865847824,-0.07951991316701967,473554.0,,,,,476.29380063305325,472.75980063305326,
14,46,24,m,1,0,6.0,6,4,high,4 + 8 + 9 - 3 + 7,25,26,24,25,486.29330960009247,488.3318123000208,489.8473930000328,494.8676237000618,497.8351307000266,497.8351357000647,499.3517533000559,500.369089600048,e,25.0,2.967506999964826,1,+10,32,-27.183835985696398,0.4344332568340752,0.04825522633682322,483576.0,-31.751817807260174,0.74305840962622,-0.031504314303262504,487111.0,,,,,489.85080063305327,486.3158006330533,
15,46,24,m,1,0,7.0,7,2,low,9 + 6 + 1 + 7 + 1,24,25,23,24,501.8860346000874,503.92116160003934,505.436583600007,510.45483970001806,511.2190951000666,511.219100000104,512.735708000022,513.7528467000229,e,24.0,0.7642554000485688,1,+1,33,2.256902349481275,-0.22538516137161757,-0.21055820484959753,499165.0,-30.338279345212868,0.42409739581731376,-0.050107526107914246,502699.0,,,,,505.4388006330533,501.9048006330533,
16,46,24,m,1,0,8.0,8,1,high,8 + 1 + 1 + 1 - 3,8,6,9,8,515.2696197000332,517.3434110000962,518.8586710001109,523.87635590008,524.6270722000627,524.6270778001053,526.1437057000585,527.1618146999972,e,8.0,0.7507162999827415,1,+10,43,13.713737377866087,0.5909104652191499,0.18889978627136905,512587.0,16.818655033564845,-0.647022825197265,0.24498492786199222,516121.0,,,,,518.8608006330533,515.3268006330533,
17,46,24,m,1,0,9.0,9,4,low,4 + 7 + 8 - 3 + 9,25,26,24,25,528.6786571000703,530.7041267000604,532.2191840000451,537.2378785000183,537.8351350000594,537.8351401000982,539.3519886001013,540.3690588000463,e,25.0,0.5972565000411123,1,+1,44,14.875631889842992,-0.23190441517547633,-0.6960308913067426,525948.0,28.60480697223967,-0.20410176779612144,0.041864650008133886,529481.0,,,,,532.2208006330533,528.6878006330533,
18,46,24,m,1,0,10.0,10,1,high,6 + 1 + 1 + 9 - 1,16,15,16,14,541.8858475000598,543.9137984000845,545.4288002001122,550.4468236000976,551.2590657999972,551.2590711000375,552.7755154001061,553.7918847000692,w,16.0,0.8122421998996288,1,+10,54,7.554934262223452,0.2957783893364261,0.043680980223378185,539157.0,-6.273597782223517,0.7497589957857818,-0.14930404944037257,542691.0,,,,,545.4308006330533,541.8968006330533,
19,46,24,m,1,0,11.0,11,2,low,4 + 8 + 1 + 1 - 6,8,8,9,7,555.3086337000132,557.3354174999986,558.8506763000041,563.8693450000137,564.8591057000449,564.8591109000845,566.375781300012,567.392764300108,q,8.0,0.9897607000311835,1,+1,55,34.32743207197128,-0.6376795354665896,0.0785384521723902,552579.0,2.6713918789067996,0.39902815102526423,-0.026908802912555707,556113.0,,,,,558.8528006330533,555.3188006330532,
20,46,24,m,1,0,12.0,12,3,high,8 + 3 + 1 - 7 + 9,14,15,12,14,568.9094202000415,570.9373880000785,572.4526341001038,577.4709094000282,580.2269757000031,580.2269805000396,581.7435446000891,582.7617338000564,e,14.0,2.7560662999749184,1,+10,65,-36.588889028411835,0.21416645824798053,-0.02714235332614834,566181.0,-18.580594847512454,-0.07060595405590142,0.01296249611788447,569715.0,,,,,572.4548006330533,568.9208006330533,
21,46,24,m,1,0,13.0,13,1,low,3 + 1 + 1 + 8 - 1,12,12,13,14,584.2786513000028,586.3044474000344,587.8197714000707,592.8380126000848,593.4990732000442,593.4990782000823,595.0156412000069,596.0326542000985,q,12.0,0.6610605999594554,1,+1,66,-21.195416552133036,0.21967536528907416,0.22958460580065854,581548.0,-3.6834648214309667,-0.038264424348301684,-0.13449288848018082,585082.0,,,,,587.8218006330533,584.2878006330533,
22,46,24,m,1,0,14.0,14,3,high,3 + 8 - 7 + 1 + 9,14,14,13,12,597.5494614000199,599.5754794001114,601.0905317000579,606.1090909000486,607.6431092000566,607.6431142000947,609.1597037001047,610.1770523000741,q,14.0,1.5340183000080287,1,+10,76,3.5507999236539014,0.5036073333828961,-0.09890656124418218,594819.0,-6.968396897196495,0.3893908162635258,0.19887974147289889,598353.0,,,,,601.0928006330532,597.5588006330532,
23,46,24,m,1,0,15.0,15,1,high,7 + 1 + 6 + 1 + 1,16,17,18,16,611.6944951000623,613.7204293000977,615.2357892000582,620.2539942000294,620.963000100106,620.9630056000315,622.4792682999978,623.4966235000174,e,16.0,0.7090059000765905,1,+10,86,-7.5939596521755135,-0.018373624749053796,-0.09767910346020425,608964.0,11.151951271302934,0.25827701942196946,-0.19175953693410364,612497.0,,,,,615.2368006330532,611.7038006330533,
24,46,24,m,1,0,16.0,16,3,high,8 + 4 + 1 - 7 + 9,15,15,16,13,625.0136431000428,627.0383142000064,628.5535887000151,633.5714269001037,634.2509503000183,634.2509585000807,635.7676951000467,636.7850760000292,q,15.0,0.6795233999146149,1,+10,96,23.092920720470264,0.41677440896234064,-0.15173373487255848,622282.0,-25.459409630642412,0.5718566129592224,-0.2057934240584034,625816.0,,,,,628.5558006330533,625.0218006330533,
25,46,24,m,1,0,17.0,17,1,high,2 + 1 + 9 + 1 + 1,14,13,12,14,638.3020112001104,640.3289593000663,641.8439627001062,646.861874800059,647.3869459000416,647.386951200082,648.9036756000714,649.9209109001094,e,14.0,0.5250710999825969,1,+10,106,13.332278780309279,0.047789533227291514,0.17968200788050925,635572.0,-0.5300841112738945,0.5116952690907866,-0.027470396247686324,639105.0,,,,,641.8448006330533,638.3118006330533,
26,46,24,m,1,0,18.0,18,2,high,6 + 1 + 8 + 5 - 1,19,17,19,18,651.4376210001064,653.465317800059,654.9807730000466,659.9989541000687,660.6509568000911,660.6509622000158,662.1674704001052,663.1846513000783,w,19.0,0.6520027000224218,1,+10,116,-25.407746259253027,0.4749932783151123,0.14098036466569575,648709.0,19.843292062068553,0.7045637540702909,0.1651934225759808,652242.0,,,,,654.9818006330532,651.4488006330532,
27,46,24,m,1,0,19.0,19,3,low,3 + 1 + 8 - 5 + 6,13,15,13,14,664.7018827000866,666.7290085999994,668.2440914000617,673.2635969000403,674.0429257000796,674.0429311000044,675.559750800021,676.5767680000281,w,13.0,0.7793288000393659,1,+1,117,4.331155572453992,0.010208482296514276,-0.06618381173650079,661972.0,6.479065484004234,0.701612619269484,-0.059361295962029104,665507.0,,,,,668.2468006330532,664.7118006330533,
28,46,24,m,1,0,20.0,20,4,low,9 + 8 - 5 - 7 + 6,11,11,13,10,678.0933660001028,680.1190191000933,681.6344038000097,686.652885000105,688.3468712000176,688.3468767000595,689.8636565000052,690.8806156000355,w,13.0,1.6939861999126151,0,+0,117,7.837095822016222,1.336006850203474,-0.30628620041606425,675363.0,3.773314901009659,-0.12770385894213288,0.053677278737930045,678896.0,,,,,681.6358006330532,678.1028006330533,
29,46,24,m,1,0,21.0,21,1,high,9 + 8 + 1 + 1 - 1,18,18,20,17,692.397437900072,694.423308400088,695.9388104000827,700.9582203000318,701.7387354000239,701.7387404000619,703.2550527000567,704.2723071000073,q,18.0,0.7805150999920443,1,+10,127,15.25953023766177,-0.11772090371531263,0.14579195865233174,689667.0,16.076464802742056,0.4719159976342011,-0.11726538966911093,693201.0,,,,,695.9408006330533,692.4068006330533,
30,46,24,m,1,0,22.0,22,3,low,4 + 8 - 9 + 1 + 7,11,9,13,11,705.7890962000238,707.8128679000074,709.3281452000374,714.346672100015,717.0107755000936,717.0107808000175,718.5276536000893,719.5445443000644,e,11.0,2.664103400078602,1,+1,128,-19.079025112812666,0.4697453187017584,0.1968553929476906,703056.0,7.044996797144361,0.20383509065964134,0.03944750408428366,706590.0,,,,,709.3298006330533,705.7958006330533,
31,46,24,m,1,0,23.0,23,2,high,6 + 1 + 7 - 8 - 1,5,4,7,5,721.0612406000728,723.0879841001006,724.6032462000148,729.6219391000923,730.7467502000509,730.7467555000912,732.2633981000399,733.2808314000722,e,5.0,1.124811099958606,1,+10,138,9.710804959939777,0.634417352707084,0.12164799236774826,718331.0,-1.1434255492971754,0.7608113847907529,-0.18510781415620947,721865.0,,,,,724.6048006330533,721.0708006330533,
32,46,24,m,1,0,24.0,24,3,low,3 + 1 + 8 - 5 + 9,16,16,17,15,734.7984815000091,736.8254755000817,738.3408096000785,743.3599017000524,746.2907948000357,746.2908006000798,747.807556200074,748.8253979000729,e,15.0,2.930893099983223,0,+0,138,27.870983547097318,0.19972046941113808,-0.1940641548759965,732068.0,10.839415270650637,0.9975687996037608,0.01415372674066262,735602.0,,,,,738.3418006330533,734.8078006330533,
33,46,24,m,1,0,25.0,25,2,low,2 + 1 + 9 - 4 + 1,9,9,8,11,750.3423469000263,752.3701104000211,753.8850984000601,758.9035812000511,761.4987119000871,761.498716800008,763.0151743000606,764.0321369000012,q,9.0,2.595130700035952,1,+1,139,22.014845642447284,-0.20035550554668768,0.11912597689012472,747613.0,-10.318405452360627,0.6108644261141563,-0.1286038563571381,751147.0,,,,,753.8868006330533,750.3528006330533,
34,46,24,m,1,0,26.0,26,3,high,4 + 8 - 3 + 5 - 1,13,12,14,13,765.5488523000386,767.5749184000306,769.0903444000287,774.1087562000612,776.6907208000775,776.6907261000015,778.2071042000316,779.2248454000801,e,13.0,2.581964600016363,1,+10,149,-7.312830564909089,0.17195422455758758,-0.1750908851265418,762818.0,20.991975919872196,0.05511052378208614,-0.0045821078756205225,766352.0,,,,,769.0918006330533,765.5578006330533,
35,46,24,m,1,0,27.0,27,3,high,2 + 9 + 1 - 5 + 7,14,12,14,15,780.7418050999986,782.7666880000615,784.282091000001,789.3001226000488,789.9545880000805,789.9545926999999,791.4712356000673,792.4884823000757,w,14.0,0.6544654000317678,1,+10,159,-15.397335865233863,0.4225960932555006,-0.15787694458313872,778010.0,10.595766557106497,0.4053722553957888,0.03320181443310499,781544.0,,,,,784.2838006330533,780.7498006330533,
36,46,24,m,1,0,28.0,28,3,high,5 + 1 + 7 - 8 + 6,11,9,11,13,794.0051811001031,796.0318165000062,797.5471720000496,802.565472300048,803.1545711000217,803.1545759000583,804.6707229000749,805.6881163000362,w,11.0,0.5890987999737263,1,+10,169,-31.576321544337507,0.03644333896311869,-0.30107160523761234,791275.0,-43.05413891438339,0.3454661869144817,-0.18499734897775433,794809.0,,,,,797.5488006330532,794.0148006330533,
37,46,24,m,1,0,29.0,29,3,high,6 - 1 + 7 - 8 + 9,13,12,13,11,807.2046556000132,809.2304939000169,810.7460342000704,815.764646399999,817.4586641000351,817.4586695000762,818.9751065000892,819.9924001001054,w,13.0,1.6940177000360563,1,+10,179,6.554464729710402,0.24334971253963467,0.10677789137915195,804473.0,2.9417916042550742,0.6143817819951285,-0.09618754946055308,808008.0,,,,,810.7478006330533,807.2128006330532,
38,46,24,m,1,0,30.0,30,4,low,3 + 9 - 5 + 6 + 8,21,21,22,23,821.5090152000776,823.5356658000965,825.0513646000763,830.069133900106,833.1065215000417,833.106526400079,834.6228021000279,835.63945040002,e,23.0,3.037387599935755,0,+0,179,4.288546971268335,-0.13624865502238226,0.04994264219754729,818778.0,-23.053492171760183,0.402394621426168,-0.15311223731476975,822312.0,,,,,825.0518006330533,821.5178006330533,
39,46,24,m,1,0,31.0,31,2,high,8 + 1 + 9 + 1 - 5,14,13,15,14,837.1564287000801,839.1833641000558,840.6991874000523,845.7172352001071,846.2985004000366,846.2985055000754,847.8143411000492,848.8315534000285,e,14.0,0.5812651999294758,1,+10,189,25.334538877149683,0.5287106039037242,-0.0040377623663365725,834426.0,-3.554051011351511,0.3475471218118451,0.5551150870223864,837960.0,,,,,840.6998006330533,837.1658006330533,
40,46,24,m,1,0,32.0,32,1,high,2 + 9 + 1 + 1 + 1,14,13,12,14,850.3485127000604,852.3905949000036,853.9058718000306,858.9239847999997,859.5625743001001,859.5625795000233,861.0790823000716,862.0964117000112,e,14.0,0.6385895001003519,1,+10,199,-14.09311735559352,0.29420464657541734,-0.1215005559178639,847633.0,-5.67323712071582,0.6321675884064435,-0.11334640455680933,851167.0,,,,,853.9068006330533,850.3728006330533,
41,46,24,m,1,0,33.0,33,3,low,9 + 3 - 4 + 6 + 7,21,22,23,21,863.6131283000577,865.6371551000047,867.1524639000418,872.1724890000187,875.186531900079,875.1865373000037,876.7032575000776,877.72080130002,w,23.0,3.0140429000603035,0,+0,199,-47.55500298231753,0.5304738914121598,0.16914341205136907,860880.0,-32.460492049812174,0.042204855352865334,0.056845466434222836,864415.0,,,,,867.1548006330532,863.6198006330533,
42,46,24,m,1,0,34.0,34,4,low,8 + 7 - 4 + 5 + 9,25,25,24,26,879.237865800038,881.2639209000627,882.7792307001073,887.7976908000419,888.5064882000443,888.5064933000831,890.0234503000975,891.0405731000938,q,25.0,0.7087974000023678,1,+1,200,7.07578596596781,0.2191109350656184,0.23793476478794773,876507.0,-76.65963978847448,0.6631595911831836,0.1327569676422513,880041.0,,,,,882.7808006330533,879.2468006330532,
43,46,24,m,1,0,35.0,35,1,low,7 + 1 + 4 + 1 - 1,12,13,11,12,892.5574187000748,894.5840981000802,896.0995364000555,901.1187868000708,901.802424499998,901.802429900039,903.3187191000908,904.3354830000316,e,12.0,0.6836376999272034,1,+1,201,23.137133504193265,0.3680218453901243,0.02232220868385415,889827.0,-4.698472911088926,0.2280098315994219,0.09352507291003853,893361.0,,,,,896.1008006330533,892.5668006330533,
44,46,24,m,1,0,36.0,36,3,high,6 - 1 + 7 - 8 + 9,13,11,12,13,905.8522577000548,907.8771553999976,909.3924867000896,914.4126418000088,915.026462100097,915.0264674000208,916.543153500068,917.5608200000132,e,13.0,0.613820300088264,1,+10,211,19.41933777512342,0.4254373833116305,-0.03942617963930406,903120.0,-9.318856508946396,0.5005478722049781,0.10258744879084425,906655.0,,,,,909.3948006330533,905.8598006330533,
45,46,24,m,1,0,37.0,37,4,high,5 + 9 - 4 + 7 + 6,23,24,23,25,919.0778720000526,921.1028202000308,922.6183648000006,927.6370558000636,928.514380800072,928.5143863999984,930.0300629000412,931.0474770000436,w,23.0,0.8773250000085682,1,+10,221,-2.7214321952380343,0.10235791837165076,0.23116068477979645,916345.0,-53.000709946320626,-0.1869064057231311,0.42227356997033016,919880.0,,,,,922.6198006330533,919.0848006330533,
46,46,24,m,1,1,38.0,0,2,high,6 + 1 + 1 + 8 - 9,7,7,5,9,985.366800100077,987.394130700035,988.9091497000773,993.928388500004,997.0022679000394,997.0022734000812,998.5186668001116,999.5369717000284,w,5.0,3.0738794000353664,0,+0,221,6.0397877473475905,0.8071031510467961,-0.3192346143289613,982637.0,0.8284364217666669,0.10460833742415332,0.10429978014166297,986171.0,,,,,988.9108006330533,985.3768006330532,
47,46,24,m,1,1,39.0,1,1,low,8 + 1 + 1 - 1 - 4,5,3,6,5,1001.0539314000634,1003.0817847000436,1004.597016200074,1009.617014000076,1010.3142504000572,1010.3142593000084,1011.8314186000498,1012.848122800002,e,5.0,0.6972363999811932,1,+1,222,-4.771445528508463,1.3286992302950869,0.5125397012098607,998324.0,-6.9207225022601495,0.3929912644417666,-0.30956123382813727,1001859.0,,,,,1004.5988006330533,1001.0638006330532,
48,46,24,m,1,1,40.0,2,3,low,5 + 6 - 4 - 1 + 8,14,16,14,15,1014.3649595000315,1016.3935353000415,1017.9085084000836,1022.9269149000756,1023.4981694000307,1023.4981742000672,1025.0150530000683,1026.0320696000708,w,14.0,0.5712544999551028,1,+1,223,0.4292339190733898,0.11986190756570458,0.16027797204596395,1011636.0,-9.011185745568891,0.9942911012000972,-0.0059141750816196215,1015169.0,,,,,1017.9088006330533,1014.3758006330532,
49,46,24,m,1,1,41.0,3,2,high,6 + 1 + 1 + 7 - 9,6,8,6,4,1027.5490157000022,1029.57491570001,1031.090252300026,1036.1088852999965,1036.770195200108,1036.7701999000274,1038.286699600052,1039.3038065000435,w,6.0,0.6613099001115188,1,+10,233,9.245012213973515,0.21104872459496082,-0.06332762153077454,1024817.0,-35.83328864547458,0.3724073738665461,0.14921857328604293,1028351.0,,,,,1031.0908006330535,1027.5568006330534,
50,46,24,m,1,1,42.0,4,4,low,4 + 7 + 8 - 3 + 9,25,25,24,26,1040.8206282000756,1042.845273300074,1044.3602341000224,1049.378422100097,1050.0421653001104,1050.0421702000313,1051.5586782000028,1052.575610000058,q,25.0,0.663743200013414,1,+1,234,1.0790242609227043,-0.426934377998363,0.09973393169958022,1038088.0,-10.80737972834078,-0.25865511673648145,0.02711782148480557,1041621.0,,,,,1044.3608006330535,1040.8278006330534,
51,46,24,m,1,1,43.0,5,3,high,8 + 5 + 1 - 7 + 9,16,14,16,17,1054.092611500062,1056.1173284000251,1057.63272210001,1062.6512456000785,1063.2501818001035,1063.250187000027,1064.7664757000748,1065.7838030999992,w,16.0,0.5989362000254914,1,+10,244,8.740790052997758,-0.4919335818263826,0.16507136382501697,1051360.0,-16.445944075192195,-0.6155712262532478,0.4087803440659914,1054893.0,,,,,1057.6328006330534,1054.0998006330533,
52,46,24,m,1,1,44.0,6,2,low,3 + 1 + 8 - 5 - 1,6,7,6,5,1067.299909900059,1069.3275040000444,1070.8427871000022,1075.862169600092,1076.514112200006,1076.5141174000455,1078.030655700015,1079.0485109,w,6.0,0.6519425999140367,1,+1,245,15.84929829630345,-0.2140449562755995,0.10749007503873553,1064570.0,-1.1506340394356442,0.7507160417558754,0.08927105123059187,1068104.0,,,,,1070.8438006330534,1067.3098006330533,
53,46,24,m,1,1,45.0,7,2,low,3 + 9 - 1 - 5 + 1,7,5,7,6,1080.5653540000783,1082.589147100109,1084.1048260000534,1089.123058600002,1089.6821348000085,1089.682140000048,1091.198719100095,1092.2153481000569,w,7.0,0.5590762000065297,1,+1,246,-20.09095868709867,0.2224219490836612,-0.10267442569116225,1077831.0,-17.695861331881602,0.11643125515798491,0.20644742550315165,1081365.0,,,,,1084.1048006330534,1080.5708006330533,
54,46,24,m,1,1,46.0,8,2,high,7 + 6 + 1 + 8 + 1,23,23,21,22,1093.732153100078,1095.7553719000423,1097.2702966000652,1102.2895257000346,1103.6661587000126,1103.6661643000552,1105.1827934000175,1106.2000862000275,q,23.0,1.3766329999780282,1,+10,256,-8.16702892847778,-0.06236731364303916,0.09131925158302368,1090998.0,16.34730731557089,0.5582962729948582,-0.18029502630567817,1094532.0,,,,,1097.2718006330533,1093.7378006330534,
55,46,24,m,1,1,47.0,9,3,low,2 + 1 + 9 - 7 + 6,11,11,12,13,1107.7166813000804,1109.744206300005,1111.2594434000785,1116.2774967000587,1116.8500786001096,1116.850084100035,1118.3662622000556,1119.383166900021,q,11.0,0.5725819000508636,1,+1,257,14.291144327558992,0.08580089935523327,0.054145933389684764,1104986.0,-8.485276371765611,0.2689205753085311,-0.08744635707896364,1108520.0,,,,,1111.2598006330534,1107.7258006330535,
56,46,24,m,1,1,48.0,10,3,low,7 - 1 + 9 - 5 + 4,14,14,13,15,1120.9000402000966,1122.924126900034,1124.4393640001072,1129.4577737000072,1130.3380762001034,1130.3380814000266,1131.8543904001126,1132.8710797000676,q,14.0,0.8803025000961497,1,+1,258,7.876452568665197,0.08797143524874773,0.09826857776871645,1118166.0,3.7832109221771697,0.25387010052320313,0.13662469404009103,1121700.0,,,,,1124.4398006330534,1120.9058006330533,
57,46,24,m,1,1,49.0,11,3,low,6 - 1 + 7 - 8 + 9,13,13,12,11,1134.387957100058,1136.4103178000078,1137.9252965000924,1142.9440412000986,1144.1460754000582,1144.1460812001023,1145.662545600091,1146.6793387000216,q,13.0,1.2020341999595985,1,+1,259,-31.12134469948721,-0.11434001121734028,0.11311094060693527,1131652.0,1.2519247986185829,0.30543330783342304,0.011868814649868664,1135186.0,,,,,1137.9258006330533,1134.3918006330534,
58,46,24,m,1,1,50.0,12,1,low,4 + 9 + 1 - 1 - 1,12,12,11,13,1148.1962946000276,1150.2243652000325,1151.7396418000571,1156.7578151000198,1159.1139881000854,1159.1139929000055,1160.6310109000187,1161.6478932000464,q,12.0,2.35617300006561,1,+1,260,-6.802599860403189,-0.005998789498916857,0.1039815179691943,1145466.0,-19.763992651021745,0.5714879584922432,-0.04056670105932936,1149000.0,,,,,1151.7398006330534,1148.2058006330533,
59,46,24,m,1,1,51.0,13,1,high,3 + 1 + 9 + 1 + 1,15,14,17,15,1163.1645768000744,1165.1917317000916,1166.7070264000213,1171.7247755000135,1172.4418788000476,1172.441884200089,1173.9585783000805,1174.9757735000458,e,15.0,0.7171033000340685,1,+10,270,21.409382520993432,-0.498531052542432,0.27646253894857065,1160434.0,-7.688482029303151,-0.15573158898272244,0.2347522201394212,1163967.0,,,,,1166.7068006330535,1163.1738006330534,
60,46,24,m,1,1,52.0,14,1,low,3 + 1 + 1 + 9 - 1,13,12,13,14,1176.4921880000038,1178.5173055001069,1180.0325892000692,1185.0505642000353,1185.4898575000698,1185.489862400107,1187.0064359001117,1188.0232596000424,w,13.0,0.4392933000344783,1,+1,271,-14.03309262686818,0.6424972839671064,-0.03851305636582536,1173759.0,6.363097341042268,0.41709359849670014,0.11541822450773509,1177293.0,,,,,1180.0328006330533,1176.4988006330534,
61,46,24,m,1,1,53.0,15,2,low,5 - 8 + 7 + 1 + 1,6,6,7,8,1189.5400381000943,1191.5677686000708,1193.0830092000542,1198.1014710000018,1198.7458945000544,1198.745899300091,1200.2624098000815,1201.2794280000962,q,6.0,0.6444235000526533,1,+1,272,-14.558352143006104,0.8866157875991867,-0.07410363246979834,1186810.0,21.73884917471732,-0.05174733572135626,0.0028655257571696957,1190343.0,,,,,1193.0828006330535,1189.5498006330533,
62,46,24,m,1,1,54.0,16,3,high,4 + 5 - 3 + 7 - 1,12,12,13,11,1202.7960491999984,1204.824289400014,1206.3394530001096,1211.3581762000686,1211.953910100041,1211.9539153000806,1213.4708718000911,1214.4882396000903,q,12.0,0.5957338999724016,1,+10,282,-30.880565415111896,0.3563902844568698,-0.04382494084923705,1200066.0,11.865051541413507,-0.237205256028159,-0.8971464245485619,1203600.0,,,,,1206.3398006330533,1202.8058006330534,
63,46,24,m,1,1,55.0,17,1,low,8 + 1 + 4 + 1 + 1,15,15,16,14,1216.0050054000458,1218.0324941000436,1219.5480508001056,1224.5667146000778,1225.1298493000213,1225.1298543000594,1226.6465472000418,1227.6632723000366,q,15.0,0.5631346999434754,1,+1,283,-5.276306417465719,0.5955830462500238,0.11986791043873346,1213274.0,11.26044837945214,0.27211264578025895,-0.09613555256397577,1216809.0,,,,,1219.5488006330534,1216.0138006330533,
64,46,24,m,1,1,56.0,18,1,high,2 + 1 + 1 + 9 - 1,12,13,12,11,1229.1802800000878,1231.2136729001068,1232.7292151000584,1237.747793000075,1238.2338220000966,1238.233827100019,1239.750287800096,1240.767636600067,w,12.0,0.4860290000215173,1,+10,293,-8.964958813767657,0.03135490952790487,0.11070608980407215,1226455.0,-26.27443168580376,-0.3864750496635594,0.003422211811672682,1229989.0,,,,,1232.7288006330534,1229.1948006330533,
65,46,24,m,1,1,57.0,19,2,high,9 + 6 + 1 + 7 + 1,24,24,25,23,1242.2847148000728,1244.3111292000394,1245.826370100025,1250.8458265000954,1251.6259321001123,1251.6259373000355,1253.1425243000267,1254.1597447000677,q,24.0,0.7801056000171229,1,+10,303,-19.95204525839976,1.2833933859986755,2.242878049700762,1239553.0,-7.1506977634710545,-1.47322029577363,-1.0148154838049939,1243088.0,,,,,1245.8278006330534,1242.2928006330535,
66,46,24,m,1,1,58.0,20,2,high,7 + 6 + 1 - 1 - 8,5,5,4,3,1255.67662630009,1257.70177480008,1259.2171308000106,1264.2356216000626,1264.8018023000332,1264.8018079000758,1266.3188169000205,1267.3358342000283,q,5.0,0.5661806999705732,1,+10,313,6.845326754438165,0.8705044619013464,0.11047552309528363,1252943.0,5.358851194145576,0.018330747600147745,-0.08561558138860903,1256477.0,,,,,1259.2168006330535,1255.6828006330534,
67,46,24,m,1,1,59.0,21,2,low,9 + 5 - 6 + 1 - 1,8,9,7,8,1268.8524270000637,1270.880157800042,1272.395254400093,1277.413580600056,1278.3778249000898,1278.3778303000145,1279.894196200068,1280.9114317001076,q,9.0,0.9642443000338972,0,+0,313,18.904417355649667,0.321587079178284,-0.14211230855342327,1266122.0,-12.96809794547018,0.3212909872728176,0.009652124961380792,1269655.0,,,,,1272.3948006330534,1268.8618006330535,
68,46,24,m,1,1,60.0,22,3,low,9 - 5 - 1 - 6 + 8,5,4,5,7,1282.4282048000025,1284.4550550000276,1285.9703198000789,1290.9886115000118,1292.6736674000276,1292.6736729000695,1294.190356700099,1295.2073278001044,w,5.0,1.6850559000158682,1,+1,314,12.1547537007471,0.24181142409619394,0.037938373532423686,1279696.0,1.4537796432619103,0.9570623759435026,0.12246650524587244,1283230.0,,,,,1285.9698006330534,1282.4358006330533,
69,46,24,m,1,1,61.0,23,4,high,4 + 7 + 9 - 5 + 7,22,23,22,24,1296.724204300088,1298.749105600058,1300.264372900012,1305.282929200097,1307.0177085000323,1307.0177134000696,1308.5344755999977,1309.5515590000432,w,22.0,1.734779299935326,1,+10,324,16.108261581439585,0.11653939228999022,-0.22282013014196167,1293990.0,15.510856138172048,-0.9974485414957295,0.3643741244796086,1297524.0,,,,,1300.2638006330533,1296.7298006330534,
70,46,24,m,1,1,62.0,24,3,low,4 + 7 + 1 + 9 - 5,16,16,18,17,1311.06832890003,1313.0964256000009,1314.611657300033,1319.629738500109,1320.729770300095,1320.7297763000242,1322.246550800046,1323.2635419000871,q,16.0,1.1000317999860272,1,+1,325,-26.679844657459892,-0.14703190742582617,-0.04202542085079797,1308337.0,-15.26829662733866,0.000743021360860574,0.15883325709988094,1311872.0,,,,,1314.6118006330535,1311.0768006330534,
71,46,24,m,1,1,63.0,25,1,high,9 + 1 + 1 + 7 - 1,17,17,16,19,1324.7803247000556,1326.807273000013,1328.322627300047,1333.340983400005,1333.8497569001047,1333.8497624000302,1335.367183500086,1336.3844168001087,q,17.0,0.5087735000997782,1,+10,335,10.090441580493941,-0.0672959795323762,-0.02558427740729119,1322049.0,6.176223819435981,-0.34780218941487284,0.04754661561086193,1325583.0,,,,,1328.3228006330535,1324.7888006330534,
72,46,24,m,1,1,64.0,26,1,low,4 + 1 + 1 + 7 - 1,12,13,14,12,1337.901251000003,1339.928473200067,1341.443473200081,1346.4619443000993,1347.3456858000718,1347.3456917000003,1348.8624860000564,1349.879117500037,e,12.0,0.8837414999725297,1,+1,336,16.77294101972708,0.2239251584601436,0.14954486977976122,1335170.0,-3.682877102000223,-0.17392291126407056,-0.0882790508951734,1338703.0,,,,,1341.4428006330534,1337.9098006330535,
73,46,24,m,1,1,65.0,27,2,low,3 + 8 + 1 - 5 + 1,8,9,6,8,1351.3971804000903,1353.422992900014,1354.9379732001107,1359.9570041000843,1360.5536227000412,1360.553627400077,1362.0701767000137,1363.0878572000656,e,8.0,0.5966185999568552,1,+1,337,-3.5022706071863077,0.36934044939283606,0.09108852334363249,1348664.0,9.571037612054091,-0.3762908594292753,0.0996323549975382,1352199.0,,,,,1354.9388006330535,1351.4038006330534,
74,46,24,m,1,1,66.0,28,2,high,4 + 9 - 7 + 1 - 1,6,5,6,8,1364.6047467000317,1366.6303354999982,1368.145411800011,1373.1639830000931,1373.7216399000026,1373.7216451000422,1375.238285600091,1376.256264100084,w,6.0,0.5576568999094889,1,+10,347,-4.951507182011493,0.6899242082336463,-0.07715156134604584,1361872.0,23.815528113145486,-0.18987063084217226,0.0006025348341123227,1365405.0,,,,,1368.1448006330534,1364.6118006330535,
75,46,24,m,1,1,67.0,29,1,low,6 + 9 + 1 + 1 - 1,16,16,14,15,1377.7733620000072,1379.800468500005,1381.3158307000997,1386.3348678000038,1387.121552900062,1387.1215576000975,1388.637974900077,1389.6549008000875,q,16.0,0.7866851000580937,1,+1,348,31.468093562719176,-0.23063690901214517,-0.02707613270327025,1375041.0,12.591212574809704,0.21537335897016074,0.18739845247074793,1378576.0,,,,,1381.3158006330534,1377.7808006330533,
76,46,24,m,1,1,68.0,30,3,low,3 + 8 + 1 + 5 - 9,8,9,7,8,1391.1718691000715,1393.1997521000449,1394.715485600056,1399.733389500063,1400.3136028000154,1400.3136078000534,1401.8303965000669,1402.847354300087,e,8.0,0.5802132999524474,1,+1,349,6.492319834097988,0.34596237213503844,-0.002377109979579295,1388441.0,-3.3560979109073514,-0.03995596932317014,-0.04920108167685289,1391975.0,,,,,1394.7148006330533,1391.1808006330534,
77,46,24,m,1,1,69.0,31,4,high,3 + 8 - 4 + 9 + 6,22,22,21,23,1404.3640187000856,1406.386880200007,1407.901667100028,1412.919858600013,1413.4975292000454,1413.497537300107,1415.013665100094,1416.0309698000783,q,22.0,0.5776706000324339,1,+10,359,23.18368442393962,-0.4544861662671984,0.14559999426700942,1401628.0,-16.215564259941395,-0.00932247495031735,-0.00398661746067841,1405161.0,,,,,1407.9008006330534,1404.3678006330533,
78,46,24,m,1,1,70.0,32,3,low,2 + 1 + 9 - 4 + 6,14,14,15,16,1417.5478112000274,1419.5711279000388,1421.086331400089,1426.1051544001093,1426.8095379000297,1426.8095426000657,1428.326112400042,1429.3430681000464,q,14.0,0.7043834999203682,1,+1,360,22.550740778298454,0.3387156378938534,-0.16207549642827734,1414812.0,28.217882512863937,0.06423316843624072,0.12301831429845356,1418346.0,,,,,1421.0858006330534,1417.5518006330533,
79,46,24,m,1,1,71.0,33,3,high,6 + 1 + 8 + 7 - 9,13,15,14,13,1430.8598925000988,1432.8858563000103,1434.4011169000296,1439.4199596000835,1440.0015152000124,1440.0015203000512,1441.517886600108,1442.535130100092,e,13.0,0.5815555999288335,1,+10,370,6.310584279276638,0.03650234453531542,-0.005346911969126733,1428127.0,39.098371832197685,-0.19885692353161843,0.08579700144295055,1431661.0,,,,,1434.4008006330534,1430.8668006330533,
80,46,24,m,1,1,72.0,34,1,low,9 + 7 + 1 + 1 + 1,19,20,18,19,1444.0519158000825,1446.0794150000438,1447.5946840000106,1452.613787500071,1453.193384900107,1453.1933897000272,1454.7099086000817,1455.7265687000472,e,19.0,0.5795974000357091,1,+1,371,-4.493015667181133,0.09565581893651665,0.07451529615155295,1441321.0,6.7720409222459095,-0.49989942728874226,0.3022093977630975,1444855.0,,,,,1447.5948006330534,1444.0608006330533,
81,46,24,m,1,1,73.0,35,4,high,2 + 9 - 6 + 8 - 4,9,11,9,7,1457.2433277000673,1459.271131800022,1460.7864953000098,1465.8050914000487,1466.953380000079,1466.953385300003,1468.4704505000263,1469.4878166000126,w,9.0,1.1482886000303552,1,+10,381,12.00274088447767,0.23859828933874194,0.010732608521959897,1454512.0,0.13851771214280983,0.41395301559740183,0.026208530673725416,1458046.0,,,,,1460.7858006330534,1457.2518006330533,
82,46,24,m,1,1,74.0,36,1,high,7 - 1 + 9 + 1 - 1,15,13,14,15,1471.0043788000476,1473.027810300002,1474.5427711000666,1479.5604159000795,1480.2334238000913,1480.2334291000152,1481.7499110000208,1482.7672428000951,e,15.0,0.6730079000117257,1,+10,391,7.9863194822150625,-0.33308996747994524,0.10875762496359265,1468269.0,-12.79204770023478,-0.4473372115509404,0.1391669181941606,1471802.0,,,,,1474.5418006330533,1471.0088006330534,
83,46,24,m,1,1,75.0,37,4,low,5 + 7 - 4 - 6 + 9,11,12,11,13,1484.2843262000242,1486.3080431000562,1487.822699100012,1492.8421135001115,1494.7613417000975,1494.7613471000222,1496.2779135000892,1497.2950073000975,w,11.0,1.9192281999858096,1,+1,392,-23.28996138282681,0.7124099721127792,0.10149664590384333,1481549.0,7.890549150145031,0.48824295139681073,-0.06598954475960728,1485082.0,,,,,1487.8218006330535,1484.2888006330534,
84,46,24,m,1,2,76.0,0,4,high,6 + 9 - 7 + 8 - 5,11,12,13,11,1513.2455639000982,1515.272592500085,1516.7876060000854,1521.8080685000168,1522.329380500014,1522.329385900055,1523.84598740004,1524.8633834000211,e,11.0,0.5213119999971241,1,+10,402,-18.708882511982445,-0.6871099091686408,0.7873197288503699,1510514.0,-3.9246596408737204,-0.27012291914702136,0.005033203514408502,1514049.0,,,,,1516.7888006330534,1513.2538006330533,
85,46,24,m,1,2,77.0,1,4,high,6 + 9 + 7 - 3 - 5,14,13,12,14,1526.380050000036,1528.40492250002,1529.919829600025,1534.9384096000576,1536.761319000041,1536.7613244000822,1538.277646600036,1539.2953759001102,e,14.0,1.822909399983473,1,+10,412,0.38662321520046916,0.11526453182291085,0.06379666909065884,1523646.0,-21.792658934968742,0.08561405198313299,-0.007530599638141844,1527179.0,,,,,1529.9188006330535,1526.3858006330533,
86,46,24,m,1,2,78.0,2,1,high,6 + 1 + 8 + 1 + 1,17,15,17,16,1540.811816300033,1542.8391223000365,1544.3546286000635,1549.372671600082,1550.0013382000616,1550.0013432000997,1551.5179605000883,1552.535326500074,w,17.0,0.6286665999796242,1,+10,422,-6.21711391628277,0.0970769299618075,0.10770230648482126,1538080.0,-13.9583671971922,-0.21660679556696127,0.2017074948230193,1541614.0,,,,,1544.3538006330534,1540.8198006330533,
87,46,24,m,1,2,79.0,3,4,low,3 + 8 - 5 + 9 - 7,8,7,8,6,1554.0519099000376,1556.0779893000145,1557.593362300075,1562.6115546000656,1563.31319060002,1563.3131962000623,1564.830005900003,1565.846818900085,w,8.0,0.7016359999543056,1,+1,423,8.691084151005168,-0.032918835497003585,0.09098866018462326,1551319.0,-5.173701038981921,0.5866718126372281,0.24142619459938253,1554853.0,,,,,1557.5928006330535,1554.0588006330534,
88,46,24,m,1,2,80.0,4,4,low,3 + 9 - 4 + 7 + 6,21,20,21,19,1567.3635932001052,1569.3866757000796,1570.9017657000804,1575.9209046000617,1576.7292270000326,1576.7292325000744,1578.245867400081,1579.2625474000815,w,21.0,0.8083223999710754,1,+1,424,15.670843414139483,-0.41753486345173396,0.08153616634161809,1564628.0,2.2551969167099593,1.4082305585216233,0.06321835459801806,1568161.0,,,,,1570.9008006330534,1567.3678006330533,
89,46,24,m,1,2,81.0,5,4,high,2 + 9 - 4 + 8 + 7,22,23,21,22,1580.77967050008,1582.807634600089,1584.32298190007,1589.3414847000968,1590.3131174000446,1590.3131226000842,1591.8295735000866,1592.8464766000398,e,22.0,0.9716326999478042,1,+10,434,-10.03170272986325,-0.5096621681069808,-0.040562966448037585,1578048.0,-12.724745053650452,-0.1338216746499299,0.4369700636114109,1581582.0,,,,,1584.3218006330535,1580.7878006330534,
90,46,24,m,1,2,82.0,6,4,high,4 + 7 - 8 + 9 - 4,8,8,7,9,1594.363212199998,1596.387286900077,1597.9024830000708,1602.9226413000142,1603.7292669001035,1603.729272000026,1605.24580350006,1606.2638357999967,q,8.0,0.806625600089319,1,+10,444,-7.829154521188816,0.1411423672211689,0.1774936403695131,1591628.0,-19.488891641350254,0.332477130648555,0.12182685621622058,1595163.0,,,,,1597.9028006330534,1594.3678006330533,
91,46,24,m,1,2,83.0,7,1,low,3 + 1 + 8 - 1 + 1,12,10,12,13,1607.780591600109,1609.8068617000245,1611.3222608000506,1616.340185500099,1617.2813934000442,1617.2813986000838,1618.7985779000446,1619.815930700046,w,12.0,0.9412078999448568,1,+1,445,-5.105880816445843,-0.1845787490177626,0.10285011672209343,1605048.0,-11.474908508169575,0.4472449978772044,-0.006104501554748509,1608581.0,,,,,1611.3208006330533,1607.7878006330534,
92,46,24,m,1,2,84.0,8,1,low,7 - 1 + 1 + 9 - 1,15,14,15,13,1621.3338550000915,1623.359331100015,1624.8746564000612,1629.893017400056,1630.6091192000313,1630.6091246000724,1632.125588200055,1633.1422320000129,w,15.0,0.7161017999751493,1,+1,446,8.001086240367743,0.47997236574709223,0.27886436012254645,1618600.0,-8.00484259986938,0.08627247418934658,-0.06386625155671455,1622134.0,,,,,1624.8738006330534,1621.3398006330533,
93,46,24,m,1,2,85.0,9,3,low,8 - 7 + 9 + 1 + 4,15,14,16,15,1634.659543100046,1636.6857150000287,1638.2009225001093,1643.219095400069,1644.7132008000044,1644.713206000044,1646.2298012000974,1647.247272000066,q,14.0,1.4941053999355065,0,+0,446,10.298084378963523,0.22237437573678864,-0.10581344969203688,1631926.0,-18.12777240409908,0.20484854999485513,0.08555940560735475,1635460.0,,,,,1638.1998006330534,1634.6658006330533,
94,46,24,m,1,2,86.0,10,1,high,7 + 1 + 4 + 1 - 1,12,13,12,14,1648.763898300007,1650.787820900092,1652.3034579000669,1657.3218075000914,1657.857105000061,1657.857110300101,1659.373363000108,1660.3900894001126,w,12.0,0.5352974999696016,1,+10,456,-42.40042077741031,0.40561644661888474,-0.32219866241237094,1646028.0,-26.256895304743825,0.20345543789589815,0.09863805670441206,1649562.0,,,,,1652.3018006330533,1648.7678006330534,
95,46,24,m,1,2,87.0,11,4,low,7 + 6 + 8 - 4 + 5,22,23,21,22,1661.906857200083,1663.9323685000418,1665.4475825000554,1670.4662207000656,1671.2811674000695,1671.28117270011,1672.7979065000543,1673.8148620000577,e,22.0,0.8149467000039294,1,+1,457,-32.594680130780084,0.35370861443667323,-0.00859874348822487,1659173.0,21.412347018587724,0.7606878458172828,0.11468805700704898,1662707.0,,,,,1665.4468006330535,1661.9128006330534,
96,46,24,m,1,2,88.0,12,2,high,7 + 5 + 1 + 9 + 1,23,23,22,21,1675.3313953001052,1677.3567882000934,1678.8720236000372,1683.8897700000089,1684.6331054000184,1684.633111000061,1686.1497575000394,1687.1673766000897,q,23.0,0.7433354000095278,1,+10,467,8.80287711291709,-0.19502890229582448,0.19384314549978132,1672597.0,4.351685514049425,0.049007374749524324,0.07659067296167743,1676131.0,,,,,1678.8708006330535,1675.3368006330534,
97,46,24,m,1,2,89.0,13,4,low,3 + 9 - 5 + 8 - 7,8,8,7,9,1688.6841213000007,1690.7113270000557,1692.2266857000068,1697.245407700073,1698.5050581000978,1698.505063300021,1700.0216323001075,1701.0386407000478,q,8.0,1.2596504000248387,1,+1,468,18.64815772911821,0.06511729024827151,0.135801119986112,1685952.0,1.2742701203811713,0.2735761385090574,0.23684878387908004,1689486.0,,,,,1692.2258006330535,1688.6918006330534,
98,46,24,m,1,2,90.0,14,3,low,3 + 8 - 7 - 1 + 9,12,12,13,14,1702.555374400108,1704.5838113001082,1706.0997643000446,1711.1190371999985,1711.7209281000542,1711.72093280009,1713.2369577001082,1714.253937600064,q,12.0,0.6018909000558779,1,+1,469,29.330283116109122,-0.22454543841346464,0.015158133894661585,1699824.0,-12.155774124033265,-0.028590022751316724,0.05676906948743765,1703360.0,,,,,1706.0998006330533,1702.5638006330535,
99,46,24,m,1,2,91.0,15,3,high,2 + 9 - 3 + 4 + 1,13,14,11,13,1715.771012400044,1717.795769300079,1719.3114597001113,1724.3317608000943,1725.033019500086,1725.0330249000108,1726.5504978001118,1727.56789820001,e,13.0,0.7012586999917403,1,+10,479,10.625615935277132,-0.5623757562624441,-0.03964747519614065,1713037.0,3.5271254312736886,0.5452719879298318,0.13409428728693307,1716572.0,,,,,1719.3118006330533,1715.7768006330534,
100,46,24,m,1,2,92.0,16,3,high,4 + 1 + 8 + 9 - 5,17,18,17,19,1729.0847235000692,1731.1067721000873,1732.622084600036,1737.6405192000093,1738.232909400016,1738.2329143000534,1739.7493814000627,1740.7672287001042,w,17.0,0.5923902000067756,1,+10,489,42.38907297592571,0.44040384011417544,0.023924302993645785,1726347.0,-10.751510903722526,-0.10662598393851219,0.10640735669188262,1729881.0,,,,,1732.6208006330535,1729.0868006330534,
101,46,24,m,1,2,93.0,17,4,low,5 + 7 - 4 + 8 + 6,22,22,23,24,1742.2840693000471,1744.3079189000418,1745.8232812000206,1750.8410759000108,1751.6008896999992,1751.6008954000426,1753.1174023000058,1754.1343795000575,q,22.0,0.7598137999884784,1,+1,490,-29.282273540808326,-0.546712590821147,-0.15018521139805596,1739549.0,7.926076884130129,0.19249919644776003,-0.13432708492400902,1743082.0,,,,,1745.8218006330535,1742.2888006330534,
102,46,24,m,1,2,94.0,18,4,high,7 + 6 - 4 + 9 - 5,13,14,13,12,1755.6512874000473,1757.6797131000783,1759.1949279000985,1764.2133855000138,1764.7769065001048,1764.7769118000288,1766.293337500072,1767.3108624001034,w,13.0,0.5635210000909865,1,+10,500,9.32836748942821,-0.9018877114606578,-0.12638317235277174,1752920.0,38.74450074858351,0.2867773464596537,-0.015353002264031357,1756454.0,,,,,1759.1938006330533,1755.6598006330535,
103,46,24,m,1,2,95.0,19,1,low,7 + 1 + 5 + 1 - 1,13,13,14,12,1768.8278688000282,1770.8544172000838,1772.3697518000845,1777.3881717000622,1778.0249521000078,1778.0249574000482,1779.541530400049,1780.5581772000296,q,13.0,0.6367803999455646,1,+1,501,13.429935760195834,-0.22693168042179934,0.1963031869173948,1766095.0,14.501419210051965,0.11336939864240048,0.0870759902669489,1769629.0,,,,,1772.3688006330533,1768.8348006330534,
104,46,24,m,1,2,96.0,20,4,low,3 + 8 - 4 + 9 + 7,23,22,24,23,1782.074913400109,1784.1002355000237,1785.6155465000777,1790.635647600051,1792.136890400085,1792.1368953000056,1793.653688200051,1794.670520600048,e,23.0,1.5012428000336513,1,+1,502,-15.568834521797221,0.13299656131237292,-0.16932176276641453,1779341.0,6.024171028563877,0.09781923282924154,0.1688143087212306,1782876.0,,,,,1785.6158006330534,1782.0808006330533,
105,46,24,m,1,2,97.0,21,1,low,4 + 8 + 1 - 1 - 1,11,13,9,11,1796.187203800073,1798.2149681000735,1799.7303644000783,1804.7488935000729,1805.4408623001077,1805.4408679000333,1806.958117100061,1807.975068900036,e,11.0,0.691968800034374,1,+1,503,-34.189524069615544,-0.14369569534763604,0.3103090125870045,1793455.0,24.28919642340904,-0.08278113715663782,-0.11995388252692463,1796989.0,,,,,1799.7288006330534,1796.1948006330533,
106,46,24,m,1,2,98.0,22,3,low,7 - 6 + 8 + 1 + 7,17,16,17,15,1809.491692300071,1811.5196716000792,1813.0350465000372,1818.0552228000013,1818.728785800049,1818.7287907000864,1820.2452588001036,1821.2627052000023,w,17.0,0.6735630000475794,1,+1,504,8.70659637454218,-0.06578230626354475,0.5230799140388998,1806760.0,-4.736533821474037,0.42245907593499155,0.07655605411921318,1810296.0,,,,,1813.0358006330534,1809.4998006330534,
107,46,24,m,1,2,99.0,23,4,low,6 + 7 + 9 - 3 + 5,24,22,23,24,1822.779934600112,1824.808394300053,1826.323563500075,1831.341320800013,1832.7846909000075,1832.784695900045,1834.3012268000748,1835.3182587000772,e,24.0,1.443370099994354,1,+1,505,15.609567998905346,0.08836033597021586,-0.03858335842252236,1820048.0,16.29053018767354,0.3568254001798845,0.040796328098853696,1823583.0,,,,,1826.3228006330535,1822.7878006330534,
108,46,24,m,1,2,100.0,24,1,high,7 - 1 + 8 + 1 - 1,14,12,14,13,1836.835213100072,1838.8633026001044,1840.378220100072,1845.398185600061,1846.0087367000524,1846.0087422000945,1847.525191000081,1848.5425151000964,w,14.0,0.6105510999914259,1,+10,515,10.408995996759915,-0.5858178791018451,-0.017666140192327706,1834104.0,11.939174774094123,1.0600393492754625,0.07350515025223414,1837639.0,,,,,1840.3788006330533,1836.8438006330534,
109,46,24,m,1,2,101.0,25,1,low,8 + 1 + 1 + 1 - 4,7,7,5,8,1850.059373200056,1852.0864613000304,1853.6016134000383,1858.62005700008,1859.4006599000425,1859.4006653000836,1860.9171542000256,1861.9340130001076,q,7.0,0.7806028999621049,1,+1,516,-5.296254142689081,1.1863414515891613,0.30669224521201777,1847327.0,-8.686259261901569,0.24787550786046175,0.11410696716075241,1850860.0,,,,,1853.5998006330533,1850.0668006330534,
110,46,24,m,1,2,102.0,26,2,high,5 + 9 - 8 + 1 + 1,8,7,9,8,1863.4509066001049,1865.4779887000327,1866.993089399999,1872.0129607000852,1872.904648500029,1872.9046538000691,1874.421318400069,1875.4384925001068,e,8.0,0.891687799943611,1,+10,526,31.95040594171738,-0.2567009374379374,0.19931896333949606,1860718.0,8.564798055787616,-0.018898277561135934,0.19906758690679682,1864253.0,,,,,1866.9928006330533,1863.4578006330535,
111,46,24,m,1,2,103.0,27,2,high,8 + 1 + 7 + 1 - 4,13,12,14,13,1876.955225200043,1878.979454800021,1880.494741200004,1885.5131894000808,1886.080761600053,1886.0807669000933,1887.5972909000704,1888.614874800085,e,13.0,0.5675721999723464,1,+10,536,-0.012945755896141442,-0.5136826440988806,0.12243499765743815,1874219.0,-0.464977848183338,1.6387990199782156,0.20913865205467097,1877753.0,,,,,1880.4928006330533,1876.9588006330534,
112,46,24,m,1,2,104.0,28,2,high,5 + 1 + 7 - 6 + 1,8,6,7,8,1890.1311201000356,1892.15656760009,1893.6718457000095,1898.6902260000352,1899.2326485000085,1899.2326539000496,1900.74913250003,1901.7664315000875,e,8.0,0.5424224999733269,1,+10,546,19.414543456886094,-0.014548424784114111,-0.12336204379794236,1887397.0,30.14928648806277,0.04934593030272261,-0.07264028161463498,1890930.0,,,,,1893.6698006330535,1890.1368006330533,
113,46,24,m,1,2,105.0,29,2,high,2 + 1 + 9 - 4 + 1,9,9,8,11,1903.2830691999989,1905.309881900088,1906.825187700102,1911.8430958000245,1912.5446169000352,1912.5446222000755,1914.060880400008,1915.0779143000252,q,9.0,0.7015211000107229,1,+10,556,-29.224169173078536,-0.01956481504587515,0.016825893737674846,1900550.0,34.10580036358789,-0.250488894311812,0.19969863406938781,1904084.0,,,,,1906.8238006330535,1903.2898006330533,
114,46,24,m,1,2,106.0,30,2,low,4 + 1 + 9 + 1 - 6,9,9,7,8,1916.5949528000783,1918.6235057000304,1920.1389159000248,1925.156970100012,1928.1125220000977,1928.1125273000216,1929.6292161000893,1930.6461780000243,q,9.0,2.955551900085993,1,+1,557,-3.7915981468474023,-0.7985053484339861,0.009450100282429208,1913864.0,11.75307947820816,-0.11244747702786562,0.2542111742947455,1917397.0,,,,,1920.1368006330533,1916.6038006330534,
115,46,24,m,1,2,107.0,31,2,high,7 + 1 + 9 - 1 - 8,8,6,7,8,1932.162791000097,1934.188936500112,1935.704193700105,1940.724448400084,1941.2245546000777,1941.2245600000024,1942.7408630000427,1943.758194100112,e,8.0,0.5001061999937519,1,+10,567,35.37345384416606,0.7757117058900906,0.052461991343887515,1929429.0,-10.428586874998013,0.9027741256952524,0.07166293096798837,1932965.0,,,,,1935.7048006330533,1932.1688006330535,
116,46,24,m,1,2,108.0,32,2,high,6 + 1 + 1 + 7 - 9,6,6,4,8,1945.2750289000105,1947.2986724000657,1948.8138094000751,1953.832380900043,1954.416585300001,1954.4165910000447,1955.932930400013,1956.9501238000807,q,6.0,0.5842043999582529,1,+10,577,-1.7459963880424425,0.2391983137002538,0.10664674956918074,1942539.0,14.910963782075873,0.5697933991964144,0.020615596787212365,1946072.0,,,,,1948.8118006330533,1945.2788006330534,
117,46,24,m,1,2,109.0,33,4,high,8 + 4 + 7 - 5 - 6,8,8,9,6,1958.4669008000053,1960.4931841000216,1962.0082884000149,1967.0283864000808,1967.5845978000436,1967.584603400086,1969.1014384001028,1970.118640200002,q,8.0,0.5562113999621943,1,+10,587,-0.1962951959231809,0.38864790916693437,-0.520273446811887,1955733.0,11.496826504812791,0.10940698147320838,0.04052212950307643,1959268.0,,,,,1962.0078006330534,1958.4728006330533,
118,46,24,m,1,2,110.0,34,3,low,8 - 1 + 6 - 7 + 5,11,13,12,11,1971.6355240000407,1973.6607217000565,1975.1760077000365,1980.1944176000543,1980.8084985000316,1980.8085034000687,1982.3252446000697,1983.3421123001024,e,11.0,0.6140808999771252,1,+1,588,-35.23075121125593,-0.5727461192737264,0.05083922688290943,1968900.0,4.547236403933333,0.4192498993296674,0.0012001781018484703,1972434.0,,,,,1975.1738006330534,1971.6398006330535,
119,46,24,m,1,2,111.0,35,2,low,9 + 1 + 6 + 7 + 1,24,24,25,23,1984.8583654999968,1986.8867329000493,1988.4021149000616,1993.4201259000693,1994.4244115001056,1994.4244168000296,1995.9407946000572,1996.957710500108,q,24.0,1.004285600036383,1,+1,589,-2.8893779446964487,0.10901069355954895,5.470807577934167e-05,1982127.0,53.02699262502977,-0.25742688236323996,0.2402965119760787,1985660.0,,,,,1988.3998006330535,1984.8668006330533,
120,46,24,m,1,2,112.0,36,4,low,7 + 6 - 9 + 8 - 3,9,7,9,8,1998.4745952000376,2000.5017920000248,2002.0171277000336,2007.0357080000688,2008.2165313001024,2008.2165366000263,2009.7329971001016,2010.7502153000096,e,8.0,1.1808233000338078,0,+0,589,54.12899011705544,0.7659452986676856,0.010484620239697762,1995741.0,-45.96192266718655,0.7360644486598078,0.13266891949806792,1999276.0,,,,,2002.0158006330535,1998.4808006330534,
121,46,24,m,1,2,113.0,37,2,low,8 + 1 + 9 + 1 - 4,15,14,16,15,2012.267013200093,2014.292642800021,2015.807707900065,2020.8268901000265,2021.560477900086,2021.5604831000087,2023.0771595000988,2024.094028900028,e,15.0,0.7335878000594676,1,+1,590,14.014931914534131,-0.016221525430013095,-0.15298903981387135,2009533.0,23.857849394743283,0.7279936974225918,0.3431980877986691,2013067.0,,,,,2015.8068006330534,2012.2728006330533,
122,46,24,m,1,3,114.0,0,4,high,8 + 5 - 4 + 7 + 9,25,25,24,26,2081.236758900108,2083.2634091000077,2084.778609900037,2089.7988876000745,2092.59234740003,2092.5923528000712,2094.1090824001003,2095.126405000105,q,25.0,2.793459799955599,1,+10,600,13.859278383561684,0.10169197618369541,-0.17482671367412483,2078503.0,4.151235793358245,0.9545601324327615,0.16560988924392062,2082038.0,,,,,2084.777800633053,2081.2428006330533,
123,46,24,m,1,3,115.0,1,4,high,2 + 9 - 3 + 5 + 8,21,23,22,21,2096.6433883000864,2098.6658165000845,2100.1810832000338,2105.199979600031,2107.064321300015,2107.0643264000537,2108.5807366000954,2109.5979199000867,e,21.0,1.8643416999839248,1,+10,610,19.0810435007421,-0.18614753290912933,0.06687317900014356,2093905.0,-2.254120998052972,0.7444151240344081,0.3003920750544853,2097440.0,,,,,2100.179800633053,2096.6448006330534,
124,46,24,m,1,3,116.0,2,1,low,3 + 1 + 8 + 1 + 1,14,16,14,13,2111.1143715000944,2113.1392261000583,2114.6543693999997,2119.672378900112,2120.192267200094,2120.192272800021,2121.7092450000346,2122.726949600037,w,14.0,0.5198882999829948,1,+1,611,-15.787121079860029,0.26766962346745693,-0.00501474824505066,2108379.0,35.568416758770866,0.24002749976316284,0.3461015653817756,2111912.0,,,,,2114.651800633053,2111.118800633053,
125,46,24,m,1,3,117.0,3,4,high,4 + 9 - 7 + 8 + 5,19,20,21,19,2124.244231600081,2126.2726304000244,2127.7886727000587,2132.80709040002,2133.52025000006,2133.520258900011,2135.0368813000387,2136.05416420009,e,19.0,0.713159600039944,1,+10,621,25.71244409654458,0.03320505266999385,0.05282179681802868,2121512.0,-49.141461164081875,-0.22977959431640516,0.28773433423166694,2125047.0,,,,,2127.786800633053,2124.2518006330533,
126,46,24,m,1,3,118.0,4,4,low,8 + 3 - 4 + 5 + 9,21,23,22,21,2137.57076110004,2139.597570900107,2141.1125511000864,2146.131105800043,2147.008173200069,2147.0081781001063,2148.524855600088,2149.54201450001,q,23.0,0.8770674000261351,0,+0,621,5.783141582524877,0.5039948455208347,0.05115161902030896,2134837.0,39.70067260681801,0.9361176816613397,0.027759336022490366,2138370.0,,,,,2141.109800633053,2137.576800633053,
127,46,24,m,1,3,119.0,5,4,high,9 + 7 - 5 + 8 + 6,25,24,27,25,2151.058690400096,2153.085640400066,2154.600634500035,2159.6208224000875,2160.2561796000227,2160.2561851000646,2161.7724924000213,2162.7899607000872,e,25.0,0.6353571999352425,1,+10,631,8.851647306325377,-0.143904987347224,0.6089170955471777,2148325.0,15.062181188321333,0.6127550720131567,-0.061053717476312386,2151860.0,,,,,2154.5998006330533,2151.064800633053,
128,46,24,m,1,3,120.0,6,2,low,4 + 9 - 7 + 1 - 1,6,6,5,8,2164.307134600007,2166.335226400057,2167.850530900061,2172.8691529000644,2173.448278900003,2173.448284400045,2174.964817200089,2175.9816899000434,q,6.0,0.5791259999386966,1,+1,632,-13.996978055750521,0.3066198212645457,-0.004415719232038207,2161574.0,-0.5287897023268311,0.5758592996200629,-0.045889424453698036,2165109.0,,,,,2167.848800633053,2164.3138006330532,
129,46,24,m,1,3,121.0,7,1,low,7 + 1 + 4 + 1 - 1,12,13,11,12,2177.4985592000885,2179.5245449000504,2181.039528900059,2186.057978900033,2186.8161486000754,2186.8161537999986,2188.332692200085,2189.3496147000697,e,12.0,0.7581697000423446,1,+1,633,4.907882744742421,-0.3576351504111801,-0.03773262560557544,2174764.0,9.830175543049846,1.2011466876052452,0.12458724352348716,2178297.0,,,,,2181.036800633053,2177.5038006330533,
130,46,24,m,1,3,122.0,8,4,low,7 + 8 - 4 + 6 + 5,22,22,21,23,2190.866400900064,2192.893482900108,2194.408749400056,2199.4272367000813,2200.0400404999964,2200.0400456000352,2201.556442400092,2202.573361800052,q,22.0,0.6128037999151275,1,+1,634,8.165533690710049,0.2111963827006278,-0.10483186636304898,2188133.0,-30.407826396130844,-0.029687339709445926,0.07272044598028393,2191667.0,,,,,2194.406800633053,2190.872800633053,
131,46,24,m,1,3,123.0,9,3,high,7 - 1 + 8 - 6 + 4,12,12,13,11,2204.0898958001053,2206.11615050002,2207.6310840001097,2212.651635800022,2213.279996199999,2213.2800011000363,2214.796514900052,2215.8143941001035,q,12.0,0.6283603999763727,1,+10,644,10.583370440434933,0.23517405076885467,0.12684562478850103,2201355.0,-12.839182090596818,0.37392034899326365,0.06575961790292961,2204891.0,,,,,2207.6308006330532,2204.094800633053,
132,46,24,m,1,3,124.0,10,1,low,3 + 1 + 9 + 1 - 1,13,12,13,14,2217.3308990000514,2219.358229900012,2220.873484900105,2225.8911488000304,2226.43209440005,2226.4320998000912,2227.9486144999973,2228.965569699998,w,13.0,0.5409456000197679,1,+1,645,-99.10993804424143,0.3507126356319734,-0.006180421630483712,2214598.0,-31.4478527767537,-0.4623844344865362,0.0700634785324028,2218131.0,,,,,2220.870800633053,2217.337800633053,
133,46,24,m,1,3,125.0,11,2,low,5 + 7 - 8 + 1 + 1,6,7,6,8,2230.4824729000684,2232.5095166000538,2234.024661600008,2239.044578600093,2239.655960200005,2239.6559652000437,2241.172636300093,2242.189531500102,w,6.0,0.6113815999124199,1,+1,646,-27.338407982919747,0.5034145219411066,0.01976813100240582,2227749.0,-10.484057389397815,0.6658930379846844,0.07054940170743995,2231284.0,,,,,2234.0238006330533,2230.488800633053,
134,46,24,m,1,3,126.0,12,3,high,6 + 8 + 7 + 1 - 9,13,13,15,14,2243.706358400057,2245.734525600099,2247.24968290003,2252.267920800019,2252.848048900021,2252.84805400006,2254.364730500034,2255.3822649000213,q,13.0,0.5801281000021845,1,+10,656,-58.2525568685504,-0.16402714779931804,0.09856701207925567,2240973.0,2.5355905081803254,-0.0705923631403711,0.06151343128121112,2244507.0,,,,,2247.246800633053,2243.712800633053,
135,46,24,m,1,3,127.0,13,3,low,7 - 5 + 9 + 1 - 4,8,9,7,8,2256.9003748000832,2258.924269600073,2260.4395325001096,2265.457992700045,2268.3120097001083,2268.31201470003,2269.8284020000137,2270.8457001000643,w,7.0,2.8540170000633225,0,+0,656,20.28071185635011,-0.29468090274616543,0.2758434570319417,2254164.0,-38.78843826153859,0.2908229060309844,0.06147173382951743,2257697.0,,,,,2260.4368006330533,2256.9038006330534,
136,46,24,m,1,3,128.0,14,1,high,5 + 1 + 1 + 6 + 1,14,16,13,14,2272.362551500089,2274.3843347000657,2275.8995623000665,2280.9173181001097,2281.7200630001025,2281.720068700029,2283.236822100007,2284.25431930006,e,14.0,0.802744899992831,1,+10,666,14.52433668192646,0.15106631679950233,0.012234938978562537,2269624.0,-1.0585180068783835,1.0062314009051896,0.22435424342609478,2273156.0,,,,,2275.895800633053,2272.363800633053,
137,46,24,m,1,3,129.0,15,4,high,3 + 8 - 7 + 9 - 5,8,9,8,7,2285.7711636000317,2287.796968800016,2289.3117298000725,2294.330365700065,2294.9438385000685,2294.943843400106,2296.4600399000337,2297.4773897000123,w,8.0,0.6134728000033647,1,+10,676,21.81325704944674,0.6125795385041282,0.08642438246730144,2283036.0,-22.888861172978622,0.4775545241813397,-0.07560773822194444,2286569.0,,,,,2289.308800633053,2285.775800633053,
138,46,24,m,1,3,130.0,16,4,high,7 + 6 - 9 + 8 - 3,9,9,8,7,2298.9943414001027,2301.021194800036,2302.536526400014,2307.556282500038,2309.5279511000263,2309.5279569000704,2311.044506500009,2312.061901300098,q,9.0,1.9716685999883337,1,+10,686,-2.366454437515774,0.3620688015977245,-0.07548622528842941,2296259.0,-21.463796696403627,0.5813162448448876,-0.019070666038830453,2299795.0,,,,,2302.5348006330532,2298.998800633053,
139,46,24,m,1,3,131.0,17,1,high,8 + 1 + 5 + 1 + 1,16,16,17,15,2313.5784506000346,2315.604938900098,2317.119981600088,2322.1387855000794,2322.7359076000284,2322.7359131000703,2324.252360900049,2325.270872700028,q,16.0,0.597122099949047,1,+10,696,-26.80937018891875,0.0811978484704885,0.031543715967881525,2310844.0,33.344297014921565,-0.12237727880648697,0.3276783829906216,2314377.0,,,,,2317.116800633053,2313.583800633053,
140,46,24,m,1,3,132.0,18,4,low,5 + 8 - 4 - 6 + 9,12,13,12,14,2326.787522000028,2328.8141509999987,2330.3294240999967,2335.347571799997,2335.9038260000525,2335.9038314000936,2337.4202879000222,2338.4373114000773,w,12.0,0.5562542000552639,1,+1,697,-29.382867027777003,-0.21533049595667997,0.04045770102457036,2324053.0,8.354566291285993,0.8540139207845434,0.07254975484949266,2327587.0,,,,,2330.326800633053,2326.792800633053,
141,46,24,m,1,3,133.0,19,2,high,8 + 1 + 4 - 7 + 1,7,7,5,6,2339.954112600069,2341.977160000009,2343.4925102000125,2348.5109826000407,2349.2158137001097,2349.2158190000337,2350.7325330000604,2351.749856000068,q,7.0,0.7048311000689864,1,+10,707,7.1083483650816,-0.1700803193462055,-0.16773306754297312,2337216.0,6.16827045250354,0.24528971420059698,0.09866994686239527,2340750.0,,,,,2343.489800633053,2339.955800633053,
142,46,24,m,1,3,134.0,20,3,low,2 + 1 + 9 - 5 + 6,13,14,11,13,2353.266485500033,2355.294085600064,2356.80943740008,2361.828169000102,2362.5037741001,2362.503779200022,2364.0201776000904,2365.037012600107,e,13.0,0.6756050999974832,1,+1,708,-4.079786425174271,-0.4345427888684341,0.03464151038809349,2350533.0,29.89123278001563,-0.09235936276142276,0.19555142861235764,2354067.0,,,,,2356.806800633053,2353.272800633053,
143,46,24,m,1,3,135.0,21,1,low,2 + 9 + 1 + 1 + 1,14,13,14,12,2366.553945600055,2368.580294300104,2370.095639200066,2375.1129070000025,2375.5357556000818,2375.5357606000034,2377.0532212000107,2378.069844200043,w,14.0,0.4228486000793054,1,+1,709,-11.784061856362577,-0.29062065322698194,0.04470048471404153,2363819.0,15.463585257482945,0.31887031066046356,-0.29974553847202245,2367353.0,,,,,2370.0928006330532,2366.558800633053,
144,46,24,m,1,3,136.0,22,4,low,8 + 4 + 7 - 5 - 6,8,8,7,9,2379.586292300024,2381.613735300023,2383.1288532000035,2388.147183100111,2388.871800700086,2388.8718063000124,2390.3879203000106,2391.4049306000816,q,8.0,0.7246175999753177,1,+1,710,8.24267358294215,0.10751867329533304,0.10329933437977723,2376852.0,-41.56893820732327,0.5067996505968964,0.07648631706185904,2380386.0,,,,,2383.125800633053,2379.591800633053,
145,46,24,m,1,3,137.0,23,4,low,2 + 5 - 3 + 9 + 8,21,21,19,22,2392.92170600011,2394.945799200097,2396.461104200105,2401.4796187001048,2404.183803500025,2404.183808700065,2405.700489100069,2406.717757200008,w,19.0,2.7041847999207675,0,+0,710,-31.386058295131317,-0.08361143520702097,-0.0997786352243788,2390185.0,5.345456796988168,0.23206951194298187,0.17274320591455816,2393718.0,,,,,2396.457800633053,2392.924800633053,
146,46,24,m,1,3,138.0,24,3,high,2 - 4 + 9 + 7 + 1,15,16,15,13,2408.234989900025,2410.261743200012,2411.77704820002,2416.79660120001,2418.1677061000373,2418.1677118000807,2419.6840046000434,2420.7012553000823,w,15.0,1.371104900026694,1,+10,720,-25.795245107705842,-0.04538346561939699,-0.1957703681963241,2405500.0,8.63269899755191,1.4748335540928275,-0.1872436470432275,2409036.0,,,,,2411.775800633053,2408.239800633053,
147,46,24,m,1,3,139.0,25,3,high,5 + 6 - 4 - 1 + 7,13,15,14,13,2422.21750030003,2424.2424153001048,2425.7577626000857,2430.7762485001003,2431.4397321,2431.439737500041,2432.9564643000485,2433.973727200064,e,13.0,0.6634835998993367,1,+10,730,6.5907523633496705,0.4140519283273809,0.005628258990399093,2419482.0,-38.684550529300964,-0.1514992673325093,0.10740236977633777,2423015.0,,,,,2425.754800633053,2422.221800633053,
148,46,24,m,1,3,140.0,26,4,high,5 + 7 - 4 - 6 + 9,11,13,11,12,2435.4902808000334,2437.5154118000064,2439.0306950000813,2444.049078800017,2444.5676776000764,2444.567683100002,2446.084664400085,2447.102443000069,w,11.0,0.518598800059408,1,+10,740,4.564812053351282,0.19536249594789945,0.006348535994253002,2432754.0,-70.61576204030973,0.10083571574375494,0.1174553921508863,2436288.0,,,,,2439.027800633053,2435.493800633053,
149,46,24,m,1,3,141.0,27,2,high,3 - 1 + 9 - 5 + 1,7,6,5,7,2448.620018800022,2450.6473138000583,2452.1625814000145,2457.180288100033,2457.7356030000374,2457.735608100076,2459.25196350005,2460.2693568000104,e,7.0,0.555314900004305,1,+10,750,-1.800718433221503,0.06476339181459512,0.09416130627814145,2445886.0,11.68517372175227,0.08134255422596226,0.24986110573486187,2449419.0,,,,,2452.158800633053,2448.625800633053,
150,46,24,m,1,3,142.0,28,4,high,9 + 4 - 6 + 8 + 7,22,21,22,24,2461.7860893000616,2463.8134763001,2465.3288623000262,2470.3500980000244,2472.927599000046,2472.927603900084,2474.4443182999967,2475.4614108001115,e,24.0,2.5775010000215843,0,+0,750,-3.745045008656999,-0.08641276450155555,-0.061701910312972785,2459051.0,-14.240238393161743,1.7667106408027888,0.12416489537036823,2462588.0,,,,,2465.3278006330534,2461.790800633053,
151,46,24,m,1,3,143.0,29,1,high,8 - 1 + 1 + 6 + 1,15,14,16,15,2476.977855700068,2479.002376700053,2480.517614900018,2485.535787100089,2486.087613800075,2486.087618999998,2487.6048471000977,2488.622729600058,e,15.0,0.5518266999861225,1,+10,760,-2.9361267404143225,-0.36093091898427576,0.3841808923304668,2474241.0,59.752697061620985,0.02144902905806756,-0.021267483972177592,2477774.0,,,,,2480.513800633053,2476.980800633053,
152,46,24,m,1,3,144.0,30,4,low,4 + 7 - 8 + 9 - 3,9,9,8,11,2490.139640200068,2492.167656300008,2493.6834520000266,2498.7018006000435,2499.3115101000294,2499.3115151000675,2500.827887400053,2501.8445319000166,q,9.0,0.609709499985911,1,+1,761,23.167009825851693,0.47712763600891295,-0.03608113140896174,2487406.0,-39.85148145768255,0.28230058516139467,-0.10741207989339285,2490941.0,,,,,2493.680800633053,2490.145800633053,
153,46,24,m,1,3,145.0,31,1,high,5 + 1 + 1 + 9 + 1,17,16,19,17,2503.3613230000483,2505.3889396000886,2506.9042252000654,2511.9222840000875,2512.503504400025,2512.5035093000624,2514.0199404000305,2515.0371654001065,e,17.0,0.5812203999375924,1,+10,771,10.524014002245831,0.39857809249158027,0.006916659885993548,2500627.0,0.331432129011791,-0.19809760289643297,0.19807100188307158,2504160.0,,,,,2506.899800633053,2503.366800633053,
154,46,24,m,1,3,146.0,32,1,low,2 + 1 + 9 + 1 - 1,12,11,12,13,2516.554159700056,2518.5831300000427,2520.0981492000865,2525.1180712000933,2526.047538700048,2526.0475444000917,2527.564171300037,2528.5811796000926,w,12.0,0.929467499954626,1,+1,772,15.089741600419558,0.34051199848936875,0.07086474146093469,2513821.0,-59.80529163700202,-0.01526952192918074,0.3542228051699565,2517356.0,,,,,2520.0958006330534,2516.560800633053,
155,46,24,m,1,3,147.0,33,2,high,7 + 5 + 1 - 1 - 8,4,2,3,4,2530.097989700036,2532.126006500097,2533.6410414000275,2538.6600008000387,2539.3754426001105,2539.3754478000337,2540.8920472000027,2541.909261499997,e,4.0,0.7154418000718579,1,+10,782,2.527480344525043,0.32462225899480135,0.010978170866392967,2527364.0,-15.519954518780452,-0.044759326922000575,0.011342577151171707,2530898.0,,,,,2533.6378006330533,2530.103800633053,
156,46,24,m,1,3,148.0,34,3,high,6 + 7 + 8 + 1 - 9,13,14,15,13,2543.4260625001043,2545.4537440000568,2546.9689776001032,2551.9888960000826,2552.599467699998,2552.5994730000384,2554.116049800068,2555.133456200012,e,13.0,0.6105716999154538,1,+10,792,-39.14814998198796,0.5343193588953357,0.1351784657459374,2540692.0,-13.765988338936754,-0.2804563069499988,0.11440398486074899,2544227.0,,,,,2546.966800633053,2543.431800633053,
157,46,24,m,1,3,149.0,35,3,low,9 - 1 + 5 - 6 + 8,15,14,17,15,2556.651032300084,2558.676806200063,2560.1920562000014,2565.210318000056,2566.3753907000646,2566.3753961001057,2567.8920518000377,2568.909015500103,e,15.0,1.16507270000875,1,+1,793,12.534376942953614,-0.6234416704740191,0.042915309248168665,2553914.0,13.573029962234735,0.11041565566807199,0.21022109438803094,2557448.0,,,,,2560.187800633053,2556.6538006330534,
158,46,24,m,1,3,150.0,36,4,high,8 + 4 + 7 - 5 - 6,8,6,9,8,2570.425189300091,2572.452444600058,2573.96770560008,2578.9862858999986,2580.24751190003,2580.247517000069,2581.76406480011,2582.7815131000243,e,8.0,1.2612260000314564,1,+10,803,11.0790231655954,0.2789122894822289,0.0458118428833858,2567690.0,17.52064830630239,0.7540467030700295,0.2054201823811732,2571224.0,,,,,2573.9638006330533,2570.429800633053,
159,46,24,m,1,3,151.0,37,4,high,8 + 4 - 5 + 7 - 6,8,8,7,6,2584.29825230001,2586.323705500108,2587.8391090000514,2592.857654200052,2593.47957570001,2593.479580800049,2594.996072800015,2596.01385070011,q,8.0,0.6219214999582618,1,+10,813,-0.47772424294235005,1.1075692552685283,-0.279437250179017,2581562.0,-6.075932588967518,-1.0857048082588014,0.2449662380135762,2585096.0,,,,,2587.835800633053,2584.301800633053,
160,46,24,m,1,4,152.0,0,4,high,9 + 3 - 5 + 8 + 6,21,21,23,19,2609.7714484001044,2611.7968230000697,2613.3121044000145,2618.3312688000733,2620.8793847000925,2620.879390100017,2622.396060900064,2623.413408100023,q,21.0,2.548115900019184,1,+10,823,-2.15011998142999,0.7740466185312749,0.0017024430309344751,2607035.0,41.111372658652186,0.13624345719520647,-0.01087905211860174,2610570.0,,,,,2613.3098006330533,2609.774800633053,
161,46,24,m,1,4,153.0,1,2,low,9 + 4 + 5 + 1 - 1,18,19,17,18,2624.9297179999994,2626.957810700056,2628.4736150000244,2633.4912826000946,2634.167293800041,2634.1672987000784,2635.68384520011,2636.7007537001045,e,18.0,0.6760111999465153,1,+1,824,27.994507788828333,-0.04784275918638281,0.0012076736574559988,2622196.0,-51.23543051306843,1.1939186889685365,-0.24792449750757428,2625730.0,,,,,2628.469800633053,2624.935800633053,
162,46,24,m,1,4,154.0,2,3,high,3 + 1 + 6 - 8 + 9,11,11,13,12,2638.217609800049,2640.244658100069,2641.7598765,2646.7781175000127,2647.519298100029,2647.519303700072,2649.0359798000427,2650.053339300095,q,11.0,0.7411806000163779,1,+10,834,15.42948416220849,0.3770745833535094,0.010257379626613217,2635482.0,8.622936884232896,0.1364694514945315,0.06312523731129827,2639017.0,,,,,2641.756800633053,2638.221800633053,
163,46,24,m,1,4,155.0,3,2,high,3 + 8 - 5 + 1 + 1,8,9,6,8,2651.5703518000664,2653.598038200056,2655.113250800059,2660.131138000055,2660.655249100062,2660.6552543001017,2662.172925400082,2663.190520800068,e,8.0,0.5241111000068486,1,+10,844,24.500910452679854,0.04843897223330762,0.023146214301019263,2648836.0,6.945042792284127,0.6452623382243572,0.17597671006550897,2652369.0,,,,,2655.1088006330533,2651.575800633053,
164,46,24,m,1,4,156.0,4,3,low,8 + 6 - 7 + 1 - 4,4,5,3,4,2664.707769000088,2666.7357247000327,2668.2511107000755,2673.2701695000287,2673.7992174000246,2673.7992225000635,2675.3159880000167,2676.332289400045,e,4.0,0.5290478999959305,1,+1,845,23.832045622891563,0.14435076317582585,-0.07996770679089016,2661973.0,-46.35023890404729,1.3734753482628568,0.08089219856267182,2665507.0,,,,,2668.246800633053,2664.712800633053,
165,46,24,m,1,4,157.0,5,1,low,9 + 8 + 1 + 1 - 1,18,18,17,19,2677.848770600045,2679.875464400044,2681.390108300024,2686.4081955000293,2686.9432313001016,2686.943236900028,2688.4598979,2689.477007700014,q,18.0,0.5350358000723645,1,+1,846,6.9022078045233926,0.01774902620503349,-0.029789222463548537,2675113.0,-18.41508822035626,0.5516182510477861,-0.060115248784924136,2678646.0,,,,,2681.3858006330533,2677.852800633053,
166,46,24,m,1,4,158.0,6,1,low,3 + 1 + 8 + 1 + 1,14,13,14,12,2690.993556200061,2693.019273400074,2694.5345041000983,2699.5524791000644,2700.095223100041,2700.095228500082,2701.6116703000152,2702.628536400036,w,14.0,0.5427439999766648,1,+1,847,24.283734733024836,0.08699391268242929,0.019429659866466498,2688257.0,29.092274344356216,1.0332072794741287,0.2570640592983049,2691790.0,,,,,2694.529800633053,2690.996800633053,
167,46,24,m,1,4,159.0,7,3,high,7 + 1 + 9 + 5 - 6,16,15,14,16,2704.1455995000438,2706.171413000091,2707.686679400038,2712.705005700001,2713.703237400041,2713.703243000084,2715.219825300039,2716.2370562000438,e,16.0,0.9982317000394688,1,+10,857,31.914794196854647,-0.28330013149685085,0.052302774613811165,2701409.0,-10.725555257007702,-0.2628918922102752,0.2561779069281842,2704943.0,,,,,2707.6828006330534,2704.1488006330533,
168,46,24,m,1,4,160.0,8,1,high,5 + 8 - 1 + 1 + 1,14,14,16,12,2717.7535703000613,2719.778459400055,2721.293767800089,2726.311972200056,2726.9111465000315,2726.911151800072,2728.4275289000943,2729.444741900079,q,14.0,0.5991742999758571,1,+10,867,11.830254528688684,0.0747484735801609,-0.06595452519542233,2715016.0,-8.194068406739865,0.45956157556398214,0.09587413265663858,2718550.0,,,,,2721.2898006330533,2717.7558006330532,
169,46,24,m,1,4,161.0,9,1,high,6 + 9 + 1 + 1 - 1,16,15,14,16,2730.961552300025,2732.9866454000585,2734.501860200078,2739.5202201000648,2740.183099000016,2740.183104100055,2741.6995093000587,2742.7170366001083,e,16.0,0.6628788999514654,1,+10,877,12.596685682150799,0.10664308662683109,-0.08594863122747931,2728224.0,48.47389667173303,-0.13375235540265162,0.0031699569300358554,2731757.0,,,,,2734.496800633053,2730.9638006330533,
170,46,24,m,1,4,162.0,10,2,low,9 + 4 - 6 + 1 - 1,7,7,9,8,2744.2338144000387,2746.261524800095,2747.776781900088,2752.7951270000776,2753.447111000074,2753.4471164999995,2754.963708000025,2755.9806424001,q,7.0,0.6519839999964461,1,+1,878,1.0850112098622464,0.23737777995112852,-0.20664723901918558,2741499.0,-28.144447413715486,1.0806283835730843,0.16247667304051117,2745033.0,,,,,2747.772800633053,2744.238800633053,
171,46,24,m,1,4,163.0,11,1,high,5 + 6 + 1 + 1 + 1,14,13,14,16,2757.497759500053,2759.524662800017,2761.039965000004,2766.058331600041,2766.631042800029,2766.6310508000897,2768.1480685001006,2769.165333300014,w,14.0,0.5727111999876797,1,+10,888,12.30789068875359,-0.28825003640536284,-0.05840167884623004,2754761.0,2.470131643394815,-0.734182384951442,0.31766180346836936,2758296.0,,,,,2761.035800633053,2757.500800633053,
172,46,24,m,1,4,164.0,12,2,high,4 + 7 + 1 + 1 - 8,5,7,4,5,2770.6822255000006,2772.709573500091,2774.2249446000205,2779.2431006000843,2779.871071100002,2779.8710763000418,2781.387687000097,2782.404869500082,e,5.0,0.6279704999178648,1,+10,898,-8.547546121025121,0.3069012442547532,0.029070327335444457,2767947.0,-6.044090916271244,0.5544186981574057,0.1377310980885187,2771481.0,,,,,2774.2208006330534,2770.6868006330533,
173,46,24,m,1,4,165.0,13,1,high,6 + 1 + 1 + 7 - 1,14,14,13,12,2783.9216727000894,2785.948669600068,2787.4639821000164,2792.483795600012,2793.1109619000927,2793.1109669000143,2794.627406100044,2795.6446682000533,q,14.0,0.6271663000807166,1,+10,908,-28.075123651682066,0.08734417582324783,-0.019283998420958515,2781186.0,56.798740000033085,0.012019926223399757,0.08106825111944849,2784721.0,,,,,2787.460800633053,2783.9258006330533,
174,46,24,m,1,4,166.0,14,2,low,6 + 1 + 8 + 7 - 1,21,23,21,19,2797.1615955000743,2799.189111600048,2800.705016200081,2805.723189400044,2806.263133100001,2806.2631385000423,2807.77977220004,2808.7966726000886,w,21.0,0.5399436999578029,1,+1,909,-3.2334422712287383,-1.3532296272047475,0.004755662219537493,2794427.0,2.018608048541302,-0.09002610869519678,0.046461988968736545,2797961.0,,,,,2800.700800633053,2797.1668006330533,
175,46,24,m,1,4,167.0,15,1,high,2 + 1 + 9 + 1 - 1,12,12,11,13,2810.3131383000878,2812.3399181000423,2813.8552609001053,2818.8753323000856,2819.471060800017,2819.4710660000565,2820.9877155000577,2822.005157000036,q,12.0,0.5957284999312833,1,+10,919,-27.58251424474927,0.2293687323261704,-0.033760903950829535,2807577.0,0.2139272016063174,0.7290807511439916,0.011452352484422335,2811113.0,,,,,2813.852800633053,2810.3168006330534,
176,46,24,m,1,4,168.0,16,4,low,6 + 5 - 7 + 8 - 9,3,5,3,4,2823.5221607000567,2825.5479890001006,2827.06321250007,2832.0832429000875,2833.5910048000515,2833.591010100092,2835.107560400036,2836.1245050000725,w,3.0,1.5077618999639526,1,+1,920,-26.228034444950815,0.282013565133846,-0.05659051345501376,2820785.0,-44.82670390366719,0.7949422786574667,0.0014778608707943786,2824321.0,,,,,2827.060800633053,2823.524800633053,
177,46,24,m,1,4,169.0,17,2,low,8 + 1 + 1 + 9 - 4,15,14,16,15,2837.6420796000166,2839.668912100024,2841.184195000096,2846.203122600098,2847.8629678,2847.862973200041,2849.379900100059,2850.397416800028,q,14.0,1.6598451999016106,0,+0,920,-22.653155519675256,-0.006282943895691506,0.0192958673395216,2834906.0,4.012332719631515,0.3830294625220221,0.3383469887300965,2838441.0,,,,,2841.180800633053,2837.645800633053,
178,46,24,m,1,4,170.0,18,3,high,3 - 7 + 5 + 1 + 9,11,13,12,11,2851.913962500053,2853.9388655000366,2855.4541668000165,2860.47402980004,2862.638916300028,2862.638921600068,2864.15558250004,2865.172918500029,w,12.0,2.164886499987915,0,+0,920,18.318419419649604,0.017941075428811182,-0.010246691036400968,2849177.0,-4.714359994616785,0.5522431387307787,0.042060807899542585,2852711.0,,,,,2855.450800633053,2851.9168006330533,
179,46,24,m,1,4,171.0,19,2,low,2 + 9 + 1 + 1 - 5,8,7,8,6,2866.689396200003,2868.7161189001054,2870.2314595000357,2875.251496400102,2876.0788020000327,2876.0788079000777,2877.595502600074,2878.6122933001025,w,8.0,0.8273055999306962,1,+1,921,-6.687477019955905,0.24513088026518526,-0.16040397267947837,2863953.0,-9.474684409507176,0.1259221108237183,0.21145837041630133,2867489.0,,,,,2870.228800633053,2866.692800633053,
180,46,24,m,1,4,172.0,20,3,high,4 + 1 + 8 + 9 - 5,17,19,17,18,2880.1292911000783,2882.156623100047,2883.671957200044,2888.690151100047,2889.17482090008,2889.174826100003,2890.691285700072,2891.7086150000105,w,17.0,0.4846698000328615,1,+10,931,-17.784357529563344,-0.030257206196766084,-0.027999558770691824,2877394.0,26.481352717534914,0.9248893694661549,0.3585525004666634,2880927.0,,,,,2883.6668006330533,2880.133800633053,
181,46,24,m,1,4,173.0,21,2,low,6 + 1 + 7 + 5 - 1,18,18,17,16,2893.225697100046,2895.253182100016,2896.768211800023,2901.787887100014,2902.510821800097,2902.5108269000198,2904.027264400036,2905.044060900109,q,18.0,0.7229347000829875,1,+1,932,23.924718847021303,0.4209767198928138,0.06062988008099479,2890490.0,-4.699598981786325,0.06602585071051248,0.15896366287099406,2894025.0,,,,,2896.7648006330533,2893.229800633053,
182,46,24,m,1,4,174.0,22,2,low,5 + 8 + 1 - 1 + 9,22,21,22,23,2906.5609332000604,2908.585104900063,2910.10027740011,2915.118298400077,2915.734724100097,2915.734729400021,2917.2515824000584,2918.268234200077,w,22.0,0.616425700020045,1,+1,933,6.37170089957678,-0.3292765013150323,0.01353867582379964,2903822.0,5.5174486750474525,-0.361276845046274,0.07575170596962333,2907355.0,,,,,2910.094800633053,2906.5618006330533,
183,46,24,m,1,4,175.0,23,2,high,4 + 8 + 1 + 1 - 5,9,9,11,8,2919.785473300028,2921.813274300075,2923.328605200048,2928.346831000061,2929.830788000021,2929.8307937000645,2931.347369800089,2932.3647216000827,q,9.0,1.4839569999603557,1,+10,943,11.867911212895336,-0.21904105692874154,0.056149264044564884,2917050.0,30.739585095304,1.0966230849294272,0.04107582302590518,2920584.0,,,,,2923.323800633053,2919.7898006330533,
184,46,24,m,1,4,176.0,24,2,low,7 + 8 + 1 + 9 + 1,26,24,26,25,2933.881246900069,2935.9094514000462,2937.4245204000035,2942.4430597000755,2942.902766200016,2942.9027716000564,2944.419287100085,2945.4359384001,w,26.0,0.4597064999397844,1,+1,944,15.331636737841944,-0.3110196697180969,-0.008553459909157457,2931146.0,-47.111745570137245,-0.33699377697707167,0.3572063259631524,2934680.0,,,,,2937.419800633053,2933.8858006330533,
185,46,24,m,1,4,177.0,25,3,high,7 + 5 + 9 + 1 - 6,16,16,14,15,2946.9536401000805,2948.982323900098,2950.497548500076,2955.516001500073,2958.0307633000198,2958.0307691000635,2959.547366300016,2960.5645220000297,w,14.0,2.514761799946428,0,+0,944,44.031431747870236,0.45413093325475407,-0.0809844213039792,2944219.0,9.223244981078837,-0.3196489122034327,0.19095640486964194,2947753.0,,,,,2950.4928006330533,2946.958800633053,
186,46,24,m,1,4,178.0,26,1,high,6 + 9 + 1 + 1 - 1,16,14,15,16,2962.0812663000543,2964.105572800036,2965.621225700015,2970.639471500064,2971.254722700105,2971.2547281000298,2972.770986000076,2973.788126800093,e,16.0,0.6152512000408024,1,+10,954,-14.373008145896033,0.37380309775198217,-0.0016720362464066607,2959342.0,13.8036333300329,0.21704175726285158,-0.0674196332931416,2962876.0,,,,,2965.6158006330534,2962.0818006330533,
187,46,24,m,1,4,179.0,27,2,low,4 + 9 + 1 - 7 - 1,6,5,8,6,2975.30492200004,2977.332848500111,2978.8481105000246,2983.866413300042,2984.358709000051,2984.35871410009,2985.875290099997,2986.8924478000263,e,6.0,0.4922957000089809,1,+1,955,-19.83470732090315,-0.06655324355044234,-0.06715503282933888,2972570.0,-26.910242917231365,1.4785610697142628,0.0028662168990765124,2976103.0,,,,,2978.8428006330532,2975.3098006330533,
188,46,24,m,1,4,180.0,28,2,low,5 - 1 + 1 + 8 + 9,22,23,22,21,2988.4091330000665,2990.434838000103,2991.950055400026,2996.967851000023,2997.4547085000668,2997.4547141001094,2998.9720722000347,2999.9888816000894,w,22.0,0.4868575000436976,1,+1,956,8.11391100289876,-0.38577245293918905,-0.03287430436631644,2985672.0,-14.834229920628655,0.2504113162511765,0.14053762275020665,2989205.0,,,,,2991.944800633053,2988.411800633053,
189,46,24,m,1,4,181.0,29,2,low,3 + 9 + 1 - 5 + 1,9,8,7,9,3001.50531300006,3003.5316651000176,3005.046712200041,3010.064731899998,3010.8465488000074,3010.846554100048,3012.363483800087,3013.380873200018,e,9.0,0.7818169000092894,1,+1,957,28.36498474067026,0.2191599315277224,0.01642281741398377,2998768.0,9.598119494728211,-0.01298542379228973,-0.031178531238229112,3002301.0,,,,,3005.040800633053,3001.507800633053,
190,46,24,m,1,4,182.0,30,3,low,5 + 7 + 1 - 4 + 6,15,15,13,17,3014.8974061000627,3016.9248543001013,3018.439993900014,3023.458406700054,3024.022718200111,3024.0227236000355,3025.5390451001003,3026.556396300089,q,15.0,0.5643115000566468,1,+1,958,-27.37644390759101,-0.5394760730695478,0.11933000843172414,3012162.0,23.322769995540007,2.1927962611912966,0.035902791447645965,3015695.0,,,,,3018.4348006330533,3014.901800633053,
191,46,24,m,1,4,183.0,31,4,low,5 + 6 - 4 + 7 + 9,23,23,25,24,3028.072990800021,3030.0997597000096,3031.6149752000347,3036.6358132000314,3037.294519600109,3037.29452450003,3038.8121257000603,3039.829153000028,q,23.0,0.65870640007779,1,+1,959,3.052091611157717,0.05093584761473213,-0.024931335962228074,3025336.0,29.0060803926594,-0.03588533340455058,0.1330765282752251,3028872.0,,,,,3031.611800633053,3028.075800633053,
192,46,24,m,1,4,184.0,32,4,low,7 + 8 - 4 + 6 - 5,12,13,12,11,3041.345916700084,3043.369385100086,3044.8843245001044,3049.904436900048,3050.3985274001025,3050.3985327000264,3051.915052900091,3052.932235500077,w,12.0,0.494090500054881,1,+1,960,37.548444023127644,-0.05371416643121396,0.005255191115191682,3038606.0,-10.876222690119786,0.5512813725757613,-0.011346739362852354,3042141.0,,,,,3044.8808006330532,3041.3458006330534,
193,46,24,m,1,4,185.0,33,4,high,5 + 7 - 4 + 6 + 9,23,23,25,24,3054.448689800105,3056.4761902000755,3057.9913842000533,3063.009792200057,3063.6225079,3063.6225130000385,3065.138891500072,3066.156525700004,q,23.0,0.6127156999427825,1,+10,970,-3.1325374260082857,-0.5390606026248248,0.016390962359311922,3051713.0,22.247384786438584,0.8714517028877995,0.05001285632159713,3055246.0,,,,,3057.9858006330533,3054.4528006330534,
194,46,24,m,1,4,186.0,34,1,low,5 + 6 + 1 + 1 + 1,14,14,16,15,3067.6730501001,3069.7017315000994,3071.216802100069,3076.2342629000777,3076.742543300032,3076.742548700073,3078.258867900004,3079.275898000109,q,14.0,0.5082803999539465,1,+1,971,-8.823720665203993,-0.4049314896536851,0.010863093540881552,3064938.0,-2.16476714569986,-0.24543061955666312,0.06395004653413716,3068471.0,,,,,3071.210800633053,3067.6778006330533,
195,46,24,m,1,4,187.0,35,2,high,2 + 9 - 4 + 1 + 1,9,9,8,11,3080.792830300052,3082.818526100018,3084.333740100032,3089.3518225000007,3089.926546700066,3089.926552200108,3091.442843100056,3092.4612272001104,q,9.0,0.5747242000652477,1,+10,981,3.6633192847562306,0.07260610146209778,0.03448888224118862,3078055.0,21.735263607308852,-0.2286920027281334,0.35216052589632496,3081588.0,,,,,3084.3278006330534,3080.794800633053,
196,46,24,m,1,4,188.0,36,1,low,5 + 9 - 1 + 1 + 1,15,15,13,17,3093.978053000057,3096.0052832000656,3097.520440799999,3102.538808000041,3103.08650450001,3103.086510000052,3104.6029170000693,3105.619852200034,q,15.0,0.5476964999688789,1,+1,982,15.523373865055156,-0.680962995763061,-0.06995602160685133,3091242.0,-9.861779180267686,-0.22761189538584148,-0.014267587028925277,3094775.0,,,,,3097.5148006330533,3093.9818006330534,
197,46,24,m,1,4,189.0,37,1,high,4 + 7 + 1 - 1 - 1,10,9,10,11,3107.1366784001,3109.1638067000317,3110.6790749001084,3115.696855000104,3116.230398700107,3116.2304038000293,3117.7469684000826,3118.764317200053,w,10.0,0.5335437000030652,1,+10,992,-14.860608570162935,-0.16552504834832416,0.17671846903845312,3104400.0,29.940954684040392,0.14769794665913505,-1.0498932995657082,3107934.0,,,,,3110.6738006330534,3107.1398006330533,
198,46,24,m,1,5,190.0,0,3,low,5 + 6 + 7 - 1 - 9,8,8,7,9,3150.7225855001016,3152.74762550008,3154.262862100033,3159.28295490006,3161.3343300001,3161.3343357000267,3162.850827700109,3163.8678149000043,e,9.0,2.051375100039877,0,+0,992,-15.711188257362998,-0.49250488536727,0.27651512387939614,3147984.0,-11.406218671104373,0.29424675792209154,0.07313658095070252,3151519.0,,,,,3154.258800633053,3150.723800633053,
199,46,24,m,1,5,191.0,1,4,high,5 + 8 - 6 + 7 + 4,18,17,19,18,3165.384513600031,3167.411131700035,3168.926567000104,3173.945200800081,3174.7182717000837,3174.7182772000087,3176.2348906000843,3177.252631600015,e,18.0,0.7730709000024945,1,+10,1002,25.47704413828977,0.29886542073908795,0.08719723351480813,3162647.0,19.71587613311544,0.9900830205701472,0.17400427728020063,3166181.0,,,,,3168.920800633053,3165.386800633053,
