,id,age,sex,cued,block,trial,trialinblock,efflev,rewlev,calc,corAns,option1,option2,option3,tstart,ITI1Time,probTime,respTime,selectTime,ITI2Time,fbTime,ITI3Time,key_press,chosenAns,RT,acc,feedback,total_points,cuescr,cuecor,cuezyg,cuetime,probscr,probcor,probzyg,probtime,fbscr,fbcor,fbzyg,fbtime,probtime_c,cuetime_c,fbtime_c
0,47,20,M,0,Practice,,0,1,0,4 + 1 + 9 + 1 + 1,16,14,16,15,272.7185218000086,,272.7185240000253,277.74633300001733,279.1227141000563,279.12272079999093,280.6399100000272,281.66078969999216,w,16,1.3763811000389978,1,Correct,0,,,,,1.100168303546794,-1.049467159726504,0.03419745769880245,38235.0,-3.915788159380762,-0.20746298012570463,0.10732997777212949,46150.0,272.7302498605209,,280.6452498605209
1,47,20,M,0,Practice,,1,1,0,3 + 1 + 1 + 8 - 1,12,12,11,10,283.17747029999737,,283.17747320001945,288.1982793000061,289.4268183000386,289.42682459997013,290.9439537000144,291.9619408000726,q,12,1.2285390000324696,1,Correct,0,,,,,-12.005217801902573,-2.0085805058609214,-0.026953934705892024,48687.0,15.555717019857036,1.0212167276066229,0.21385558067114308,56451.0,283.1822498605209,,290.94624986052094
2,47,20,M,0,Practice,,2,2,0,8 + 1 + 6 + 1 - 4,12,11,10,12,293.4796887000557,,293.479694699985,298.49962520005647,299.5786644000327,299.578670399962,301.0960017000325,302.1140603000531,e,12,1.0790391999762503,1,Correct,0,,,,,-7.216007172288408,-0.8309515963646099,-0.11921066209046005,58988.0,3.48327034897863,0.17982880423520697,0.13928931739022188,66603.0,293.4832498605209,,301.0982498605209
3,47,20,M,0,Practice,,3,2,0,9 + 4 - 6 + 1 - 1,7,6,5,7,303.6350176000269,,303.6350207000505,308.65537459996995,310.722786600003,310.72279280005023,312.23939490003977,313.2563834000612,e,7,2.067412000033073,1,Correct,0,,,,,10.183674788482191,4.019194736080501,-0.12319058905017544,69144.0,-6.03898303622983,-0.9491383657742158,0.12066382074363613,77745.0,303.6392498605209,,312.2402498605209
4,47,20,M,0,Practice,,4,3,0,9 + 3 - 5 + 6 + 7,20,22,20,21,314.7732396000065,,314.77324260002933,319.7923107000533,320.92254110006616,320.9225463999901,322.4389174999669,323.45575119997375,w,20,1.130230400012806,1,Correct,0,,,,,14.224743810486386,2.096298449120174,-0.09254193480168604,80281.0,-25.35402413108222,-0.1688017249375111,0.1677856351574094,87945.0,314.7762498605209,,322.4402498605209
5,47,20,M,0,Practice,,5,3,0,2 + 1 + 9 - 7 + 6,11,11,10,9,324.9726236000424,,324.97262660006527,329.99157860002015,331.16260390006937,331.16260939999484,332.67945629998576,333.6971868000692,q,11,1.171025300049223,1,Correct,0,,,,,7.589518437416219,0.8142432288604828,0.3608412860424526,90480.0,-26.96611885908708,0.6643163046204617,-0.047094859934698974,98186.0,324.97524986052093,,332.6812498605209
6,47,20,M,0,Practice,,6,4,0,4 + 8 + 5 - 3 + 7,21,23,22,21,335.2141150999814,,335.21411810000427,340.2347058999585,340.9066739999689,340.9066803000169,342.4237248999998,343.4419540000381,e,21,0.6719681000104174,1,Correct,0,,,,,21.37927681226403,-1.3714154432182077,-0.03537214063310756,100723.0,-10.937101435252774,0.23247401262790035,-0.021521839168931578,107931.0,335.2182498605209,,342.4262498605209
7,47,20,M,0,Practice,,7,4,0,5 + 8 - 4 + 6 + 9,24,22,24,23,344.9594337999588,,344.95943679998163,349.97934239997994,351.07465480000246,351.0746663999744,352.5921338000335,353.61018930003047,w,24,1.0953124000225216,1,Correct,0,,,,,15.50812478737933,-0.517183379032156,-0.00986522233904985,110468.0,-12.213080798254115,-0.6025087298843044,0.17063291166923533,118099.0,344.96324986052093,,352.5942498605209
8,47,20,M,1,0,0.0,0,1,low,3 + 1 + 9 + 1 + 1,15,17,15,14,439.0560807000147,441.08230770006776,442.59748380002566,447.6159187000012,448.2961176000536,448.2961232999805,449.8128782999702,450.8307391999988,w,15,0.6801989000523463,1,+1,1,14.98429068718221,-1.1940273922255908,-0.7285167791668474,204571.0,20.531159544428437,0.8349183695682338,1.1843817973916426,208104.0,18.802349010127454,-1.1993046085903192,1.5240325227325116,215318.0,442.5992498605209,439.0662498605209,449.81324986052095
9,47,20,M,1,0,1.0,1,4,low,5 + 7 - 4 - 6 + 9,11,12,11,13,452.3477369999746,454.3749088000041,455.8902230999665,460.9084122000495,461.8881107000634,461.8881163999904,463.4049043999985,464.42152249999344,w,11,0.9796985000139102,1,+1,2,-22.325024991444444,-1.205944312508878,-5.477855447268091,217863.0,9.355052886759395,-0.1745863127888656,-0.16107694169862485,221397.0,32.34858957801016,1.1128085375324055,-0.01646951407777486,228910.0,455.8922498605209,452.3582498605209,463.40524986052094
10,47,20,M,1,0,2.0,2,2,low,4 + 8 + 1 + 1 - 5,9,9,8,11,465.93872830003966,467.9678493000101,469.4830783000216,474.5015396999661,475.19208860001527,475.1920942000579,476.7084348000353,477.72544910002034,q,9,0.6905489000491798,1,+1,3,-24.98129115374971,0.16288262186463243,-0.5070700812801143,231456.0,10.923529416970267,1.394682474950411,-0.0747561173995619,234990.0,-12.900770581234635,1.813315761259287,0.07497218560612318,242214.0,469.4852498605209,465.9512498605209,476.7092498605209
11,47,20,M,1,0,3.0,3,3,low,3 - 7 + 5 + 1 + 9,11,12,11,13,479.2422585999593,481.27001129998825,482.7852895000251,487.80389640002977,489.0401067000348,489.0401120999595,490.5568252999801,491.5739203999983,q,12,1.236210300005041,0,+0,3,7.284397561847989,-1.5114431861241293,0.14745033889091363,244759.0,26.060069883328964,1.3729490867863259,0.14651004946540347,248292.0,-33.281379905950445,0.8512629589494676,0.006425324569766744,349853.0,482.7872498605209,479.2542498605209,584.3482498605209
12,47,20,M,1,0,4.0,4,1,high,4 + 9 + 1 - 1 - 1,12,12,13,11,493.0908676000545,495.1151105000172,496.63035630004015,501.648645700072,502.2239520000294,502.22395700006746,503.7406469000271,504.7583612999879,q,12,0.5753062999574468,1,+10,13,12.530353671048005,-1.8177940526698038,0.03090672104880543,258604.0,10.00977479970321,-3.825840283689926,-0.0016254251903533579,262137.0,2.6669774937006157,-0.7507659452831792,-0.24539178929271666,269246.0,496.6322498605209,493.0992498605209,503.7412498605209
13,47,20,M,1,0,5.0,5,4,low,4 + 7 + 9 - 5 + 7,22,23,24,22,506.2751748000737,508.3029168000212,509.8182188000064,514.8370273000328,515.615929099964,515.6159345000051,517.1324339000275,518.1491677999729,e,22,0.7789017999311909,1,+1,14,24.658720794313727,-1.0688057045282022,-0.2524973513951996,271791.0,-0.6431109962723749,1.6187469484366632,0.0685006713258276,275325.0,9.905043136291436,-1.90537001951978,-0.0853723277790599,282638.0,509.8202498605209,506.2862498605209,517.1332498605209
14,47,20,M,1,0,6.0,6,1,low,5 + 9 - 1 + 1 + 1,15,15,17,13,519.6658435000572,521.6937243000139,523.2085695000133,528.2275261000032,528.8878547999775,528.8878598000156,530.4045293000527,531.4212685000384,q,15,0.6603286999743432,1,+1,15,-0.9037478216643002,1.7311605357996376,-0.20521802362498454,285182.0,3.8555411079437434,-1.8084376491218457,0.005357514514494621,288715.0,32.88599758003595,1.075025483899867,-0.9157081339109969,295910.0,523.2102498605209,519.677249860521,530.4052498605209
15,47,20,M,1,0,7.0,7,4,low,7 + 6 + 8 - 4 + 5,22,21,23,22,532.9381012000376,534.963507700013,536.4788154000416,541.4977628999623,542.2079178000567,542.2079231999815,543.7338531999849,544.7510241999989,w,23,0.7101549000944942,0,+0,15,14.395601276866373,-0.4990177290055158,-0.1834629613065597,298452.0,4.982324874219483,-1.6216615101661809,-0.05266821650443809,301986.0,10.992722794594041,0.19187268193155838,0.22739565865123978,323182.0,536.4812498605208,532.947249860521,557.677249860521
16,47,20,M,1,0,8.0,8,4,high,6 + 7 + 9 - 3 + 5,24,23,24,22,546.2679547000444,548.295387799968,549.8107561999932,554.8453207999701,556.1598863999825,556.1598917000229,557.6765981999924,558.6936793000204,w,24,1.314565600012429,1,+10,25,-7.988299858817429,-0.3482497842068284,0.052165550009640516,311783.0,-8.094206136443987,0.4144362902692542,-0.1374670123874404,315334.0,-35.111804926766325,-0.2723770257971232,0.10560212548999903,336551.0,549.8292498605209,546.2782498605209,571.0462498605209
17,47,20,M,1,0,9.0,9,4,high,9 + 7 - 5 + 8 + 6,25,27,25,24,560.2104432999622,562.234718700056,563.750158400042,568.7688143000705,569.5278892000206,569.5278947000625,571.0448864999926,572.0624054999789,w,25,0.7590748999500647,1,+10,35,5.132481756185743,-0.006283070017122583,-0.10303087315363468,325723.0,10.56078999744836,-2.0827616013074524,0.13081480680260826,329257.0,4.958537271658766,-0.18369910429664849,0.17871225552308267,376254.0,563.7522498605209,560.2182498605209,610.7492498605209
18,47,20,M,1,0,10.0,10,3,low,2 + 1 + 9 - 5 + 6,13,11,14,13,573.57926030003,575.6046709000366,577.1195901000174,582.1378515000688,582.8319459999911,582.8319517000346,584.3484171000309,585.3654377000639,e,13,0.6940944999223575,1,+1,36,5.975027721059715,-0.6433660640475178,0.33551530037955746,339093.0,3.0119878996831986,1.114673922873922,0.025271101674039897,342626.0,17.703461951654262,-0.6072333350816965,0.062464118486938336,363038.0,577.121249860521,573.5882498605209,597.533249860521
19,47,20,M,1,0,11.0,11,3,high,8 + 6 - 7 + 1 - 4,4,4,5,3,586.8822869000724,588.9077211000258,590.4229972000467,595.4433408000041,596.0157798000146,596.0157850000542,597.5325252000475,598.5499719000654,q,4,0.5724390000104904,1,+10,46,-15.758053026231162,-4.048232400372559,0.2555082528598662,352396.0,-11.786077161533811,0.3870835741419487,0.012101356834513854,355931.0,-10.801494246560363,-1.9765150928207351,0.06281066863829299,389525.0,590.4262498605209,586.8912498605209,624.0202498605208
20,47,20,M,1,0,12.0,12,4,high,3 + 8 - 7 + 9 - 5,8,9,7,8,600.0667793999892,602.0893446999835,603.6043166000163,608.6245878000045,609.23177329998,609.2317819000455,610.7482658000663,611.7656975999707,e,8,0.6071854999754578,1,+10,56,5.2460260825596405,-0.0710104966451901,-0.015047510192810698,365577.0,3.3733595292683054,1.033745026660288,-0.15013804486989057,369113.0,23.902383892591956,0.27883336003674764,0.38763534722698045,815212.0,603.6082498605209,600.072249860521,1049.707249860521
21,47,20,M,1,0,13.0,13,3,low,6 - 1 + 7 - 8 + 9,13,11,13,12,613.2836728000548,615.306297400035,616.8215386000229,621.8406010000035,622.5037500000326,622.503755300073,624.0202686999692,625.0371627999702,w,13,0.6631490000290796,1,+1,57,11.958838697677544,-0.34082820212924325,0.04493080709954844,378794.0,3.759540574477246,-1.5852950146174551,-0.01716657065139149,382329.0,24.88001836182676,-0.5450339343360469,-0.22001975427320497,402789.0,616.8242498605209,613.2892498605208,637.284249860521
22,47,20,M,1,0,14.0,14,3,low,5 - 1 - 4 + 6 + 7,13,14,15,13,626.5538504000288,628.5757747000316,630.090936499997,635.1095799000468,635.7677838000236,635.7677893000655,637.2844600999961,638.3013813999714,e,13,0.6582038999767974,1,+1,58,-20.00011803003035,-2.236557604486011,0.4279432634030562,392064.0,22.017003386249193,1.255579268685361,-0.030853742257548777,395598.0,4.013997615302152,2.0155056666320945,0.1896214347186833,442854.0,630.0932498605209,626.5592498605209,677.3492498605209
23,47,20,M,1,0,15.0,15,2,high,8 + 1 + 1 + 9 - 4,15,14,15,16,639.8181258999975,641.8421093999641,643.357444299967,648.3757268000627,648.9837590999668,648.983764500008,650.5002316000173,651.5175365000032,w,15,0.6080322999041528,1,+10,68,-10.904172772786712,1.4242641410203483,-0.018893921855017037,405330.0,20.27952123451707,0.8024133144609493,-0.06726680034795685,408864.0,-11.143583887222277,-0.14296686652843782,0.20743421304047294,416005.0,643.3592498605209,639.8252498605209,650.5002498605209
24,47,20,M,1,0,16.0,16,3,low,7 - 1 + 9 - 5 + 4,14,15,13,14,653.0346328000305,655.0633694999851,656.5786931000184,661.5980284999823,662.6156789000379,662.6156840999611,664.1322703000624,665.1495025999611,q,15,1.0176504000555724,0,+0,68,-0.35578146299753044,-0.9258612911319375,0.0457848629243065,418551.0,-19.853586957071123,-2.1507482013612638,0.17068061282631852,422085.0,-1.6414240785919034,-0.07238570857541049,0.0019103693754423112,456269.0,656.5802498605209,653.0462498605209,690.764249860521
25,47,20,M,1,0,17.0,17,3,high,4 + 8 - 3 + 5 - 1,13,13,14,12,666.6662143999711,668.6911992999958,670.2062632000307,675.2245698999614,675.8317194000119,675.8317246000515,677.3484310000204,678.3659087000415,q,13,0.607149500050582,1,+10,78,19.05754709973411,-0.1464053034986641,0.15504699038987235,432179.0,47.92445522668804,0.30979304331010127,0.31920719553763455,435713.0,-15.215039521898058,-0.13307870902963082,-0.3085254307922889,499845.0,670.2082498605209,666.6742498605208,734.340249860521
26,47,20,M,1,0,18.0,18,3,low,4 + 1 + 8 + 9 - 5,17,18,17,19,679.8831041000085,681.908676299965,683.4237206999678,688.4422008000547,689.2476199000375,689.2476251999615,690.7642274000682,691.7816338000121,w,17,0.8054190999828279,1,+1,79,14.137838946337634,1.8600888509856537,-0.0012228777942833169,445396.0,15.22537915760045,0.05102012547893153,0.04890018789776862,448930.0,13.615817675618597,-0.6342479013716336,-0.06244743055201463,513053.0,683.4252498605209,679.8912498605209,747.5482498605209
27,47,20,M,1,0,19.0,19,2,high,5 - 8 + 7 + 1 + 1,6,6,7,8,693.2980798999779,695.3254136999603,696.8406161000021,701.8591796000255,704.223621699959,704.2236269999994,705.7407618999714,706.7581051000161,q,6,2.3644420999335125,1,+10,89,-22.57660463876409,0.788375319570843,-0.16521059551897244,458813.0,-3.3479150724376066,2.0462467616497095,-0.1178510885502746,462347.0,-13.228536674719773,0.5737838762640557,-0.060112372821512494,471246.0,696.842249860521,693.3082498605208,705.7412498605208
28,47,20,M,1,0,20.0,20,1,low,3 + 1 + 8 - 1 + 1,12,12,13,10,708.2745879000286,710.3010851000436,711.816301300074,716.8358243000694,719.4635922000743,719.4635973999975,720.9797053000657,721.9970020999899,q,12,2.627767900004983,1,+1,90,9.802683614446547,3.3061146004509343,-1.0769777575760853,473789.0,12.562694813741494,0.8044177501820222,-0.2456457186217622,477324.0,-15.975753005498039,-1.0536047863856464,0.06014066495814374,486485.0,711.8192498605209,708.284249860521,720.9802498605209
29,47,20,M,1,0,21.0,21,3,low,7 - 6 + 8 + 1 + 7,17,15,17,16,723.5140332999872,725.5409813000588,727.0562148999888,732.0752827000106,732.8236457000021,732.823651600047,734.3403615000425,735.3570989000145,w,17,0.7483629999915138,1,+1,91,41.26222568444514,-0.6727281235304474,0.06708132024830249,489029.0,-24.300142349995987,0.5632017111552141,-0.024718939940276297,492563.0,20.201203811403424,-1.7640231225296041,0.14072838876507343,526357.0,727.0582498605208,723.524249860521,760.8522498605209
30,47,20,M,1,0,22.0,22,3,high,4 + 7 + 1 + 9 - 5,16,17,16,18,736.8746278999606,738.8983450999949,740.4141267000232,745.4321061000228,746.0315842999844,746.0315901000286,747.548155699973,748.5654202000005,w,16,0.5994781999615952,1,+10,101,4.601905066058524,1.1816962586157453,0.15907605154846283,502386.0,25.380140055583723,0.7130664153760273,-0.19155776934720858,505920.0,8.17393957715349,0.5974441421863554,-0.25285956418231814,539645.0,740.4152498605209,736.8812498605209,774.140249860521
31,47,20,M,1,0,23.0,23,3,high,4 + 1 + 8 + 9 - 5,17,18,19,17,750.0819844000507,752.1053029999603,753.6203198999865,758.6385256999638,759.3355104000075,759.3355157000478,760.8519229000667,761.8691681000637,e,17,0.6969847000436857,1,+10,111,-8.64509531795537,-0.1925261496866355,0.005052242318396072,515592.0,19.893362998922,0.3706143991230215,0.024294858271338482,519126.0,24.109886428476706,-0.19693979291940789,-0.11671561818895304,566293.0,753.621249860521,750.0872498605208,800.7882498605209
32,47,20,M,1,0,24.0,24,3,low,6 + 1 + 8 + 7 - 9,13,14,13,15,763.3861369000515,765.4125182999996,766.9275860000635,771.9459693999961,772.6235389000503,772.623544299975,774.1401262000436,775.1569291000487,w,13,0.6775695000542328,1,+1,112,21.975504879005154,0.6902527952265141,0.07751979589035463,528901.0,-18.44393116168957,-0.12553287464759855,-0.04210084594678065,532434.0,-7.862356997630696,-0.9393147572550031,0.08748375267214348,608252.0,766.9292498605209,763.3962498605208,842.7472498605209
33,47,20,M,1,0,25.0,25,1,high,3 + 1 + 1 + 8 - 1,12,13,14,12,776.6736117000692,778.6991868000478,780.2142591000302,785.2334286000114,785.9435064999852,785.9435124000302,787.4598569000373,788.477310599992,e,12,0.7100778999738395,1,+10,122,-13.188532978672836,-2.574628435138429,0.4254476410873318,542187.0,9.165860913252983,1.512949123208288,-0.0012294271620030273,545721.0,38.675235553287436,-0.1370896367627754,0.09612779281842432,552965.0,780.216249860521,776.6822498605209,787.4602498605209
34,47,20,M,1,0,26.0,26,3,high,8 + 3 + 1 - 7 + 9,14,14,12,15,789.9949768000515,792.0202774000354,793.5352664999664,798.5540596999926,799.2714925999753,799.2714980000164,800.7881180000259,801.8053599999985,q,14,0.7174328999826685,1,+10,132,6.568967442081735,1.0596028472917425,0.17988793808127346,555508.0,-6.29131982134769,-0.8712104502845381,0.21958519727813597,559042.0,-16.01642223263181,-0.7223628027026274,-0.1059093038648582,700989.0,793.5372498605209,790.003249860521,935.484249860521
35,47,20,M,1,0,27.0,27,1,high,2 + 9 + 1 + 1 + 1,14,12,13,14,803.3218033000594,805.3481764000608,806.8634101999924,811.8814636999741,812.463428499992,812.4634342000354,813.9800455999793,814.9972076000413,e,14,0.5819648000178859,1,+10,142,-9.866941578621912,0.34122963486153246,0.015040128669042474,568836.0,-32.87950581969068,-0.1918565692098415,0.10903288777562814,572369.0,-32.12458696084385,1.1263368731371042,0.04403139056980243,579485.0,806.8642498605209,803.331249860521,813.9802498605209
36,47,20,M,1,0,28.0,28,1,high,8 - 1 + 1 + 6 + 1,15,16,15,14,816.5136705000186,818.5387910000281,820.0540426999796,825.1172146999743,825.7914430999663,825.7914487000089,827.3087819999782,828.3258156999946,w,15,0.6742283999919891,1,+10,152,7.137794108691777,-2.209927838420188,0.061779534397896185,582026.0,18.536612901365544,-0.9084522556293866,-0.41583669471556606,585605.0,-21.904499314095823,-0.0329960124375237,0.08349302353063548,592814.0,820.100249860521,816.5212498605208,827.3092498605208
37,47,20,M,1,0,29.0,29,3,low,4 + 8 - 9 + 1 + 7,11,9,13,11,829.8425820000703,831.8699733000249,833.3852587000001,838.4037239999743,841.231399100041,841.231404799968,842.7475313000614,843.7648164000129,e,11,2.827675100066699,1,+1,153,-3.039012572135417,-0.14778349428606852,0.10991870508614787,595357.0,28.730198601541662,0.25723151969957225,-0.2060556606568209,598891.0,14.70301854002825,0.47245403160571,1.1032173529554052,714177.0,833.3862498605208,829.8522498605209,948.6722498605209
38,47,20,M,1,0,30.0,30,2,low,7 + 1 + 9 - 1 - 8,8,7,6,8,845.2818981000455,847.3071294999681,848.8224759000586,853.8412467000308,854.4313253000146,854.4313305000542,855.947895099991,856.9646787999664,e,8,0.5900785999838263,1,+1,154,23.584399211871684,-1.8923979120918757,-2.057892119359001,610795.0,-1.925645928820357,-1.375481437112505,0.132862066085764,614329.0,-57.51366972754133,-1.2975175104871859,0.018643884592493443,621452.0,848.8242498605209,845.2902498605208,855.947249860521
39,47,20,M,1,0,31.0,31,1,low,2 + 1 + 9 + 1 - 1,12,13,11,12,858.4811948999995,860.50724549999,862.0229850000469,867.0420100999763,867.6632899000542,867.6632950999774,869.1797956000082,870.1974063999951,e,12,0.6212798000779003,1,+1,155,20.18369649230577,0.38376979532875666,0.005294996859131151,623995.0,-0.610697930821468,-0.8888020202714539,-0.06901709685039847,627530.0,3.878426241283959,-0.9811410893475196,0.06834000342393365,634684.0,862.025249860521,858.4902498605209,869.1792498605209
40,47,20,M,1,0,32.0,32,1,high,9 + 8 + 1 + 1 - 1,18,17,19,18,871.7144984999904,873.7408335000509,875.2560351999709,880.2741380999796,880.951225799974,880.9512306000106,882.4676999000367,883.4850031000096,e,18,0.6770876999944448,1,+10,165,20.51067948133209,-0.534124854654829,0.0928749836218754,637229.0,15.76930472778875,-1.3757492943846756,0.10499540030967447,640762.0,2.435071609958065,-1.4681964866970052,-0.014948217509191508,647972.0,875.2572498605209,871.724249860521,882.467249860521
41,47,20,M,1,0,33.0,33,1,high,6 + 9 + 1 + 1 - 1,16,14,15,16,885.0019305000314,887.0256817999762,888.5409668000648,893.5591098000295,894.1593089000089,894.15931430005,895.6757719999878,896.6931722000008,e,16,0.6001990999793634,1,+10,175,15.888534332782372,1.4845024635822064,2.037566763237248,650513.0,-5.809260401819259,2.2672526037091636,-11.154953940307912,654047.0,20.153500734525366,2.479283549256718,0.2033518346627985,661181.0,888.542249860521,885.0082498605209,895.676249860521
42,47,20,M,1,0,34.0,34,2,low,6 + 8 + 1 + 1 - 7,9,11,8,9,898.2099562999792,900.2375601000385,901.7528119999916,906.77166139998,907.4072075000732,907.407212399994,908.92372229998,909.940778200049,e,9,0.6355461000930518,1,+1,176,-24.620433724846492,0.516409276379366,-0.18412059862624774,663725.0,-67.87329807414919,-0.441944291079885,0.02436928819143036,667259.0,11.164873260469241,-0.53027407027602,0.07890756342989524,674428.0,901.754249860521,898.2202498605209,908.9232498605209
43,47,20,M,1,0,35.0,35,2,high,3 + 1 + 8 - 5 - 1,6,7,5,6,911.457541299984,913.4855259000324,915.0007193000056,920.0192561000586,920.6232124000088,920.6232176000484,922.139546600054,923.1567066999852,e,6,0.6039562999503687,1,+10,186,-12.755061363523584,-0.5293933702571527,0.04384567042152887,676973.0,10.330415582339231,1.6264262650234125,0.1391561126745413,680507.0,-15.390430669935071,-0.08162891450918952,-0.09739244231958066,687644.0,915.0022498605208,911.4682498605209,922.139249860521
44,47,20,M,1,0,36.0,36,3,low,5 + 7 + 1 - 4 + 6,15,13,15,17,924.6735470000422,926.7010603999952,928.2165289999684,933.2366143000544,933.9672727000434,933.967278599972,935.484495599987,936.501595000038,w,15,0.7306583999888971,1,+1,187,11.616543934168325,-1.2291545467889282,-0.1280512619029921,690188.0,-14.476399885445748,0.46162814667038,0.027639407302299857,693724.0,11.249951927940756,-1.5922148518315948,-0.028566223790530643,733949.0,928.2192498605209,924.6832498605208,968.4442498605208
45,47,20,M,1,0,37.0,37,3,high,8 - 1 + 6 - 7 + 5,11,13,12,11,938.0180714000016,940.0404562000184,941.5558512000134,946.5743361000204,947.1432191999628,947.1432244000024,948.6721255000448,949.6892285000068,e,11,0.5688830999424681,1,+10,197,1.6349219128815333,-0.85309059950447,-1.00936714027787,703528.0,20.59572556986771,0.283328347051933,-0.048162974861782004,707062.0,-31.88392082533096,1.1457875151113246,0.27115957340826013,841612.0,941.5572498605209,938.023249860521,1076.1072498605208
46,47,20,M,1,1,38.0,0,3,low,9 - 1 + 5 - 6 + 8,15,15,17,14,957.6996504999696,959.7240112000144,961.2393649000442,966.2717680999776,966.9271952999987,966.9272005000385,968.444112300058,969.4615964000112,q,15,0.6554272000212222,1,+1,198,8.081231767901162,-0.2997963192602118,-0.05344677086059768,723211.0,10.806186570576886,-0.20184670315357423,-0.10920930102956294,726759.0,1.826194220129592,-0.5774131007242538,0.3620339324534405,962043.0,961.254249860521,957.706249860521,1196.5382498605209
47,47,20,M,1,1,39.0,1,4,low,5 + 8 - 4 - 6 + 9,12,14,12,13,970.9786040000618,973.0061704000692,974.5215499000624,979.5402521999786,981.9351571999724,981.9351633000188,983.4523225000594,984.4703488000667,q,14,2.394904999993741,0,+0,198,0.691098736033469,2.0910311666411694,-0.0623265192908824,736493.0,-21.42978041851974,0.6135897077905721,0.05920726238903651,740027.0,1.1578862511199057,-1.068741401448861,0.032278673062710705,828484.0,974.522249860521,970.9882498605209,1062.979249860521
48,47,20,M,1,1,40.0,2,2,low,4 + 9 - 7 + 1 - 1,6,6,5,8,985.9872765999752,988.0108127000276,989.5267868000084,994.5452102000128,995.1270719000604,995.1270771999845,996.643878599978,997.6608939999714,q,6,0.5818617000477389,1,+1,199,-1.2059968055285477,-0.3661789523093102,-0.009889029475007804,751498.0,-21.731517962758467,0.025497941116578104,-0.17460219490890783,755033.0,11.761690093370797,-0.03982207516260061,-0.03262698702271649,762148.0,989.5282498605209,985.993249860521,996.6432498605209
49,47,20,M,1,1,41.0,3,1,low,5 + 1 + 1 + 6 + 1,14,16,13,14,999.1773866000584,1001.2025906000054,1002.7178559000604,1007.7354077000635,1008.358999600052,1008.3590047999752,1009.8753138000612,1010.892266000039,e,14,0.6235918999882415,1,+1,200,-29.101163637910403,1.5088253728876762,1.574920622479996,764689.0,34.69381239747767,-1.106128043669,-1.01804706894703,768223.0,3.847450432821591,0.20207517699254307,0.14852644897415845,775379.0,1002.7182498605209,999.1842498605208,1009.8742498605209
50,47,20,M,1,1,42.0,4,1,high,8 + 1 + 1 + 1 - 4,7,7,8,5,1012.4089379999788,1014.4354505999944,1015.950558100012,1020.969639500021,1021.4790612000506,1021.4790664999746,1022.995597400004,1024.0279932999983,q,7,0.5094217000296339,1,+10,210,-16.626659721248338,-1.3650288699466469,-0.010394055485936082,777923.0,-4.872059083737092,0.36764531380425236,-0.1345704566088921,781457.0,-0.9177353410637092,0.5909082311906264,-0.015718984548407366,788515.0,1015.9522498605209,1012.418249860521,1023.0102498605208
51,47,20,M,1,1,43.0,5,1,low,6 + 9 + 1 + 1 - 1,16,15,16,14,1025.5443195999833,1027.5690559999784,1029.084356400068,1034.103454599972,1034.9750642,1034.975069600041,1036.4917419999838,1037.5086617000634,w,16,0.8716096000280231,1,+1,211,10.911073606862548,1.9872591651598475,-0.4959336766666198,791056.0,3.8139010291860274,-0.6468073219915116,-0.04512067285963428,794591.0,-17.5371040093063,-0.44368488871230394,-0.10128040080034939,801996.0,1029.0862498605209,1025.551249860521,1036.4912498605208
52,47,20,M,1,1,44.0,6,4,low,6 + 9 - 7 + 8 - 5,11,13,11,12,1039.0254055999685,1041.0523931999924,1042.567605499993,1047.58590429998,1048.190953799989,1048.190958900028,1049.7075226000743,1050.7242107000202,w,11,0.605049500009045,1,+1,212,2.5411035216266917,-0.04939051118971616,0.15976877652482657,804539.0,-0.29527648200481593,0.21903812422455626,0.12298198334233024,808074.0,-14.161506216449695,0.007578022696093534,-0.048391336280569686,881372.0,1042.5692498605208,1039.034249860521,1115.8672498605208
53,47,20,M,1,1,45.0,7,4,low,8 + 4 + 7 - 5 - 6,8,6,9,8,1052.2409431000706,1054.2657158999937,1055.780861600069,1060.8008407000452,1061.4629847999895,1061.4629907000344,1062.979689000058,1063.9971660000738,e,8,0.6621440999442711,1,+1,213,-0.737766409638624,-0.36949505904050106,-0.06021532352791148,817753.0,35.082295850476186,0.10295873098310615,-0.1995884359217257,821288.0,7.546180822354866,-0.022515646842204973,0.12567016273118337,894563.0,1055.783249860521,1052.248249860521,1129.0582498605208
54,47,20,M,1,1,46.0,8,3,low,2 + 1 + 9 - 4 + 6,14,14,15,16,1065.5137166000204,1067.5415481000673,1069.0567589000566,1074.0750201999908,1074.591047200025,1074.5910525000654,1076.1075931000523,1077.124380400055,q,14,0.516027000034228,1,+1,214,1.362090950001198,0.8759875890727784,0.026654715595338718,831029.0,-4.186270953551361,0.03504017070037335,-0.41528484846472846,834562.0,-5.054666440205499,-0.5231527520575101,0.16544091738021827,1096698.0,1069.0572498605209,1065.524249860521,1331.193249860521
55,47,20,M,1,1,47.0,9,2,low,3 + 8 - 5 + 1 + 1,8,9,8,6,1078.641209000023,1080.6683817000594,1082.1833903000224,1087.2017057000194,1087.8708390999818,1087.87084410002,1089.3874388000695,1090.4043015000643,w,8,0.6691333999624476,1,+1,215,-10.511196155999732,-0.8002307275631928,0.08999119002818778,844155.0,27.18632466258013,-0.5581217944914405,-0.0341725192252893,847689.0,-7.962398865403088,0.49217286361275736,0.2985728224109503,854891.0,1082.1842498605208,1078.650249860521,1089.3862498605208
56,47,20,M,1,1,48.0,10,1,high,3 + 1 + 8 + 1 + 1,14,13,14,12,1091.9210496000014,1093.9474495999748,1095.4627290000208,1100.4819503000472,1101.1268633999862,1101.1268682000227,1102.643357599969,1103.6606030999685,w,14,0.6449130999390036,1,+10,225,43.67856860641275,-0.356435253061691,-0.057285888511246386,857435.0,6.03650987790935,-0.05226858264159251,-0.03867106710454893,860969.0,19.612072452543693,0.7534484141578011,0.2875404903235721,868148.0,1095.464249860521,1091.930249860521,1102.6432498605209
57,47,20,M,1,1,49.0,11,4,high,8 + 4 - 5 + 7 - 6,8,6,8,7,1105.1776785000693,1107.2018753000302,1108.7170937999615,1113.7359614999732,1114.3507925999584,1114.350797799998,1115.867257600068,1116.884519000072,w,8,0.6148310999851674,1,+10,235,-5.686181299068673,-0.4242876437476397,-0.1634892387162481,870688.0,-2.281473446259131,-0.1473920148771004,-0.016531760205735546,874223.0,22.78409717595912,0.13433757126354262,-0.07467505617845549,935619.0,1108.718249860521,1105.1832498605208,1170.1142498605209
58,47,20,M,1,1,50.0,12,4,high,6 + 9 + 7 - 3 - 5,14,13,12,14,1118.401251400006,1120.4260344000068,1121.9412401000736,1126.9595705000684,1127.5428274000296,1127.5428326000692,1129.0591048999922,1130.0764581999974,e,14,0.5832568999612704,1,+10,245,-1.4264546812121388,0.7531028300833578,-0.4555131034991384,883913.0,15.349239141235469,-1.3980435750229425,-0.06076170231751776,887447.0,-5.745737083550271,-0.9891732159426692,-0.28733513038324565,1043228.0,1121.9422498605209,1118.408249860521,1277.723249860521
59,47,20,M,1,1,51.0,13,2,high,8 + 1 + 9 + 1 - 5,14,15,13,14,1131.5927853999892,1133.6196978000223,1135.1348266999703,1140.153094700072,1140.734800199978,1140.73480570002,1142.251317800023,1143.2678350000642,e,14,0.5817054999060929,1,+10,255,-43.918606557176815,0.0993091924527949,0.02020721598759656,897107.0,-0.2384865484938299,-1.0310762095938415,-0.19836449914033105,900640.0,-30.540293367516927,1.0622387502393131,0.4386778904960862,907756.0,1135.1352498605208,1131.602249860521,1142.2512498605208
60,47,20,M,1,1,52.0,14,4,high,3 + 8 - 4 + 9 + 6,22,22,23,21,1144.7849104000488,1146.8123938000062,1148.3274750000564,1153.3473078999668,1155.1107434000587,1155.1107484999811,1156.627594599966,1157.644747799961,w,23,1.763435500091873,0,+0,255,-15.537518985879528,0.21278148068953406,0.04004030001863468,910299.0,-27.99858461871554,0.3216128640733027,-0.05028900016847482,913834.0,-0.47433472695066214,0.617868562021437,-0.04324328704722946,1110338.0,1148.3292498605208,1144.794249860521,1344.833249860521
61,47,20,M,1,1,53.0,15,4,low,4 + 7 + 8 - 3 + 9,25,25,24,26,1159.161479900009,1161.1863761000568,1162.7016436000122,1167.7220411000308,1168.5987927999813,1168.5987981000217,1170.1154017000226,1171.1324407999637,q,25,0.876751699950546,1,+1,256,11.675168407579822,-2.4756715073430007,0.010453540461476951,924673.0,9.896692342762057,-4.176914642247742,-0.01026845320742642,928209.0,2.013224132116431,0.14440079846006793,0.02931595604868842,1123562.0,1162.7042498605208,1159.168249860521,1358.0572498605209
62,47,20,M,1,1,54.0,16,2,low,5 - 1 + 1 + 8 + 9,22,21,22,23,1172.6492156999884,1174.6751513000345,1176.1903812000528,1181.2096053999849,1181.7586982999928,1181.7587035000324,1183.2749351999955,1184.2921504999977,w,22,0.5490929000079632,1,+1,257,12.733979803990138,0.0333910339525616,0.07259854736614502,938162.0,-6.490764649238695,0.07025093623978851,-0.1004668695008819,941696.0,-37.61322662792205,-1.337763267341196,0.2193557078861177,948779.0,1176.1912498605209,1172.657249860521,1183.274249860521
63,47,20,M,1,1,55.0,17,3,low,2 - 4 + 9 + 7 + 1,15,16,15,13,1185.8090332000284,1187.8351019000402,1189.3503641000716,1194.3704007000197,1195.0227035999997,1195.0227087000385,1196.539090799983,1197.5559623000445,w,15,0.6523028999799863,1,+1,258,0.8871011798218404,-0.8077295215511482,-0.28499776501891394,951322.0,5.76984233565792,0.34531184122538594,-0.12405279941084446,954857.0,-12.28189953390489,1.4302476314214063,0.6693647393341475,1193626.0,1189.352249860521,1185.8172498605209,1428.121249860521
64,47,20,M,1,1,56.0,18,1,low,8 + 1 + 5 + 1 + 1,16,17,15,16,1199.073152599973,1201.0989468999906,1202.6142364999978,1207.632463400019,1208.2627769999672,1208.262782500009,1209.7792952000163,1210.7962884000735,e,16,0.63031359994784,1,+1,259,-10.569898565827192,0.6369653669940769,-0.1905954871760569,964586.0,38.93379573187802,0.3283492593197117,-0.4621118114009266,968119.0,-5.438906643191427,0.5967323593029938,-0.8044654354093868,975283.0,1202.6142498605209,1199.081249860521,1209.7782498605209
65,47,20,M,1,1,57.0,19,2,high,6 + 1 + 1 + 7 - 9,6,6,4,8,1212.3134241000516,1214.3395760999992,1215.8546928999713,1220.8750465000048,1221.4226566000143,1221.4226623000577,1222.939233400044,1223.9565594999583,q,6,0.5476101000094786,1,+10,269,29.691499684005453,-0.7910308819138114,0.07425546135508565,977826.0,17.217263028578998,-0.0939646583077538,0.036882755150110524,981362.0,-1.596480045205574,0.3151873757207122,0.018344400896266544,988443.0,1215.8572498605208,1212.321249860521,1222.938249860521
66,47,20,M,1,1,58.0,20,2,low,3 + 9 - 1 - 5 + 1,7,7,6,5,1225.4732978000538,1227.5016620999668,1229.01689920004,1234.0351258000592,1234.6226475000149,1234.622653300059,1236.1391872999957,1237.1561190000502,q,7,0.5875216999556869,1,+1,270,1.8151691394882699,-0.008681740590532172,0.24311687344675526,990988.0,5.5086096563251274,0.060418952523233926,-0.030915059695659552,994522.0,1.5610788242691154,0.1259574012025011,-0.021903774354528505,1001643.0,1229.017249860521,1225.483249860521,1236.138249860521
67,47,20,M,1,1,59.0,21,2,low,9 + 4 - 6 + 1 - 1,7,8,7,9,1238.6731843999587,1240.6986489000265,1242.2139617999785,1247.2317210000474,1247.9026306000303,1247.902635900071,1249.418815699988,1250.4360980000347,w,7,0.6709095999831334,1,+1,271,-3.628792806152596,-0.4800436555503085,0.07774267284218106,1004185.0,67.43736319770785,-0.9112029740315508,-0.10654000403686514,1007719.0,-3.3375809695316807,0.5075739106710033,0.03327431593815433,1014922.0,1242.214249860521,1238.680249860521,1249.417249860521
68,47,20,M,1,1,60.0,22,1,high,9 + 8 + 1 + 1 - 1,18,18,20,17,1251.9529685999732,1253.9814251000062,1255.4966507999925,1260.5147158000618,1261.2146638999693,1261.2146694000112,1262.7313741999678,1263.7488910000538,q,18,0.6999480999074876,1,+10,281,23.94209349777077,-0.7549712025079387,-0.03488461798518361,1017468.0,-24.933520568550033,-0.22369453363342373,-0.25647935223806595,1021001.0,1.3846961216384326,0.04281161642434217,-0.05487910185455713,1028236.0,1255.496249860521,1251.9632498605208,1262.731249860521
69,47,20,M,1,1,61.0,23,4,high,8 + 5 - 4 + 7 + 9,25,24,26,25,1265.265495400061,1267.2904592000414,1268.8058576000622,1273.8242842999753,1276.206539500039,1276.206544799963,1277.7233927999623,1278.7408349000616,e,25,2.3822552000638098,1,+10,291,-35.72843705005293,1.0301970739587114,0.09065335341455061,1030777.0,-18.5925586285121,-0.7628282288270114,-0.04243438697744861,1034311.0,-3.299530855296773,1.1313570261486667,0.03622733521860422,1222562.0,1268.806249860521,1265.272249860521,1457.0572498605209
70,47,20,M,1,1,62.0,24,2,low,6 + 1 + 8 + 5 - 1,19,17,18,19,1280.257524500019,1282.2860298000742,1283.801608900074,1288.8201131999958,1289.5026100999676,1289.5026155000087,1291.019319300074,1292.0358900000574,e,19,0.6824968999717385,1,+1,292,-35.79485810018083,0.264598660222787,0.09512270009804902,1045773.0,18.288773746983722,-1.90741048349921,0.048679477344301336,1049306.0,7.0536470180664255,-1.161477328116037,-0.021485067261261648,1056523.0,1283.801249860521,1280.2682498605209,1291.0182498605209
71,47,20,M,1,1,63.0,25,2,high,4 + 8 + 1 + 1 - 6,8,8,7,9,1293.552619199967,1295.580276499968,1297.0955888000317,1302.1135888000715,1303.294508400024,1303.2945139000658,1304.8107606000267,1305.8277235999703,q,8,1.1809195999521762,1,+10,302,-46.907578607551734,-0.49783871205954355,-0.033468083719314645,1059067.0,-10.20982761710612,-0.03991727991507066,-0.011566753754751913,1062600.0,-18.242234427870855,0.09288401389987122,0.18014258786822412,1070315.0,1297.0952498605209,1293.562249860521,1304.810249860521
72,47,20,M,1,1,64.0,26,1,low,6 + 1 + 1 + 7 - 1,14,13,14,12,1307.3445728999795,1309.371777000022,1310.8869410000043,1315.9053907999769,1316.518489500042,1316.5184948999668,1318.0349566000514,1319.051792100072,w,14,0.6130987000651658,1,+1,303,39.063994678289724,1.0391492852797706,-0.45380176047704857,1072859.0,-9.50124789655783,-0.7428621158618647,-0.18293679150665643,1076392.0,3.5139098040789003,-0.4177960683743098,0.32561447750892003,1083538.0,1310.887249860521,1307.354249860521,1318.033249860521
73,47,20,M,1,1,65.0,27,3,low,2 + 1 + 9 - 7 + 6,11,11,12,13,1320.5688986000605,1322.595045199967,1324.1102963000303,1329.1285829000408,1329.6784688000334,1329.678474299959,1331.19503860001,1332.2119509000331,q,11,0.5498858999926597,1,+1,304,4.7192461152280964,-0.9671106537256904,-0.15473693062058702,1086082.0,-3.653033642257924,-0.21016697731635947,-0.17997177191996272,1089615.0,-16.682364785905314,-0.7555693987165304,-0.0325132927510543,1292554.0,1324.110249860521,1320.577249860521,1527.049249860521
74,47,20,M,1,1,66.0,28,4,low,7 + 8 - 4 + 6 - 5,12,12,13,11,1333.7287209000206,1335.7558472000528,1337.2710557000246,1342.2893748000497,1343.318480400019,1343.3184854000574,1344.8349579999922,1345.852072800044,q,12,1.0291055999696257,1,+1,305,-13.296686160855092,1.2709467299400528,-0.07485956911072744,1099242.0,13.541088108670552,1.84919653287377,-0.19482995591015473,1102776.0,26.111562509171286,-0.020800968063393377,-0.019152914286999057,1454153.0,1337.271249860521,1333.737249860521,1688.648249860521
75,47,20,M,1,1,67.0,29,4,high,4 + 7 - 8 + 9 - 3,9,9,8,11,1347.3685922999866,1349.393000900047,1350.9082495999755,1355.928267100011,1356.542414400028,1356.542419500067,1358.0586514000315,1359.0757562000072,q,9,0.6141473000170663,1,+10,315,35.35774928087545,0.0026175005276316554,-0.2047664885003737,1112880.0,-1.3681255785288684,1.098100463973914,0.01849403691593854,1116415.0,4.976773101432375,0.2680459499722492,-0.048173808686865494,1480961.0,1350.910249860521,1347.375249860521,1715.456249860521
76,47,20,M,1,1,68.0,30,2,high,2 + 9 - 4 + 1 + 1,9,8,9,11,1360.5925757000225,1362.6189924000064,1364.134280300001,1369.152697899961,1369.8223823000444,1369.8223874999676,1371.3387770999689,1372.3559381000232,w,9,0.6696844000834972,1,+10,325,9.225783348361656,0.77139886419946,0.09369398902513115,1126105.0,-15.765922439123003,0.43609714444862124,0.03467426013747699,1129639.0,-7.503895014963209,0.7353159708625414,-0.5970945857067012,1136843.0,1364.1342498605209,1360.600249860521,1371.338249860521
77,47,20,M,1,1,69.0,31,2,high,5 + 8 + 1 - 1 + 9,22,22,23,21,1373.8727796999738,1375.897632200038,1377.4128765000496,1382.4319006999722,1382.89438339998,1382.894388900022,1384.4108456000686,1385.4283556999872,q,22,0.4624827000079676,1,+10,335,-2.4649772933558545,2.1684434946108677,6.218412160094884,1139384.0,-6.25914045679629,0.38481234160137934,-0.2703541410523411,1142918.0,24.181263270655304,-0.13036498170544775,-0.13529418715273067,1149915.0,1377.4132498605209,1373.879249860521,1384.410249860521
78,47,20,M,1,1,70.0,32,2,low,4 + 9 + 1 - 7 - 1,6,5,8,6,1386.945217099972,1388.9738253999967,1390.4890363999875,1395.5076104999753,1397.2063480999786,1397.2063531000167,1398.7228213000344,1399.7397820999613,e,6,1.6987376000033692,1,+1,336,-5.676031083419311,0.27556423510723604,-0.14124174092845632,1152460.0,-11.13059689467506,1.0210997043928396,0.1187203853006622,1155994.0,-18.31509337543055,-5.090816618000075,0.003451816129441454,1164226.0,1390.4892498605209,1386.955249860521,1398.721249860521
79,47,20,M,1,1,71.0,33,3,high,6 + 7 + 8 + 1 - 9,13,13,15,14,1401.2565085999668,1403.2850737000117,1404.8003730999772,1409.8187155000633,1412.0863985000178,1412.0864037000574,1413.60295510001,1414.6201023999602,e,14,2.267682999954559,0,+0,336,-11.147744886269406,-0.49753538896711547,0.07462176744487792,1166771.0,-5.393287340120757,1.2733935705722166,0.00534269157925138,1170305.0,-6.852142212403468,-2.0632025127272424,-0.4511413377918112,1358122.0,1404.800249860521,1401.266249860521,1592.617249860521
80,47,20,M,1,1,72.0,34,3,high,6 - 1 + 7 - 8 + 9,13,13,11,12,1416.1369288000278,1418.1605816000374,1419.6758332999889,1424.6957094999962,1426.606364700012,1426.6063702000538,1428.1227079000091,1429.139718899969,q,13,1.9106552000157533,1,+10,346,11.301907990049497,0.06356500800223763,0.20404977663407564,1181647.0,-12.468547883493473,-2.2914443501642197,0.03235971635700041,1185182.0,-6.790953209463764,0.8665059265892694,-1.8398397846106493,1413369.0,1419.677249860521,1416.142249860521,1647.8642498605209
81,47,20,M,1,1,73.0,35,2,low,7 + 8 + 1 + 9 + 1,26,24,25,26,1430.6567378999898,1432.6803000000073,1434.1952648999868,1439.2132832000498,1441.7822561999783,1441.7822616000194,1443.298526700004,1444.3157426000107,q,24,2.568972999928519,0,+0,346,-7.692250920679314,-4.999572597319858,3.5917588969491296,1196167.0,-11.601218686871613,0.481762540610954,-1.4793432992938467,1199700.0,-7.828138572762544,0.6438888572536152,0.11003781068305951,1252938.0,1434.195249860521,1430.662249860521,1487.433249860521
82,47,20,M,1,1,74.0,36,4,high,5 + 8 - 6 + 7 + 4,18,17,19,18,1445.8326156999683,1447.86013809999,1449.375430300017,1454.3939445000142,1455.5422285000095,1455.5422339000506,1457.058461299981,1458.0753505000612,e,18,1.1482839999953285,1,+10,356,5.603743020280447,-1.3426734063317252,0.7736484889528255,1211346.0,29.943851803570148,0.24507215044833952,-0.6830900113717449,1214880.0,14.327153852410634,-0.5685454917272086,0.09699373770908748,1497169.0,1449.375249860521,1445.841249860521,1731.664249860521
83,47,20,M,1,1,75.0,37,1,high,8 + 1 + 1 + 1 - 3,8,8,6,9,1459.592264199979,1461.6142865000293,1463.1292190999957,1468.1472802000353,1468.6222101000603,1468.6222155999858,1470.1386352999834,1471.1558905000566,q,8,0.4749299000250175,1,+10,366,20.83982191885412,-1.5933965737333056,0.13836870452002037,1225101.0,14.4495716061206,-0.6457581991456172,0.01186086487120308,1228634.0,-24.67919317905538,1.2820400865625299,-0.4427583416540206,1235642.0,1463.129249860521,1459.596249860521,1470.137249860521
84,47,20,M,1,2,76.0,0,2,high,6 + 1 + 8 + 7 - 1,21,23,21,19,1476.70537109999,1478.7314646999585,1480.2466563000344,1485.2655195000116,1485.9181729999837,1485.91817910003,1487.4346940000542,1488.4519034000114,w,21,0.6526534999720752,1,+10,376,-14.03884938926831,0.6868791209292322,0.02724264292492995,1242218.0,42.32897673979346,0.39171109787137226,0.32861826396035543,1245752.0,11.91494967924247,-0.6350611850086025,-0.1851761241156087,1279314.0,1480.247249860521,1476.713249860521,1513.809249860521
85,47,20,M,1,2,77.0,1,1,high,9 + 7 + 1 + 1 + 1,19,20,19,18,1489.9688580000077,1491.9960859999992,1493.5113478000276,1498.529381099972,1499.0461378999753,1499.046143100015,1500.5625847000629,1501.579895999981,w,19,0.5167568000033498,1,+10,386,-15.382179285274432,-1.017686139582879,-0.049522022850736924,1255482.0,-12.62121550020808,-0.7780548442519066,0.2474465822477807,1259016.0,-2.5067073747701345,-0.16878745292759234,1.6409891578744524,1266066.0,1493.511249860521,1489.977249860521,1500.561249860521
86,47,20,M,1,2,78.0,2,2,high,8 + 1 + 7 + 1 - 4,13,14,12,13,1503.096680699964,1505.125848100055,1506.6407346000196,1511.6593173000729,1512.294191800058,1512.2941974999849,1513.810767899966,1514.8284515000414,e,13,0.6348744999850169,1,+10,396,-12.605482648039668,0.9584585831995591,-0.17060380108841766,1268612.0,-8.601042573239623,-1.9741048416065432,-0.05111226403019842,1272145.0,9.472740211491592,0.25141256352156294,-0.07922808023021455,1371186.0,1506.640249860521,1503.107249860521,1605.681249860521
87,47,20,M,1,2,79.0,3,3,low,7 - 1 + 8 - 6 + 4,12,11,13,12,1516.3452763999812,1518.3712160000578,1519.886216300074,1524.905271800002,1525.5340589999687,1525.534064700012,1527.0507352000568,1528.0678323999746,e,12,0.6287871999666095,1,+1,397,7.934363727678706,-0.19869273060590587,0.08175725861020577,1281857.0,-10.996828757472139,0.11287788824734779,0.00018601713781896123,1285391.0,-7.786174639183579,-0.15174652572709846,-0.27970336394589856,1593985.0,1519.886249860521,1516.352249860521,1828.4802498605209
88,47,20,M,1,2,80.0,4,1,low,4 + 8 + 1 - 1 - 1,11,11,9,13,1529.584633099963,1531.61254979996,1533.1277146000648,1538.1452412999934,1538.7740600999678,1538.774066000013,1540.290639600018,1541.3074784000637,q,11,0.6288187999743968,1,+1,398,3.2721484843265793,-0.8979149138903582,0.0760862065872332,1295099.0,-21.20142540564877,0.7620109225745129,-0.029806262725823096,1298632.0,-0.5635445593214303,0.10479279947915021,0.05879363000241744,1305794.0,1533.127249860521,1529.594249860521,1540.289249860521
89,47,20,M,1,2,81.0,5,1,high,8 + 1 + 4 + 1 + 1,15,16,14,15,1542.824572899961,1544.8501072999788,1546.3654877999795,1551.3835716999602,1551.902097000042,1551.9021024999674,1553.418709599995,1554.4356889000628,e,15,0.5185253000818193,1,+10,408,14.392368600691837,1.583079420613636,0.8445185528226169,1308336.0,-8.778501232790044,-0.8052062812838345,-0.4424055548884329,1311870.0,-10.09475530548044,-0.0029048158929425583,-0.20560358149508096,1318922.0,1546.3652498605209,1542.831249860521,1553.417249860521
90,47,20,M,1,2,82.0,6,1,low,7 + 1 + 5 + 1 - 1,13,13,14,12,1555.9526582000544,1557.9798942999914,1559.4950467000017,1564.5133526000427,1564.9259829999646,1564.9259880000027,1566.4425209000474,1567.4595264999662,q,13,0.412630399921909,1,+1,409,-26.55386352389409,1.1168736021931398,0.40811429819279077,1321466.0,5.032862599427652,0.32612627897657376,-0.028928617513498622,1325000.0,3.5265207902360016,-0.04952667695171886,-0.5487334743371735,1331946.0,1559.495249860521,1555.9612498605209,1566.4412498605209
91,47,20,M,1,2,83.0,7,1,high,2 + 1 + 9 + 1 - 1,12,13,12,11,1568.976355900057,1571.00118380005,1572.5163984000685,1577.5353728999617,1577.9740879000165,1577.9740932000568,1579.4901893000351,1580.5070454999804,w,12,0.438715000054799,1,+10,419,-23.784784937033223,-0.04428567946345652,0.4193959294509204,1334487.0,2.689987901169209,-0.0884823217479962,0.3944864804960493,1338022.0,1.0467686494563715,-0.02677362647575432,-0.19100620479318842,1344993.0,1572.517249860521,1568.982249860521,1579.488249860521
92,47,20,M,1,2,84.0,8,3,high,3 + 8 - 7 - 1 + 9,12,12,13,14,1582.02405300003,1584.0479624000145,1585.5630734000588,1590.5825615000213,1591.1020449000644,1591.1020500999875,1592.6185355000198,1593.6357220000357,q,12,0.5194834000431001,1,+10,429,-2.703870400728852,0.22674718870695987,-1.318037754863342,1347534.0,-39.82715131397204,0.0012144372031039907,0.015111148452931822,1351068.0,35.412883805372495,2.3463704005621526,-0.20465184356107158,1607041.0,1585.563249860521,1582.029249860521,1841.536249860521
93,47,20,M,1,2,85.0,9,2,high,6 + 1 + 7 - 8 - 1,5,4,7,5,1595.152385000023,1597.1793973000022,1598.6945944000036,1603.7133344999747,1604.1663203999633,1604.1663261000067,1605.6826406000182,1606.6999001000077,e,5,0.4529858999885618,1,+10,439,-4.27708876686402,0.4734713607017982,0.20299667621671613,1360665.0,6.675987448052137,0.49245036906903294,0.14191749820040966,1364199.0,-10.829628109957646,-0.4458084479549749,0.16262008354352542,1400282.0,1598.694249860521,1595.160249860521,1634.777249860521
94,47,20,M,1,2,86.0,10,2,low,8 + 1 + 4 - 7 + 1,7,6,7,5,1608.2167787000071,1610.2456539999694,1611.7609060000395,1616.7793242000043,1618.037888700026,1618.037894200068,1619.5543750000652,1620.5715039999925,e,5,1.2585645000217482,0,+0,439,-8.028269511714264,0.9243161350514866,0.2024885344450229,1373731.0,18.922843830586494,-0.6920783968482676,0.08281571522818743,1377265.0,-6.3329427674189755,0.33247594533745506,-0.15365045589009907,1426578.0,1611.760249860521,1608.226249860521,1661.073249860521
95,47,20,M,1,2,87.0,11,2,high,6 + 1 + 1 + 8 - 9,7,5,9,7,1622.0883143000538,1624.1141866999678,1625.629568299977,1630.647855999996,1633.261862799991,1633.2618679000298,1634.7787911000196,1635.7958841000218,e,7,2.614006799994968,1,+10,449,11.021095500627638,-0.2411053059567685,0.34636908313252035,1387600.0,-4.812765697489816,1.5353372041715643,-1.051951118878883,1391134.0,-41.19094823512125,0.07558335342597378,0.26263862010045,1439617.0,1625.629249860521,1622.0952498605209,1674.112249860521
96,47,20,M,1,2,88.0,12,3,low,8 - 7 + 9 + 1 + 4,15,16,15,14,1637.312434499967,1639.3396843000082,1640.8546254000394,1645.872958400054,1646.3498866000446,1646.349891699967,1647.8665524000537,1648.8834984999849,w,15,0.4769281999906525,1,+1,450,9.929424412070095,0.6131232486035172,0.1798940446038082,1402826.0,17.99506841250638,-0.5651417585415865,-0.10381289495553836,1406359.0,-6.467563170207182,-0.4752378027136732,-0.584444871873596,1698832.0,1640.854249860521,1637.321249860521,1933.327249860521
97,47,20,M,1,2,89.0,13,2,high,7 + 6 + 1 + 8 + 1,23,21,22,23,1650.4006885000272,1652.4280940999745,1653.9427678000648,1658.9616568000056,1659.5579224000685,1659.557927899994,1661.0744307000425,1662.0922487999778,e,23,0.5962656000629067,1,+10,460,-37.08000583057468,0.15588803129533702,-0.036675845018730335,1415914.0,13.67049401492945,0.8161662895476987,-0.48402334187213825,1419447.0,42.28662450190695,-1.194304523418353,0.07753276112928909,1620072.0,1653.9422498605209,1650.409249860521,1854.5672498605209
98,47,20,M,1,2,90.0,14,2,low,3 + 8 + 1 - 5 + 1,8,9,8,6,1663.6091651000315,1665.635754100047,1667.150798400049,1672.168600999983,1672.597946700058,1672.5979520999826,1674.1144846000243,1675.1314096000278,w,8,0.4293457000749185,1,+1,461,-5.969165390595444,0.10370608960414618,0.1806941961201931,1429121.0,1.041814853165345,-0.2106916085296069,0.05502869012435818,1432655.0,-32.5735755871663,-1.368269339853879,0.08295249789719228,1685840.0,1667.150249860521,1663.616249860521,1920.335249860521
99,47,20,M,1,2,91.0,15,4,low,3 + 9 - 4 + 7 + 6,21,21,19,20,1676.64762589999,1678.675376800005,1680.1903195000486,1685.2089832000202,1687.133922300069,1687.133927899995,1688.6503527000314,1689.667176799965,q,21,1.9249391000485048,1,+1,462,5.812796803754763,0.07372901460058046,-0.2825286980236388,1442161.0,17.96819825328304,-0.4144759407266516,-0.5481016922040931,1445695.0,11.457145128470131,0.08883377776409063,-0.14331267769233969,1538161.0,1680.190249860521,1676.656249860521,1772.656249860521
100,47,20,M,1,2,92.0,16,1,low,3 + 1 + 9 + 1 - 1,13,12,14,13,1691.183858399978,1693.210912300041,1694.7261122000637,1699.7446684000315,1700.293734600069,1700.2937397999922,1701.8102184999734,1702.8271627000067,e,13,0.5490662000374869,1,+1,463,7.903109007938123,0.9468392535137422,0.014396386947600481,1456697.0,-14.280852666425323,1.536956385913073,0.030625470176253167,1460230.0,0.45259794899204486,1.322598144148741,-0.17559151461834,1467313.0,1694.725249860521,1691.1922498605209,1701.808249860521
101,47,20,M,1,2,93.0,17,4,low,2 + 9 - 3 + 5 + 8,21,21,23,22,1704.343635700061,1706.371072900016,1707.8859181000153,1712.9041694999903,1713.941709500039,1713.941715899971,1715.458097100025,1716.4750937999925,q,21,1.037540000048466,1,+1,464,13.65852504666202,-0.0625276655658622,0.07034294170879773,1469857.0,7.201543306528748,-0.7538373643752454,-0.1350555622208094,1473390.0,12.964183246953825,-0.9199035753586582,1.2228177225993813,1551233.0,1707.885249860521,1704.352249860521,1785.728249860521
102,47,20,M,1,2,94.0,18,4,high,7 + 6 - 9 + 8 - 3,9,9,7,8,1717.9915456000017,1720.0193107000086,1721.534544400056,1726.5531084999675,1730.1498000000138,1730.149806600064,1731.666386500001,1732.6837651999667,q,9,3.5966915000462905,1,+10,474,2.445747190823141,-0.1292490610919863,-0.10324735811515584,1483505.0,8.15389264141347,-0.0010190046013400789,0.13053063808446042,1487039.0,15.522617982493095,-1.7262840091812128,0.039903063974709996,1567873.0,1721.534249860521,1718.000249860521,1802.368249860521
103,47,20,M,1,2,95.0,19,1,low,7 + 1 + 6 + 1 + 1,16,16,17,18,1734.2006112000672,1736.2252052000258,1737.7404766000109,1742.7585560000734,1743.269931399962,1743.2699370000046,1744.78633110004,1745.803476799978,q,16,0.5113753998884931,1,+1,475,23.370421475774894,-0.21662906408579108,0.05511617214908848,1499711.0,0.2671562115070323,-0.2514883131509347,0.25833681906079664,1503244.0,3.7358798698949442,0.8251193879406769,-0.016451446581015938,1510289.0,1737.7392498605209,1734.206249860521,1744.784249860521
104,47,20,M,1,2,96.0,20,4,high,2 + 5 - 3 + 9 + 8,21,22,21,19,1747.3209585000295,1749.3486652000574,1750.864559300011,1755.8827868000371,1757.9896750999617,1757.9896811000071,1759.5067459000277,1760.523977200035,e,19,2.106888299924321,0,+0,475,-33.28374140498091,-0.18797559471954095,0.0616713675294569,1512834.0,14.523935165263554,0.028343826907944347,0.03373286028729572,1516368.0,8.238061933916782,-0.3078519893957994,0.05774465785763949,1633240.0,1750.863249860521,1747.329249860521,1867.735249860521
105,47,20,M,1,2,97.0,21,4,high,3 + 9 - 5 + 6 + 8,21,22,23,21,1762.0409943000411,1764.0646005000451,1765.5796958999708,1770.5976529000327,1771.1416991000297,1771.1417043000693,1772.658429900068,1773.6754895000486,e,21,0.5440461999969557,1,+10,485,8.040476481704312,-0.7212298863394935,-0.07195769839309607,1527550.0,6.097058832691872,0.5843049233294373,0.14361048794270181,1531083.0,-18.046075684039728,-0.3000325057216857,0.1623781505000066,1659384.0,1765.578249860521,1762.045249860521,1893.879249860521
106,47,20,M,1,2,98.0,22,4,high,5 + 7 - 4 - 6 + 9,11,12,13,11,1775.1922907000408,1777.2142812999664,1778.7294533000097,1783.7482769000344,1784.2135638999753,1784.2135694000171,1785.730029599974,1786.7469779000385,e,11,0.4652869999408722,1,+10,495,-21.120515993022597,-0.6181363086162506,0.057745224876109,1540700.0,0.3332085350001712,-0.0776276038301269,-0.43308771455982553,1544234.0,8.702568469893926,-0.7752828397811236,0.050079156411159786,1672608.0,1778.729249860521,1775.195249860521,1907.103249860521
107,47,20,M,1,2,99.0,23,4,high,9 + 4 - 6 + 8 + 7,22,21,24,22,1788.2635658000363,1790.2907102999743,1791.805658700061,1796.824296100065,1800.8535811000038,1800.8535871000497,1802.3702488000272,1803.387754400028,e,22,4.029284999938682,1,+10,505,-23.860050997514517,-0.16090240496833275,0.23198206388657572,1553776.0,-17.793539517515125,1.4588637920303373,0.13379109853744975,1557310.0,10.034595523976085,0.2582788409747092,0.002107833603989917,1782192.0,1791.805249860521,1788.271249860521,2016.687249860521
108,47,20,M,1,2,100.0,24,1,low,7 + 1 + 4 + 1 - 1,12,13,11,12,1804.904516800074,1806.9329570999837,1808.448034800007,1813.4673362000613,1813.9016171999972,1813.901622400037,1815.4181649000384,1816.4350752000464,e,12,0.4342809999361634,1,+1,506,0.7011841618882411,-1.3104684676298195,-0.08295857698671893,1570418.0,10.60707752366772,-0.352361693697989,0.10978735292704145,1573953.0,6.929398393780973,0.08460269426462119,5.5258773584521785,1580920.0,1808.448249860521,1804.9132498605209,1815.415249860521
109,47,20,M,1,2,101.0,25,3,high,5 + 6 - 4 - 1 + 7,13,15,14,13,1817.952316800016,1819.979718400049,1821.4951346999733,1826.5134720000208,1826.9656499000264,1826.9656564999605,1828.4826361000305,1829.4994280000683,e,13,0.4521779000060633,1,+10,516,8.708662455659278,0.5437414889313654,-0.6129758272219887,1583465.0,40.740429497402516,0.7660863437656218,-0.05358425019859636,1586999.0,16.10338441521776,0.7201871832754012,-0.002586177495740305,1713192.0,1821.494249860521,1817.960249860521,1947.687249860521
110,47,20,M,1,2,102.0,26,3,high,5 + 6 - 4 - 1 + 8,14,16,14,15,1831.016278599971,1833.0392794000215,1834.5545066000195,1839.57286830002,1840.021584699978,1840.0215900000185,1841.5383756000083,1842.5557787000437,w,14,0.4487163999583572,1,+10,526,45.19332558936064,0.698274365059615,-0.003019315695913516,1596525.0,20.171814012248895,-0.22863396146595516,-0.0685946783149507,1600058.0,8.723161300935182,-6.227221007184078,-0.191449290998293,1739544.0,1834.553249860521,1831.020249860521,1974.039249860521
111,47,20,M,1,2,103.0,27,2,low,9 + 4 + 5 + 1 - 1,18,17,18,19,1844.0730053000152,1846.0973815000616,1847.6127119000305,1852.6314443000592,1853.053432399989,1853.0534376000287,1854.5701313000168,1855.5870601000497,w,18,0.4219880999298766,1,+1,527,-14.600195603951793,-0.6079218238477493,-0.2390764373008174,1609583.0,29.861668365429104,0.18626492346513324,0.1510118767367825,1613116.0,9.876881499312699,0.8715385282882471,-0.7434448431897935,1726216.0,1847.611249860521,1844.078249860521,1960.7112498605209
112,47,20,M,1,2,104.0,28,4,low,6 + 5 - 7 + 8 - 9,3,5,4,3,1857.1037981000263,1859.131014700048,1860.6464181999909,1865.665226100013,1866.2214605000336,1866.2214659000747,1867.7378947000248,1868.7547792000696,e,3,0.5562344000209123,1,+1,528,35.413481869644905,0.5094355683732497,-0.09819496778839598,1622616.0,1.4837237907046035,-0.4843681565562665,-0.287859388857183,1626150.0,-32.46320926083667,0.2101290882784994,-0.11768142868797349,1888576.0,1860.645249860521,1857.111249860521,2123.0712498605208
113,47,20,M,1,2,105.0,29,1,low,9 + 1 + 1 + 7 - 1,17,19,17,16,1870.2715623000404,1872.2994744000025,1873.814584000036,1878.832827300066,1879.2854605000464,1879.2854658999715,1880.802048900048,1881.8190819000592,w,17,0.4526331999804824,1,+1,529,30.800640620634148,-1.2956525265421375,0.02539365229931634,1635785.0,-0.9080783035568132,-0.4120195554141928,0.09939093554028688,1639318.0,-32.50229194153357,-0.33556876561787163,-0.0919082329567289,1646304.0,1873.813249860521,1870.280249860521,1880.799249860521
114,47,20,M,1,2,106.0,30,4,low,9 + 3 - 5 + 8 + 6,21,23,19,21,1883.3365815000143,1885.3649966999656,1886.880276300013,1891.89824140002,1892.3654615000123,1892.3654670000544,1893.8819117000091,1894.8991083999863,e,21,0.4672200999921188,1,+1,530,12.243172347417445,1.4452632213111531,0.2325009726872207,1648850.0,20.22569594149241,0.056534531443725555,-0.44017402342234835,1652384.0,0.1669595189673032,-0.7629088459244162,0.3115231698783336,1915257.0,1886.879249860521,1883.3452498605209,2149.752249860521
115,47,20,M,1,2,107.0,31,4,high,3 + 8 - 5 + 9 - 7,8,8,6,7,1896.415934400051,1898.4422155000505,1899.9574391000208,1904.977481800015,1905.589416400064,1905.589421299985,1907.1059133000672,1908.123295700061,q,8,0.6119346000486985,1,+10,540,9.42369176023651,-0.5867635909335718,-0.06972197814155767,1661927.0,-2.165196078442243,-0.6555711763361316,0.07982082574428784,1665463.0,9.82274230574628,-0.31706189921880057,-0.09906285186184083,1930463.0,1899.958249860521,1896.4222498605209,2164.958249860521
116,47,20,M,1,2,108.0,32,2,low,4 + 7 + 1 + 1 - 8,5,7,4,5,1909.640113200061,1911.667302099988,1913.1823636000045,1918.2015459999675,1918.821426999988,1918.821432200028,1920.33770090004,1921.3546928999715,e,5,0.6198810000205413,1,+1,541,8.278872898812951,-0.31727391263483984,-0.04134154066523221,1675152.0,20.570544346704533,0.5137803125031155,-0.025821160334734916,1678686.0,1.9355090010753386,-0.5637662058098618,-0.011278562886375632,1847575.0,1913.181249860521,1909.647249860521,2082.070249860521
117,47,20,M,1,2,109.0,33,3,high,3 + 1 + 8 - 5 + 6,13,14,15,13,1922.871468800004,1924.89985190006,1926.4149232000343,1931.4334436999636,1931.813418900012,1931.8134243000527,1933.3298953999763,1934.3470975999955,e,13,0.3799752000486478,1,+10,551,14.651857465524714,-0.7131937758547053,-0.07036921863440027,1688385.0,25.383210543170925,0.2548663961011961,-0.31703299495471127,1691918.0,14.26459330807462,0.9366709621717852,0.18496749542509283,1808472.0,1926.4132498605209,1922.880249860521,2042.967249860521
118,47,20,M,1,2,110.0,34,3,high,3 + 8 + 1 + 5 - 9,8,9,8,7,1935.863815100049,1937.8889075999612,1939.4041408000048,1944.4222518999595,1946.1733510000631,1946.17335669999,1947.689863900072,1948.7073130999925,w,8,1.7510991001036018,1,+10,561,5.279007163777785,-1.0635581360211521,0.22658523130028074,1701374.0,26.814679515845594,0.9678156653204817,-10.445688447597945,1704907.0,-46.377455100625646,-0.2191346357260091,0.09587369820570468,1834544.0,1939.402249860521,1935.869249860521,2069.039249860521
119,47,20,M,1,2,111.0,35,2,high,5 + 7 - 8 + 1 + 1,6,7,6,8,1950.2238715999997,1952.252677600016,1953.7683819000376,1958.7870000000112,1959.1973765,1959.197382000042,1960.7138841999692,1961.7311136999635,w,6,0.41037649998907,1,+10,571,23.24880723672007,-3.246228364321488,1.2284457367104245,1715738.0,7.2796409030411615,-0.7242565307103961,-0.7381079402354311,1719272.0,1.1096432415597253,0.30547722643839137,-0.024969437283348883,1875575.0,1953.767249860521,1950.233249860521,2110.070249860521
120,47,20,M,1,2,112.0,36,3,low,9 + 3 - 4 + 6 + 7,21,21,23,22,1963.248771100072,1965.277327500051,1966.7925953000083,1971.8110078000464,1972.5252891000127,1972.525294800056,1974.0420855999687,1975.0590042000404,q,21,0.7142812999663875,1,+1,572,-0.3533939562502404,0.35114229892155,0.8090028359733594,1728762.0,-42.381612861271826,0.7654281277073052,0.11282538795870556,1732296.0,17.70837379849949,-0.28803397943314746,-0.15280480112260286,1862455.0,1966.791249860521,1963.257249860521,2096.9502498605207
121,47,20,M,1,2,113.0,37,1,low,7 - 1 + 9 + 1 - 1,15,15,13,14,1976.575736799976,1978.6040133000351,1980.1193991999608,1985.1378828000743,1985.6452889000063,1985.6452939000449,1987.1618107999675,1988.1784676000243,q,15,0.5074060999322683,1,+1,573,-2.5598229001012633,-0.7114619486616114,-0.13220302830906006,1742089.0,-11.66161566912063,-0.9808971405115541,-0.13878601924427358,1745623.0,-16.33831834213531,0.2241877774708918,-0.30755345903478126,1752664.0,1980.118249860521,1976.584249860521,1987.159249860521
122,47,20,M,1,3,114.0,0,1,high,2 + 9 + 1 + 1 + 1,14,14,12,13,1993.0327128999636,1995.0584891999608,1996.5734639000148,2001.591352700023,2002.0212961999928,2002.0213016000343,2003.5384076000191,2004.5556977000087,q,14,0.4299434999702498,1,+10,583,-1.335052573477503,-1.6387143969694007,-0.23010306849158324,1758544.0,14.072350642110251,0.09240411458823239,0.5452153233822727,1762076.0,2.197281952330199,-0.6440923740811719,0.419769728334745,1769040.0,1996.571249860521,1993.039249860521,2003.535249860521
123,47,20,M,1,3,115.0,1,4,high,4 + 8 + 9 - 3 + 7,25,24,26,25,2006.072508200072,2008.096078600036,2009.610993899987,2014.629542800016,2015.1732597000664,2015.1732648999896,2016.6898125000296,2017.7071189000271,e,25,0.5437169000506401,1,+10,593,12.52789361283272,0.6740394749871772,-0.007255478006111371,1771581.0,1.4966786639458096,0.1168011355132288,-0.05156233281450362,1775114.0,-27.29358762938088,0.6626305840768474,0.08698067055813641,2036856.0,2009.609249860521,2006.0762498605209,2271.351249860521
124,47,20,M,1,3,116.0,2,1,low,2 + 1 + 1 + 9 - 1,12,12,11,13,2019.223705100012,2021.2500611,2022.7653468999777,2027.78347080003,2028.389250800013,2028.3892566000577,2029.905828700052,2030.922793500009,e,13,0.605779999983497,0,+0,593,-25.505202335189086,-0.34240322095281694,0.1065076724212708,1784735.0,15.614631709693295,-0.622619310718795,-0.03615497831583969,1788268.0,-14.434978564834939,1.8713916530973598,-0.39167615520146026,1821463.0,2022.763249860521,2019.2302498605209,2055.958249860521
125,47,20,M,1,3,117.0,3,3,high,9 - 5 - 1 - 6 + 8,5,5,4,7,2032.4397649000168,2034.465263799997,2035.9805267000336,2040.9987563999605,2041.4532238000536,2041.4532296999823,2042.9702019999968,2043.9873630000511,q,5,0.4544674000935629,1,+10,603,10.892862675118572,0.05375671570680485,0.08615954024026151,1797950.0,17.742910676826728,0.12749715520678517,0.05827503855749705,1801484.0,-7.766678874158133,-0.3973116704795894,-0.1843198723657533,1901767.0,2035.979249860521,2032.445249860521,2136.262249860521
126,47,20,M,1,3,118.0,4,1,high,5 + 1 + 1 + 9 + 1,17,16,19,17,2045.5040810999928,2047.528977000038,2049.0442750999937,2054.0618701999774,2054.4451431999914,2054.445148200029,2055.9612214000663,2056.9785927999765,e,17,0.3832730000140145,1,+10,613,-2.7906447971172383,-1.2456678617232093,0.0726433949894687,1811014.0,-3.764798446048818,-0.004043914457406039,-0.17654478046517186,1814547.0,3.2246811622178786,-3.4865057662668812,0.47267928510525836,1957047.0,2049.0422498605208,2045.5092498605209,2191.5422498605208
127,47,20,M,1,3,119.0,5,3,high,5 + 1 + 7 - 8 + 6,11,13,11,9,2058.495792199974,2060.522128700046,2062.0372640000423,2067.05568520003,2067.525119800004,2067.525125000044,2069.041671999963,2070.058933299966,w,11,0.4694345999741927,1,+10,623,16.056552412346957,-0.38858697990542357,0.044285686411722924,1824007.0,4.760151668839082,-0.24213554033576834,0.2150132392041082,1827540.0,13.807675595725115,-0.7367435817223429,0.12879975880715877,1996711.0,2062.0352498605207,2058.502249860521,2231.206249860521
128,47,20,M,1,3,120.0,6,2,low,7 + 6 + 1 - 1 - 8,5,3,5,4,2071.575677099987,2073.603163499967,2075.118351500016,2080.1368313999847,2080.55707910005,2080.557084299973,2082.073673099978,2083.090566699975,w,5,0.4202477000653744,1,+1,624,-6.237115157025216,-0.6226141241614709,0.2780369247954755,1837088.0,4.543456159301435,-0.31503681831666075,-0.2560873201402134,1840622.0,-10.837966566323331,-0.5364820976767319,0.029478426886419218,1943599.0,2075.117249860521,2071.583249860521,2178.094249860521
129,47,20,M,1,3,121.0,7,3,high,6 - 1 + 7 - 8 + 9,13,12,13,11,2084.6074138999684,2086.632936400012,2088.1484854000155,2093.1685967000667,2095.437063700054,2095.4370690999785,2096.953187700012,2097.9700650000013,w,13,2.2684669999871403,1,+10,634,6.111438109212014,-0.31751079428530016,-0.10759686134873259,1850118.0,2.0099259451582565,-0.6523505106847711,0.053865007779019036,1853653.0,-55.64792450629599,-0.024620824092853155,-0.07320016097683668,2062950.0,2088.148249860521,2084.6132498605207,2297.4452498605206
130,47,20,M,1,3,122.0,8,2,high,2 + 9 + 1 + 1 - 5,8,6,7,8,2099.486855200026,2101.5135159000056,2103.0288383000297,2108.047578800004,2108.5569942999864,2108.5569997000275,2110.073396099964,2111.0908016000176,e,8,0.5094154999824241,1,+10,644,20.964775414057154,-1.068336216256986,0.10007026273024366,1864998.0,-7.137454045857432,-0.2310480829031949,-0.44003077022099735,1868533.0,-20.386768465887073,-0.07463755235852965,-0.22282180626044545,1970111.0,2103.0282498605206,2099.493249860521,2204.606249860521
131,47,20,M,1,3,123.0,9,4,high,7 + 6 - 4 + 9 - 5,13,14,13,12,2112.6075398999965,2114.6333090000558,2116.1482341999654,2121.168239300023,2121.557025599992,2121.5570308000315,2123.073609999963,2124.091364699998,w,13,0.3887862999690696,1,+10,654,7.4287133550258915,0.07851859297800612,0.022764780555511566,1878118.0,-6.984796645271651,-0.6978051129313503,-0.4253169295307766,1881653.0,7.721106600019928,-0.8881782557991862,-0.07475854997165365,2049959.0,2116.148249860521,2112.6132498605207,2284.4542498605206
132,47,20,M,1,3,124.0,10,3,high,7 - 1 + 8 - 6 + 4,12,12,13,11,2125.6081504999893,2127.63016489998,2129.145445900038,2134.164046299993,2134.748952200054,2134.748957599979,2136.265715299989,2137.282880000072,q,12,0.5849059000611305,1,+10,664,7.301749082696155,0.1487347618283339,-0.0106424910316818,1891115.0,-1.5652322049710943,0.06665449040005456,-0.022522972728024726,1894649.0,31.271227241308654,0.022464686485632157,0.00868933963536489,2103222.0,2129.1442498605206,2125.610249860521,2337.717249860521
133,47,20,M,1,3,125.0,11,4,high,7 + 8 - 4 + 6 + 5,22,22,23,21,2138.799756100052,2140.822168100043,2142.3373914000117,2147.355588000035,2148.189003000036,2148.1890080999583,2149.754992900067,2150.7719622000586,q,22,0.8334150000009686,1,+10,674,15.753458273149395,0.6163164851450187,-0.08880249213104219,1904307.0,-33.33773911483108,-1.0813242322252883,0.10718437926468294,1907840.0,1.3189192434200372,-0.048633897281887606,0.08519569798697302,2076143.0,2142.335249860521,2138.802249860521,2310.638249860521
134,47,20,M,1,3,126.0,12,4,low,3 + 8 - 4 + 9 + 7,23,23,24,22,2152.2883466000203,2154.3153327000327,2155.8309915000573,2160.8493191000307,2163.444922600058,2163.44492759998,2164.961848300067,2165.979269600008,q,23,2.595603500027209,1,+1,675,-47.41196985167091,-0.10356268014708547,0.08130115605910615,1917800.0,-51.7163321747528,0.2892034170201381,0.021567603936440083,1921334.0,9.877407572125154,1.3176771458410292,-0.08115984168225143,2090166.0,2155.829249860521,2152.295249860521,2324.661249860521
135,47,20,M,1,3,127.0,13,2,low,9 + 6 + 1 + 7 + 1,24,25,24,23,2167.4961723000742,2169.523560000001,2171.038816699991,2176.056785600027,2176.5809800999705,2176.5809860000154,2178.097527500009,2179.114359500003,w,24,0.5241944999434054,1,+1,676,-13.41549223442452,-0.6170170577629905,-0.09717880447381333,1933008.0,50.62415488290269,0.6344991811409635,0.008228791974063121,1936541.0,23.055829912585256,-0.6782865815803722,-0.03845837894419879,2156806.0,2171.036249860521,2167.503249860521,2391.301249860521
136,47,20,M,1,3,128.0,14,1,high,6 + 1 + 1 + 9 - 1,16,14,15,16,2180.6440789999906,2182.669860000024,2184.1850607000524,2189.2031949000666,2190.0289552999893,2190.028960800031,2191.54552220006,2192.5625909999944,e,16,0.8257603999227285,1,+10,686,-19.059500959664195,-0.47692033319104876,0.03877007894621998,1946154.0,9.925738850306187,-2.456127429148821,0.05319438073873406,1949688.0,-9.084084761036475,0.7818993373800289,0.06258951046740524,1983152.0,2184.183249860521,2180.6492498605207,2217.647249860521
137,47,20,M,1,3,129.0,15,2,high,3 - 1 + 9 - 5 + 1,7,5,6,7,2194.0793989000376,2196.10711360001,2197.622348200064,2202.6401606000727,2203.0929198999656,2203.092925200006,2204.6094387000194,2205.626700700028,e,7,0.4527592998929322,1,+10,696,-5.353567319928809,1.4468741052951968,-0.37200132400168995,1959592.0,26.613176445622827,-0.1622037049898042,-0.12956633024613895,1963125.0,-6.127797477048675,-0.8265162036669214,0.06479432571728028,2169846.0,2197.6202498605207,2194.087249860521,2404.3412498605207
138,47,20,M,1,3,130.0,16,1,high,2 + 1 + 9 + 1 + 1,14,12,13,14,2207.1434518999886,2209.1704340999718,2210.6855805000523,2215.703529000049,2216.1169423999963,2216.116947800037,2217.633350500022,2218.6669669999974,e,14,0.4134133999468758,1,+10,706,-0.6824216764134761,0.13883997026395622,-0.07561995936446708,1972655.0,-23.247285782706705,-0.5430050450685862,0.058120649266987456,1976188.0,0.8469853514098227,0.08735910720652651,0.4849555607326477,2009734.0,2210.683249860521,2207.150249860521,2244.2292498605207
139,47,20,M,1,3,131.0,17,3,low,5 + 6 + 7 - 1 - 9,8,8,9,7,2220.1837028000737,2222.207898500026,2223.723046600004,2228.741472600028,2229.6928041999927,2229.692809500033,2231.2098760000663,2232.226433700067,q,8,0.9513315999647602,1,+1,707,-19.546177985815905,0.02295472288938072,-0.1501685846832166,1985692.0,6.819637586934392,0.7202866149418288,-0.07070184286834746,1989226.0,-51.45827334667601,-0.9512334889446761,-0.09311488895627185,2116406.0,2223.721249860521,2220.1872498605208,2350.9012498605207
140,47,20,M,1,3,132.0,18,1,low,6 + 1 + 8 + 1 + 1,17,17,16,15,2233.7429826000007,2235.772013699985,2237.2872834000736,2242.3044692999683,2242.7167880999623,2242.716793400002,2244.232938800007,2245.2499805999687,q,17,0.4123187999939546,1,+1,708,5.0065625418983775,-0.5674792022364796,0.7447919572634625,1999256.0,37.319060346724775,1.071461802556831,-0.1753221731740613,2002790.0,8.678451200160161,-0.8290228740888681,-0.1462388671521233,2209101.0,2237.2852498605207,2233.751249860521,2443.596249860521
141,47,20,M,1,3,133.0,19,4,low,2 + 9 - 6 + 8 - 4,9,9,11,7,2246.766777100041,2248.794521100004,2250.3104593000608,2255.328801500029,2256.740708000026,2256.740713400068,2258.2571106000105,2259.274411899969,w,11,1.411906499997713,0,+0,708,3.6749505214835487,0.3674672516989608,-0.327910346692752,2012279.0,-16.571924876684015,1.0250879987634836,0.07087013026521083,2015813.0,-16.394179535121822,-0.9411390647266931,-0.11085882381379664,2130574.0,2250.308249860521,2246.7742498605207,2365.069249860521
142,47,20,M,1,3,134.0,20,4,high,9 + 8 - 5 - 7 + 6,11,13,11,10,2260.7912469999865,2262.8197107999586,2264.3350315999705,2269.353312100051,2269.836847900064,2269.8368532999884,2271.35425199999,2272.371692599961,w,11,0.4835358000127598,1,+10,718,6.724379932927604,0.7431697234535752,0.08941372548036797,2026304.0,-17.46198967680074,0.6498121935756114,-0.03400147300187073,2029838.0,-17.382723434518592,-7.524801817246042,0.09794541990634809,2235254.0,2264.333249860521,2260.799249860521,2469.7492498605206
143,47,20,M,1,3,135.0,21,4,low,5 + 9 - 4 + 7 + 6,23,24,25,23,2273.8881274999585,2275.916358100017,2277.4313819999807,2282.4497650000267,2282.940879200003,2282.940888699959,2284.4574064000044,2285.4743677000515,e,23,0.4911141999764368,1,+1,719,22.288196973864338,1.6502902050934543,0.020462816188493882,2039401.0,-16.989965295466746,-1.403375996199287,-0.14512215402028272,2042934.0,-2.6685601084521586,-0.7366545925980041,-0.0630971809373595,2249206.0,2277.429249860521,2273.896249860521,2483.701249860521
144,47,20,M,1,3,136.0,22,3,low,8 + 4 + 1 - 7 + 9,15,16,15,13,2286.991114099976,2289.0193108000094,2290.5345877000364,2295.553754499997,2295.9326916000573,2295.932696899981,2297.4490595000098,2298.4660845999606,w,15,0.3789371000602841,1,+1,720,15.718636856666615,0.7878897576207606,1.3625071535749276,2052503.0,15.973041895846269,1.8645964809713833,-5.05186846410843,2056037.0,22.853432276301614,-0.6502409345639562,-0.010548112587981828,2143687.0,2290.5322498605206,2286.998249860521,2378.1822498605206
145,47,20,M,1,3,137.0,23,4,low,8 + 7 - 4 + 5 + 9,25,25,24,26,2299.982841599965,2302.009003599989,2303.524067600025,2308.5430255000247,2309.12468899996,2309.1246948000044,2310.6412279000506,2311.658291000058,q,25,0.5816634999355301,1,+1,721,-13.408528487231738,1.4602504647537051,0.08088822929091322,2065493.0,-25.614126416749706,-0.2635035507770125,-0.021405157561668275,2069027.0,-10.568355251814856,-1.0554863813156201,-0.5644817212401994,2278669.0,2303.522249860521,2299.9882498605207,2513.1642498605206
146,47,20,M,1,3,138.0,24,4,low,4 + 9 - 7 + 8 + 5,19,20,21,19,2313.1752867000178,2315.199999900069,2316.715369499987,2321.733878700062,2323.1487107999856,2323.1487163000274,2324.665339500061,2325.6820960000623,e,19,1.414832099922933,1,+1,722,4.326209127747825,2.041215223129292,-0.014405800208202146,2078684.0,39.62189548844213,0.23642474949979597,0.08784640293437107,2082218.0,-4.237659533772494,1.080989063620283,0.07876872854224626,2292118.0,2316.7132498605206,2313.179249860521,2526.6132498605207
147,47,20,M,1,3,139.0,25,3,low,7 - 5 + 9 + 1 - 4,8,9,7,8,2327.19879230007,2329.2247717999853,2330.739832099993,2335.758907899959,2336.204621899989,2336.2046270000283,2337.721139200032,2338.7379214999964,e,8,0.4457140000304207,1,+1,723,1.2527183835764184,-0.373563562262361,-0.0738515718094317,2092709.0,4.553205828609073,0.005181283926340541,-0.15542478443822083,2096242.0,3.584263383315969,1.4407879595660678,-0.08509542436213047,2196102.0,2330.737249860521,2327.2042498605206,2430.5972498605206
148,47,20,M,1,3,140.0,26,3,high,3 + 1 + 8 - 5 + 9,16,15,17,16,2340.254642200074,2342.279607200064,2343.7949239000445,2348.812825500034,2349.388614600058,2349.388619699981,2350.9050859999843,2351.9221538000274,e,16,0.5757891000248492,1,+10,733,-28.723767496795602,0.04013951869426613,-0.066035932544664,2105764.0,0.8199873671007545,-0.7455535517629688,0.08901202295067634,2109297.0,19.87728368474288,-0.7740969073556379,0.045394963447306313,2262254.0,2343.7922498605208,2340.259249860521,2496.7492498605206
149,47,20,M,1,3,141.0,27,4,low,7 + 6 - 9 + 8 - 3,9,8,9,7,2353.439156900044,2355.467479199986,2356.982836700045,2362.002557400032,2363.556627699989,2363.5566330000293,2365.0731582000158,2366.090102200047,w,9,1.5540702999569476,1,+1,734,14.359407186318867,-1.5047505735947055,0.3167881546046931,2118952.0,2.919394309849878,0.75768806918619,-0.19579701850568254,2122486.0,6.13765105073488,-0.9169238288748467,-0.04619748951846403,2361046.0,2356.9812498605206,2353.447249860521,2595.5412498605206
150,47,20,M,1,3,142.0,28,3,high,3 + 8 - 7 + 1 + 9,14,13,14,12,2367.606514299987,2369.634455500054,2371.1497442000546,2376.1683919000207,2376.66864779999,2376.668653400033,2378.1854416000424,2379.2033045999706,w,14,0.5002558999694884,1,+10,744,58.05568489550961,0.1707279200161791,2.3336342727935557,2133119.0,18.34658496808833,-6.346577072309891,-0.9397976264804977,2136652.0,-2.2009149376812083,-0.39436304668629507,0.09582565320291869,2345453.0,2371.147249860521,2367.614249860521,2579.9482498605207
151,47,20,M,1,3,143.0,29,2,high,9 + 5 - 6 + 1 - 1,8,7,9,8,2380.720123899984,2382.7476846000645,2384.262891500024,2389.281009200029,2389.7884812999982,2389.7884866000386,2391.30493740004,2392.322277200059,e,8,0.5074720999691635,1,+10,754,-13.391824642799886,0.6988684075412008,0.027873778815396655,2146232.0,1.593729954302809,-0.5624397727819517,-0.12654659529462875,2149765.0,-8.04650552533047,2.1257479066964216,0.21588863526691382,2183062.0,2384.2602498605206,2380.7272498605207,2417.5572498605206
152,47,20,M,1,3,144.0,30,2,high,6 + 1 + 7 + 5 - 1,18,16,18,17,2393.8390545999864,2395.8639802000253,2397.3792332999874,2402.3974451000104,2402.828529700055,2402.8285346999764,2404.344871200039,2405.362126099993,w,18,0.4310846000444144,1,+10,764,-37.595726817148694,3.232925122014767,-0.2646402764477096,2159348.0,-49.65798679865813,0.31962643420873604,-0.04570176653804636,2162882.0,-40.15084110018294,0.26668929883471293,0.07914344447144073,2222214.0,2397.377249860521,2393.8432498605207,2456.7092498605207
153,47,20,M,1,3,145.0,31,2,high,2 + 1 + 9 - 4 + 1,9,11,9,8,2406.878588299965,2408.905362599995,2410.4211815000745,2415.439347499981,2416.044466700056,2416.044471799978,2417.560494999984,2418.5779756000265,w,9,0.6051192000741139,1,+10,774,-29.82052592155877,-0.020952297390661734,0.1362967050980386,2172390.0,41.045979588420664,-0.18502071671252462,-0.026418414170951587,2175923.0,2.1836835302207174,-0.11474605123369974,0.51635571842667,2305141.0,2410.4182498605205,2406.8852498605206,2539.636249860521
154,47,20,M,1,3,146.0,32,3,low,4 + 5 - 3 + 7 - 1,12,11,13,12,2420.0942440000363,2422.121767500066,2423.6369247999974,2428.655961200013,2429.08444710006,2429.0844521999825,2430.600901399972,2431.617705099983,e,12,0.4284859000472352,1,+1,775,70.41117556016857,-0.752653333335954,0.12691608192653803,2185606.0,0.8345184619797514,0.23711259032363063,-0.00913327252377627,2189140.0,-1.1273664044868075,1.0776451905661988,-2.5932422449848094,2374173.0,2423.6352498605206,2420.101249860521,2608.6682498605205
155,47,20,M,1,3,147.0,33,1,low,7 - 1 + 8 + 1 - 1,14,13,12,14,2433.134533100063,2435.161012800061,2436.676205900032,2441.6964987000683,2442.084433500073,2442.0844389999984,2443.600576200057,2444.617444199976,e,14,0.3879348000045866,1,+1,776,-49.870576183964104,1.1345387300460903,-0.07170919674398979,2198645.0,-7.041517080686166,-0.15306340143232067,-0.10069180521716303,2202180.0,3.039546432511912,0.11920666936150504,0.1545451828005877,2387197.0,2436.6752498605206,2433.1402498605207,2621.692249860521
156,47,20,M,1,3,148.0,34,2,low,8 + 1 + 9 + 1 - 4,15,15,16,14,2446.1342223000247,2448.162005600054,2449.677364300005,2454.695505700074,2455.1964863999747,2455.196491700015,2456.712807300035,2457.7296663000016,q,15,0.5009806999005377,1,+1,777,38.09311186582081,0.29380612299750286,0.15372550997446366,2211645.0,-15.424730769228836,-0.11105139508658635,0.006596194972182667,2215179.0,9.482146751703013,-0.5434956591031153,0.031103550198952057,2332382.0,2449.674249860521,2446.1402498605207,2566.877249860521
157,47,20,M,1,3,149.0,35,4,low,3 + 9 - 5 + 8 - 7,8,7,9,8,2459.246557699982,2461.2718626999995,2462.787582500023,2467.8080464999657,2468.2363519000355,2468.23635729996,2469.7536516999826,2470.770126700052,e,8,0.428305400069803,1,+1,778,-7.719152976762128,-0.32406704245073303,0.058375230242329934,2224756.0,5.198630941850965,0.8581734163183556,0.18957780759142184,2228292.0,0.4747080489262334,0.43848067746716257,0.00022951778223312402,2426469.0,2462.7872498605207,2459.2512498605206,2660.964249860521
158,47,20,M,1,3,150.0,36,4,high,8 + 3 - 4 + 5 + 9,21,23,21,22,2472.2867901000427,2474.314141800045,2475.829431000049,2480.8474516000133,2482.188347300049,2482.1883526999736,2483.7048566000303,2484.722533400054,w,21,1.3408957000356168,1,+10,788,-12.414607802078702,0.15184965645408344,-7.811797613892436,2237798.0,2.5436153797881973,-0.06911000121766975,0.32446823894738874,2241331.0,-16.766324326340325,-0.2773247644763783,-0.18661845875505545,2598988.0,2475.826249860521,2472.2932498605205,2833.4832498605206
159,47,20,M,1,3,151.0,37,3,high,8 + 5 + 1 - 7 + 9,16,16,17,14,2486.239831999992,2488.263545199996,2489.778743600007,2494.7963801000733,2495.236326100072,2495.236331399996,2496.753072599997,2497.770039899973,q,16,0.4399459999985993,1,+10,798,11.063853399036645,-0.05304007505798314,-0.062427546417180624,2251747.0,-7.821619655907224,-0.7965432288166205,0.22755408350868134,2255281.0,-5.9070685188897265,-0.761167089141507,0.0205973861307025,2454214.0,2489.7762498605207,2486.2422498605206,2688.7092498605207
160,47,20,M,1,4,152.0,0,4,low,8 + 4 + 7 - 5 - 6,8,9,8,6,2502.655894699972,2504.685194700025,2506.2003896000097,2511.220613799989,2511.652277300018,2511.6522830000613,2513.1687859999947,2514.185656100046,w,8,0.4316635000286624,1,+1,799,9.842328380486844,-0.04994388051468057,0.005869911380632864,2268168.0,-3.8838350418722953,-0.26720709297418477,0.007350772606587785,2271704.0,-15.948731105807035,1.2468904513026953,-0.02705523367707241,2625661.0,2506.199249860521,2502.663249860521,2860.156249860521
161,47,20,M,1,4,153.0,1,4,high,4 + 7 + 8 - 3 + 9,25,24,25,26,2515.702432299964,2517.7302113999613,2519.245430400013,2524.26396380004,2525.100257000071,2525.1002659000224,2526.617291399976,2527.634802800021,w,25,0.8362932000309229,1,+10,809,3.2718418846137034,0.6694355072356837,0.17524845185870053,2281214.0,23.101538927082444,-1.08857145472013,-10.009649229130135,2284748.0,-47.38925096982966,0.5890802809761997,-0.04037961129492462,2747452.0,2519.243249860521,2515.7092498605207,2981.947249860521
162,47,20,M,1,4,154.0,2,2,high,5 + 1 + 7 - 6 + 1,8,6,8,7,2529.1516967000207,2531.1780531000118,2532.693310900009,2537.7131593000377,2538.1242119000526,2538.124217399978,2539.6404503000667,2540.657703200006,w,8,0.4110526000149548,1,+10,819,14.104901813313626,0.2786486587793977,0.19015712776584914,2294661.0,10.313658424880229,-0.008604612758691843,-0.07908665078156196,2298197.0,8.808783965557243,0.6090300194541003,-0.18725608513373593,2400317.0,2532.692249860521,2529.156249860521,2634.8122498605208
163,47,20,M,1,4,155.0,3,4,high,4 + 7 - 8 + 9 - 4,8,7,8,9,2542.174696100061,2544.201626900001,2545.7168321000645,2550.735555800027,2552.1642251999583,2552.1642305999994,2553.6806879000505,2554.697748100036,e,9,1.4286693999310955,0,+0,819,-24.756591937367762,-0.10536508631746244,-0.1086100826045926,2307686.0,26.284778499441988,0.19776721577648626,-0.45169077920467116,2311219.0,-8.97437040364322,0.22398398500532135,0.1526885190861227,2789964.0,2545.714249860521,2542.181249860521,3024.4592498605207
164,47,20,M,1,4,156.0,4,2,low,7 + 5 + 1 + 9 + 1,23,23,21,22,2556.213980200002,2558.239834300009,2559.7552238999638,2564.773254,2565.364254200016,2565.36425990006,2566.8809262000723,2567.8976431000046,q,23,0.5910002000164241,1,+1,820,3.853835921245203,0.6701919618951848,-0.012002204519039772,2321724.0,-56.31092813899766,-0.18237754650820914,-0.08490072685266647,2325257.0,-16.401162232390284,0.047205878245520694,0.11921443137659726,2413453.0,2559.752249860521,2556.219249860521,2647.9482498605207
165,47,20,M,1,4,157.0,5,3,low,3 + 1 + 6 - 8 + 9,11,13,12,11,2569.4144392000744,2571.44184460002,2572.9569612999912,2577.976021700073,2578.436222500052,2578.4362277999758,2579.952585299965,2580.9696522000013,e,11,0.4602007999783382,1,+1,821,-2.8310125236783996,3.6914411919313697,0.8660120685817514,2334925.0,-8.762470003092554,0.23270142547698747,-0.034984294612266265,2338459.0,-2.62623342847702,0.7290620455793917,0.4894508354194067,2559861.0,2572.9542498605206,2569.420249860521,2794.3562498605206
166,47,20,M,1,4,158.0,6,4,low,2 + 9 - 4 + 8 + 7,22,23,21,22,2582.4860989999725,2584.514267900028,2586.0291801000712,2591.047745899996,2594.0281989000505,2594.0282044999767,2595.54591310001,2596.5629479000345,e,22,2.9804530000546947,1,+1,822,1.6966126865075157,-4.754255015699935,0.54177773075364,2347998.0,6.5252577729093755,-0.30490718074288914,-0.22474235641495133,2351531.0,,,,,2586.0262498605207,2582.493249860521,
167,47,20,M,1,4,159.0,7,3,low,7 + 5 + 9 + 1 - 6,16,14,15,16,2598.079755000072,2600.1060956000583,2601.621410700027,2606.639643499977,2607.156135200057,2607.1561403999804,2608.6727012000047,2609.689423899981,e,16,0.5164917000802234,1,+1,823,-81.41665557500141,-1.396547237262368,-0.1422221352524493,2363590.0,-35.24087383253101,-0.31966545938560964,-0.06416932834426081,2367123.0,-49.650906925690464,0.6034642332229652,0.14448142300732703,2612020.0,2601.618249860521,2598.085249860521,2846.5152498605207
168,47,20,M,1,4,160.0,8,1,low,4 + 7 + 1 - 1 - 1,10,9,11,10,2611.206192899961,2613.234326099977,2614.7504173000343,2619.768492500065,2620.180332100019,2620.1803378000623,2621.6965192999924,2622.713412399986,e,10,0.4118395999539643,1,+1,824,7.983454489501564,0.4677402433748066,-0.5768363147671023,2376718.0,15.135732454007908,0.4155130234340927,-0.10062719397553233,2380252.0,-9.327692944182825,-2.5749579127294693,-1.1717322468401132,2481085.0,2614.7472498605207,2611.2132498605206,2715.580249860521
169,47,20,M,1,4,161.0,9,2,low,9 + 6 + 1 + 7 + 1,24,24,23,25,2624.2301886000205,2626.258951600059,2627.7739293000195,2632.7916648000246,2633.300098399981,2633.300104000024,2634.816910500056,2635.8335259000305,q,24,0.5084335999563336,1,+1,825,1.6519914856211066,0.4830999403113445,-0.1460970988208783,2389742.0,-12.092269385058897,-0.02241802301533191,-0.07232066712686347,2393275.0,29.41715685892222,-2.329217673255192,1.294711378305895,2440981.0,2627.770249860521,2624.237249860521,2675.476249860521
170,47,20,M,1,4,162.0,10,2,high,2 + 1 + 9 - 4 + 1,9,9,11,8,2637.350338199991,2639.3763289999915,2640.891626800061,2645.9113978999667,2646.4361210999778,2646.4361263000173,2647.952820800012,2648.969877799973,q,9,0.5247232000110671,1,+10,835,-23.03912229251086,-0.740562303726831,0.10403360765159109,2402860.0,-22.576723386509016,-0.12819931008105812,-0.06911204463217602,2406395.0,-37.582312535322274,0.9308999853513393,0.03533297715631223,2467997.0,2640.8902498605207,2637.355249860521,2702.4922498605206
171,47,20,M,1,4,163.0,11,4,low,5 + 7 - 4 + 8 + 6,22,22,24,23,2650.4866309000645,2652.511386499973,2654.0265803000657,2659.0449287999654,2659.4519779999973,2659.4519826000324,2660.9684899999997,2661.985139099997,q,22,0.4070492000319063,1,+1,836,8.802808362253765,-0.1736917034487382,0.04505758300287854,2415995.0,-20.44401114102823,0.39582950412038365,0.30075959862024515,2419529.0,,,,,2654.0242498605207,2650.4902498605206,
172,47,20,M,1,4,164.0,12,2,low,4 + 1 + 9 + 1 - 6,9,7,8,9,2663.502154799993,2665.530992600019,2667.04627609998,2672.0639621000737,2673.964016300044,2673.964021599968,2675.480338399997,2676.4969583000056,e,9,1.9000541999703275,1,+1,837,25.054248436745333,-0.6678619833964463,0.12290296206248641,2429014.0,21.748499361784553,-0.051967178916254575,-0.09926436386180204,2432548.0,-23.103700785038107,0.49611068926754776,-1.4610732187067255,2520093.0,2667.0432498605205,2663.509249860521,2754.5882498605206
173,47,20,M,1,4,165.0,13,3,low,7 + 1 + 9 + 5 - 6,16,16,15,14,2678.0138099000324,2680.041891500005,2681.557088500005,2686.5751080999617,2687.1959718000144,2687.195977400057,2688.713634800049,2689.730529900058,q,16,0.6208637000527233,1,+1,838,-0.6101018509069451,0.698224981256355,-0.1432438288563156,2443526.0,-14.724521974713177,-1.783814324939553,-0.057371369306164155,2447059.0,5.557228902132436,2.7896576114456266,1.4417483969815121,2639404.0,2681.554249860521,2678.0212498605206,2873.8992498605207
174,47,20,M,1,4,166.0,14,2,high,6 + 1 + 1 + 7 - 9,6,6,4,8,2691.2473303000443,2693.2745141000487,2694.789592599962,2699.80820910004,2700.9799652000656,2700.979970799992,2702.496472200029,2703.51418389997,q,6,1.171756100025959,1,+10,848,24.66406826715662,-0.20520208898883308,-0.17350211384802683,2456758.0,0.5532018876084095,0.32467702521832553,0.05753998478975686,2460292.0,-17.94161123612449,0.5550457851409947,0.014709397726968332,2546341.0,2694.7872498605207,2691.2532498605206,2780.8362498605206
175,47,20,M,1,4,167.0,15,1,low,7 + 1 + 4 + 1 - 1,12,13,11,12,2705.0315990999807,2707.059702300001,2708.575015600072,2713.5935430000536,2714.068001799984,2714.068007200025,2715.5844473000616,2716.601047000033,e,12,0.4744587999302894,1,+1,849,-93.58413050609823,0.6174329788187674,0.025529389665413404,2470543.0,-3.8325540733922274,-0.9072456240610043,-0.23755576583929772,2474077.0,0.10372164861466726,0.293655326196153,-0.30197406459916554,2494029.0,2708.572249860521,2705.038249860521,2728.5242498605207
176,47,20,M,1,4,168.0,16,1,high,3 + 1 + 1 + 9 - 1,13,14,13,12,2718.11768070003,2720.1451465999708,2721.6599494999973,2726.678052300005,2727.0119664999656,2727.0119716000045,2728.5280374999857,2729.5452435000334,w,13,0.333914199960418,1,+10,859,24.046851808181312,-0.5005723383962772,0.14081473361228047,2483628.0,6.014686682162889,-0.8408769532002323,-0.27901957115218456,2487161.0,-10.596965228015183,-0.15287843923857913,0.0294353397935061,2507022.0,2721.656249860521,2718.123249860521,2741.5172498605207
177,47,20,M,1,4,169.0,17,1,high,6 + 9 + 1 + 1 - 1,16,15,14,16,2731.06197489996,2733.08608430007,2734.601038899971,2739.618999700062,2740.0039917000104,2740.003997300053,2741.5210147000616,2742.5383380000712,e,16,0.3849919999483973,1,+10,869,6.380698360532259,-0.5296678381370228,-0.032764229558591484,2496570.0,-23.061216705304265,-0.32707894632685885,-0.01944787380065849,2500102.0,7.890997545486955,1.1140010276196017,0.24745505390010547,2533230.0,2734.5972498605206,2731.065249860521,2767.7252498605208
178,47,20,M,1,4,170.0,18,2,high,3 + 9 + 1 - 5 + 1,9,8,7,9,2744.0550516999792,2746.081497400068,2747.596616700059,2752.6146148999687,2753.075936299981,2753.0759418000234,2754.5923993999604,2755.609158999985,e,9,0.4613214000128209,1,+10,879,-9.512492061704563,0.4518830860886265,0.0011197473415154313,2509565.0,14.497462353072477,0.14286069338018503,0.008796368241806185,2513098.0,0.5002256163807193,-0.20469504774840175,0.6036144251331286,2653396.0,2747.5932498605207,2744.060249860521,2887.891249860521
179,47,20,M,1,4,171.0,19,1,low,8 + 1 + 1 - 1 - 4,5,6,5,3,2757.125974399969,2759.1533331000246,2760.6685394999804,2765.686771500041,2766.211880699964,2766.211886300007,2767.728926000069,2768.7464897000464,w,5,0.5251091999234632,1,+1,880,-31.481452589412807,0.42478834976533175,-0.16392435713186337,2522637.0,6.767935970906082,0.32668001642016087,-0.013530287937258079,2526170.0,-19.007134615908594,-0.40339863934138265,0.09388636496418457,2572940.0,2760.665249860521,2757.132249860521,2807.435249860521
180,47,20,M,1,4,172.0,20,2,low,7 + 5 + 1 - 1 - 8,4,4,3,2,2770.2629734000657,2772.2913700999925,2773.805444800062,2778.8239471999696,2779.323868600069,2779.323873899993,2780.840506899985,2781.8575693999883,q,4,0.4999214000999927,1,+1,881,20.282226283206004,-0.5206592649295629,0.7736988960062514,2535774.0,-20.146468773726884,-0.17156543247378853,0.0394366712427503,2539307.0,-9.020280684334956,0.07388658495006872,-0.007042084537764559,2773740.0,2773.8022498605205,2770.2692498605206,3008.2352498605205
181,47,20,M,1,4,173.0,21,3,high,6 + 8 + 7 + 1 - 9,13,13,14,15,2783.374471700052,2785.4006489999592,2786.9158745000605,2791.933986900025,2792.8437983000185,2792.8438033000566,2794.3602709000697,2795.3774771000026,q,13,0.9098113999934868,1,+10,891,-16.401285601546377,-0.3829745263401527,-0.08346844404242004,2548884.0,-28.925711083972807,-0.9654832401301618,-0.5762237131873675,2552418.0,-12.558934621813062,-0.7837457832099073,-0.8983976415898072,2693516.0,2786.913249860521,2783.3792498605208,2928.011249860521
182,47,20,M,1,4,174.0,22,1,low,7 + 1 + 4 + 1 - 1,12,12,14,13,2796.8944457999896,2798.922269299976,2800.43761230004,2805.455403400003,2805.9237664999678,2805.923771600006,2807.440231100074,2808.4578975000186,q,12,0.4683630999643355,1,+1,892,3.7751925350903366,-2.5913255714863705,0.8711319747720081,2562406.0,-0.929825236932067,0.7578206604956348,-1.2622933568195087,2565939.0,-23.98186784425596,0.3605358885604568,0.008867369526514679,2585917.0,2800.4342498605206,2796.9012498605207,2820.4122498605207
183,47,20,M,1,4,175.0,23,1,high,4 + 1 + 1 + 7 - 1,12,14,12,13,2809.9750426000683,2812.001283299993,2813.516841200064,2818.536636600038,2818.8996998000657,2818.8997050999897,2820.4164663000265,2821.4344950000523,w,12,0.3630632000276819,1,+10,902,-16.55864679104749,-0.21643091327972996,0.13468988331423182,2575484.0,3.2825149781406022,0.5714098037445821,-0.10401910709924111,2579020.0,11.000467745068875,0.24467953779731744,0.10506721725675483,2667388.0,2813.5152498605207,2809.9792498605207,2901.8832498605207
184,47,20,M,1,4,176.0,24,4,low,5 + 6 - 4 + 7 + 9,23,25,23,24,2822.9512727999827,2824.978869899991,2826.494098199997,2831.512405600049,2831.9717698000604,2831.971775599988,2833.488298500073,2834.505199700012,w,23,0.4593642000108957,1,+1,903,1.0859309852934376,0.2364561379781307,0.19760693795998518,2588462.0,6.0261855668472455,0.6833751656282852,-0.2166304795261973,2591996.0,,,,,2826.491249860521,2822.9572498605207,
185,47,20,M,1,4,177.0,25,3,high,2 + 9 - 3 + 4 + 1,13,14,11,13,2836.021850000019,2838.04853140004,2839.563884100062,2844.582265799981,2845.0036988999927,2845.0037052000407,2846.519943900057,2847.5371880000457,e,13,0.4214331000111997,1,+10,913,10.736394154318813,-0.3071935030794064,0.8357703108018701,2601532.0,-9.471979134472527,-0.4667753319356125,0.017721534497960434,2605065.0,,,,,2839.560249860521,2836.027249860521,
186,47,20,M,1,4,178.0,26,4,low,5 + 7 - 4 + 6 + 9,23,25,24,23,2849.0539384000003,2851.081967200036,2852.5970174999675,2857.615485099959,2858.643979400047,2858.643984899973,2860.1607474000198,2861.1777239000658,e,23,1.028494300087914,1,+1,914,5.260294637640987,1.789745848626954,-4.050789769790561,2614565.0,21.739461113070124,0.5706531662177405,-0.11338941594998664,2618099.0,,,,,2852.594249860521,2849.060249860521,
187,47,20,M,1,4,179.0,27,3,high,2 + 9 + 1 - 5 + 7,14,15,14,12,2862.6944972999627,2864.721805599984,2866.237013700069,2871.255336800008,2872.387634200044,2872.3876395999687,2873.90405979997,2874.9213380999863,w,14,1.1322974000358954,1,+10,924,20.051574855480833,-0.23037674881716352,0.0912586563624409,2628205.0,8.2113996928129,-0.6066782907658368,-0.08622386652526304,2631738.0,,,,,2866.2332498605206,2862.7002498605207,
188,47,20,M,1,4,180.0,28,2,high,5 + 9 - 8 + 1 + 1,8,9,8,7,2876.438006100012,2878.46627059998,2879.9814457000466,2884.9993644000497,2886.3797021000646,2886.379707699991,2887.8962471999694,2888.9135532999644,w,8,1.380337700014934,1,+10,934,4.0719436707956405,-0.18439019728560346,-0.4309880791312555,2641949.0,-6.593031267617526,-0.4321056817811053,-0.9084894564990349,2645483.0,3.9181232500892484,-0.3877379207230929,-0.06485203931999406,2803155.0,2879.978249860521,2876.444249860521,3037.650249860521
189,47,20,M,1,4,181.0,29,1,low,7 - 1 + 1 + 9 - 1,15,13,15,14,2890.4302730000345,2892.4578472999856,2893.9730824000435,2898.9913438999797,2900.371616199962,2900.371621700004,2901.8882216999773,2902.905215500039,w,15,1.3802722999826074,1,+1,935,11.789224008055573,-0.166772572461368,-0.21803637064793335,2655941.0,20.671089588397976,0.7545803912158169,0.2566707769416188,2659474.0,-57.241406281819735,0.9159024811006571,0.01598254760891704,2680500.0,2893.969249860521,2890.4362498605205,2914.9952498605207
190,47,20,M,1,4,182.0,30,1,high,5 + 8 - 1 + 1 + 1,14,16,12,14,2904.4222142000217,2906.448180600069,2907.963437800063,2912.9812214999693,2913.483643400017,2913.4836491000606,2914.9998267999617,2916.0165056000696,e,14,0.5024219000479206,1,+10,945,-17.071125766946242,0.20291622046625157,0.15768627453910766,2669931.0,-12.480223082142384,-0.2911014667850962,-0.08333564347177136,2673464.0,6.675324460991394,3.1826325544814784,-0.06821097421501232,2706804.0,2907.9592498605207,2904.426249860521,2941.299249860521
191,47,20,M,1,4,183.0,31,3,high,4 + 7 - 3 + 5 - 1,12,12,11,13,2917.5332394000143,2919.571780400001,2921.0871438999893,2926.105682000052,2926.49951860006,2926.49952339998,2928.016300800024,2929.033674500068,q,12,0.3938366000074893,1,+10,955,-0.10555619494618007,0.3538260110466931,0.2020390336749378,2683055.0,7.27508449010419,-0.06963628865193705,0.041097151550877786,2686589.0,,,,,2921.0842498605207,2917.5502498605206,
192,47,20,M,1,4,184.0,32,1,high,3 + 1 + 8 + 1 + 1,14,16,13,14,2930.5503255999647,2932.577399300062,2934.09260600002,2939.111015100032,2939.787468299968,2939.787473500008,2941.303918199963,2942.321323100012,e,14,0.676453199936077,1,+10,965,-25.526294512347636,-0.31739072775863875,0.14296332781910803,2696060.0,1.8568314493617528,0.522433802995609,-0.029341500289814304,2699594.0,22.780711492298526,-0.4655135986183838,0.04572563067922175,2719908.0,2934.089249860521,2930.5552498605207,2954.4032498605206
193,47,20,M,1,4,185.0,33,1,low,6 + 1 + 8 + 1 - 1,15,15,13,14,2943.8385585000506,2945.865604700055,2947.380916199996,2952.398974300013,2952.8914918999653,2952.8914976000087,2954.40798290004,2955.4250298000406,q,15,0.4925175999524072,1,+1,966,-1.050696410384905,0.4314582407301035,-0.005235777454399848,2709348.0,10.574927041017656,0.522785792011466,-8.398309121159036,2712882.0,7.756970499600078,0.6620995801982161,-0.029563297566916003,2733172.0,2947.377249860521,2943.8432498605207,2967.6672498605208
194,47,20,M,1,4,186.0,34,1,high,5 + 6 + 1 + 1 + 1,14,15,16,14,2956.9419274000684,2958.967550600064,2960.4826646000147,2965.5017911000177,2966.1554715000093,2966.155476600048,2967.6720115999924,2968.6892426999984,e,14,0.6536803999915719,1,+10,976,-24.957253584540304,-0.5182221967089298,0.20681648731416624,2722450.0,14.849281791494722,-0.06655380284901735,-0.01143350018765954,2725984.0,2.602283032782317,0.5829016808455885,-0.24056719830373607,2760540.0,2960.4792498605207,2956.9452498605206,2995.0352498605207
195,47,20,M,1,4,187.0,35,4,high,6 + 9 + 7 - 3 - 5,14,15,13,14,2970.205763000064,2972.229276200058,2973.744561700034,2978.7632534999866,2980.435528700007,2980.4355340000475,2981.95204210002,2982.969314599992,e,14,1.672275200020522,1,+10,986,16.911714550946144,0.00986275306664286,-0.055162254363858576,2735712.0,-12.053915489828242,-0.28556082435724317,0.24339797076993386,2739246.0,,,,,2973.741249860521,2970.2072498605207,
196,47,20,M,1,4,188.0,36,1,high,5 + 6 + 1 + 1 + 1,14,16,14,13,2984.4860686999746,2986.513054899988,2988.028214000049,2993.046098100021,2993.5234697000124,2993.523478399962,2995.040031200042,2996.0577147000004,w,14,0.4773715999908745,1,+10,996,-34.088338314710924,0.5189953854089193,-0.03843583236847037,2749996.0,-38.48266141305016,0.49914911395788586,-0.0952760205837373,2753529.0,,,,,2988.0242498605207,2984.491249860521,
197,47,20,M,1,4,189.0,37,2,low,4 + 9 - 7 + 1 - 1,6,5,8,6,2997.574553900049,2999.598346499959,3001.113460900029,3006.1320041000145,3006.723388200044,3006.723394199973,3008.239951799973,3009.256594500039,e,6,0.591384100029245,1,+1,997,-11.077213107896576,0.25642956426018415,-0.17128182380241164,2763081.0,15.212147949638574,-0.5068800577068471,-0.021089338367150656,2766615.0,,,,,3001.1102498605205,2997.576249860521,
198,47,20,M,1,5,190.0,0,4,high,8 + 4 + 7 - 5 - 6,8,9,7,8,3013.911202599993,3015.937644500053,3017.453098100028,3022.471339800046,3022.947522600065,3022.9475280999904,3024.463782900013,3025.4808369000675,e,8,0.4761828000191599,1,+10,1007,-1.4939633317159924,0.2506838950535277,0.12062607265610392,2779420.0,47.30968771040116,-1.174356423801675,0.03161908534299762,2782954.0,,,,,3017.449249860521,3013.915249860521,
199,47,20,M,1,5,191.0,1,2,low,9 + 1 + 6 + 7 + 1,24,23,25,24,3026.9975032999646,3029.0241658999585,3030.53946520004,3035.5584520000266,3036.139419300016,3036.139424800058,3037.6556567000225,3038.6725126999663,e,24,0.5809672999894246,1,+1,1008,-51.89313906556684,0.05638029640114972,0.0699462923734595,2792507.0,-30.028428686951937,0.38902457487220765,-0.018149297384949747,2796041.0,,,,,3030.536249860521,3027.002249860521,
