,id,age,sex,cued,block,trial,trialinblock,efflev,rewlev,calc,corAns,option1,option2,option3,tstart,ITI1Time,probTime,respTime,selectTime,ITI2Time,fbTime,ITI3Time,key_press,chosenAns,RT,acc,feedback,total_points,cuescr,cuecor,cuezyg,cuetime,probscr,probcor,probzyg,probtime,fbscr,fbcor,fbzyg,fbtime,probtime_c,cuetime_c,fbtime_c
0,48,26,male,0,Practice,,0,1,0,4 + 1 + 9 + 1 + 1,16,16,15,14,342.85674180008937,,342.85674389998894,347.884808300063,357.4209091999801,357.4209157000296,358.9389563000296,359.96152630005963,q,16.0,9.536100899917074,1,Correct,0,,,,,4.722556396000762,-0.04576155528078818,0.09523109259602625,57884.0,11.15664733103812,0.21443253091552794,-0.44914801875588406,73961.0,342.8677024105346,,358.9447024105346
1,48,26,male,0,Practice,,1,1,0,3 + 1 + 1 + 8 - 1,12,11,10,12,361.4785649999976,,361.4785681000212,366.5005476999795,367.42885999998543,367.428871500073,368.9453391000861,369.9631884000264,e,12.0,0.9283123000059276,1,Correct,0,,,,,-25.951896933990653,0.22227743393766497,0.022457349892892164,76500.0,15.711601000299527,0.0002859172464821924,1.1385943377130974,83963.0,361.4837024105346,,368.9467024105346
2,48,26,male,0,Practice,,2,2,0,8 + 1 + 6 + 1 - 4,12,12,11,10,371.4808190000476,,371.48082410008647,376.5003920000745,383.80487730004825,383.8048832000932,385.3222721000202,386.3399980000686,q,12.0,7.304485299973749,1,Correct,0,,,,,-1.4492769664239624,0.12623823616080365,-0.9636423735816773,86500.0,12.141096254075784,0.41649509943820817,-0.8854191678432057,100340.0,371.4837024105346,,385.32370241053457
3,48,26,male,0,Practice,,3,2,0,9 + 4 - 6 + 1 - 1,7,5,7,6,387.85670080001,,387.8567040000344,392.8769645000575,393.676846700022,393.6768528000685,395.1936210000422,396.21065770008136,w,7.0,0.7998821999644861,1,Correct,0,,,,,5.471343585040843,0.11263001501715575,0.26015818224109477,102876.0,12.879861668920963,0.4106086824193449,0.017699965182166988,110210.0,387.8597024105346,,395.19370241053457
4,48,26,male,0,Practice,,4,3,0,9 + 3 - 5 + 6 + 7,20,22,20,21,397.7274314999813,,397.72743450000416,402.74717540002894,406.0606970000081,406.0607024000492,407.5774965999881,408.5954169000033,w,20.0,3.31352159997914,1,Correct,0,,,,,-6.878554990727796,0.08208480645308258,0.4235623157120614,112746.0,32.08894406241102,0.13140080461340897,4.355637952310095,122595.0,397.72970241053457,,407.57870241053456
5,48,26,male,0,Practice,,5,3,0,2 + 1 + 9 - 7 + 6,11,10,11,9,410.1120926000877,,410.1120956999948,415.1318146000849,419.6928599000676,419.6928659999976,421.2103783000493,422.2283304000739,w,11.0,4.561045299982652,1,Correct,0,,,,,8.586546098059527,0.15903725892033105,-0.7558199693309824,125131.0,6.3572883942000615,0.21321713350872118,-1.5362007983437103,136228.0,410.1147024105346,,421.2117024105346
6,48,26,male,0,Practice,,6,4,0,4 + 8 + 5 - 3 + 7,21,23,22,21,423.7453871000325,,423.74539020005614,428.7665545000928,431.332838500035,431.3328447000822,432.84985220001545,433.8680320000276,e,21.0,2.566283999942243,1,Correct,0,,,,,-6.622491565077658,0.47973469623788567,-0.3485391682180392,138766.0,-39.662089963586695,0.024783369913832676,-0.29294115055393277,147867.0,423.7497024105346,,432.8507024105346
7,48,26,male,0,Practice,,7,4,0,5 + 8 - 4 + 6 + 9,24,22,24,23,435.38522759999614,,435.38523070001975,440.40492310002446,441.06881379999686,441.06881980004255,442.5863058000105,443.60440010007005,w,24.0,0.6638906999723986,1,Correct,0,,,,,20.99394586074229,0.2203421031468653,0.09794784451897343,150404.0,3.7145924718507635,-0.03661416289907127,-0.12595315262083417,157604.0,435.3877024105346,,442.5877024105346
8,48,26,male,1,0,0.0,0,4,high,5 + 7 - 4 - 6 + 9,11,11,13,12,565.7860888000578,567.8208121000789,569.336071500089,574.3545934000285,578.9701942000538,578.9701994000934,580.486401900067,581.5034392999951,q,11.0,4.615600800025277,1,+10,10,-39.29193092572379,-0.7338271525767994,-2.2010468904224094,280820.0,-30.194467764464775,-1.6418918144624812,0.9887155142665502,284354.0,3.326834030298116,0.08370295799427296,-0.10569759900831599,295503.0,569.3377024105346,565.8037024105346,580.4867024105346
9,48,26,male,1,0,1.0,1,4,low,7 + 8 - 4 + 6 - 5,12,11,13,12,583.0196049000369,585.046364900074,586.5615040999837,591.58002210001,592.2820141999982,592.2820192000363,593.7984480999876,594.8151968000457,e,12.0,0.7019920999882743,1,+1,11,4.002161101801585,-0.03812557374198189,-0.3070295585482157,298046.0,25.022096075445006,-0.033803052020056956,-0.16915008541992194,301579.0,4.824555677758431,0.26185058078182255,0.0517040655289307,308814.0,586.5627024105346,583.0297024105346,593.7977024105346
10,48,26,male,1,0,2.0,2,1,high,3 + 1 + 9 + 1 + 1,15,17,14,15,596.3327130000107,598.3583180999849,599.8733500000089,604.8913720999844,605.5140356000047,605.5140410000458,607.0303800000111,608.047135700006,e,15.0,0.6226635000202805,1,+10,21,-3.4334384196269223,0.13707171741982904,-0.366802890555217,311358.0,-3.4703788253799046,-0.21432320127701265,0.20722600272106462,314891.0,-10.906404508244952,0.36894817653892664,0.12253932011230617,322047.0,599.8747024105346,596.3417024105346,607.0307024105346
11,48,26,male,1,0,3.0,3,4,low,8 + 4 - 5 + 7 - 6,8,6,8,7,609.5636620000005,611.5905985999852,613.1056339000352,618.1242183999857,618.7540491999825,618.7540544000221,620.2704617000418,621.2868222000543,w,8.0,0.6298307999968529,1,+1,22,4.9262970770005445,-0.35665774702079167,-0.007617807514424868,324590.0,-7.893824269734145,0.2490559141502291,0.23496378487619474,328124.0,1.5576392721970436,-0.003039050664929821,0.1677764606375387,335286.0,613.1077024105346,609.5737024105346,620.2697024105346
12,48,26,male,1,0,4.0,4,2,low,8 + 1 + 4 - 7 + 1,7,5,6,7,622.8034413000569,624.8355164000532,626.3502557000611,631.3685654000146,632.4499417000916,632.4499466000125,633.9664570000023,634.9831310000736,e,7.0,1.081376300076954,1,+1,23,6.689171345113207,0.09560942451610543,0.22469546610591173,337835.0,-24.36049675564379,0.3780790827989824,0.5090958906069751,341368.0,20.307205489087522,-0.12841877975745897,0.07939158007452995,348983.0,626.3517024105346,622.8187024105346,633.9667024105346
13,48,26,male,1,0,5.0,5,3,low,6 - 1 + 7 - 8 + 9,13,13,12,11,636.499538400094,638.5272799000377,640.0428347000852,645.0615556000266,645.6740786000155,645.6740840000566,647.19089540001,648.2079872000031,q,13.0,0.6125229999888688,1,+1,24,-7.841894908235492,-0.08902038945489732,0.22666258346952262,351527.0,3.140456670354752,-0.053613676185193526,0.12658442283032834,355061.0,7.64817124696277,0.8808943610609106,0.14006812899126508,362207.0,640.0447024105346,636.5107024105346,647.1907024105346
14,48,26,male,1,0,6.0,6,1,high,6 + 9 + 1 + 1 - 1,16,14,16,15,649.7246176000917,651.7480273999972,653.2632794000674,658.2826036000624,658.937889700057,658.9378946000943,660.4542555999942,661.4716595000355,w,16.0,0.6552860999945551,1,+10,34,-9.92791443524601,-0.20848920977633423,-0.3491613901539452,364747.0,-13.164845751166318,0.1656175422725088,0.005299714240431186,368282.0,16.934961783689197,-0.1228231644006339,0.18404405618492348,375471.0,653.2657024105346,649.7307024105346,660.4547024105345
15,48,26,male,1,0,7.0,7,1,high,4 + 8 + 1 - 1 - 1,11,9,13,11,662.988325900049,665.0146232000552,666.5296764000086,671.547810500022,672.4419012999861,672.4419066000264,673.9584451999981,674.9757434000494,e,11.0,0.8940907999640331,1,+10,44,15.253246349276681,0.09207110376590055,0.024966932847698686,378014.0,-23.29857758823301,-0.15199959345180591,0.14678005902370117,381547.0,3.306270533972203,-0.15504719833527947,-0.35810383132930035,388975.0,666.5307024105346,662.9977024105347,673.9587024105347
16,48,26,male,1,0,8.0,8,2,high,2 + 1 + 9 - 4 + 1,9,8,9,11,676.4923465000466,678.5300307000289,680.045134200016,685.0633865999989,685.6338574000401,685.6338623000775,687.150824900018,688.1680037000915,w,9.0,0.5704708000412211,1,+10,54,11.48579637587114,-0.4149902057780066,0.09339681323343108,391530.0,-13.704831972244016,0.06353551924134404,-0.22100093710852065,395063.0,-0.5093342989985152,0.10958822385872002,0.2295243539728773,402167.0,680.0467024105346,676.5137024105345,687.1507024105346
17,48,26,male,1,0,9.0,9,2,high,6 + 1 + 1 + 7 - 9,6,8,6,4,689.6847203000216,691.7092504000757,693.2244299000595,698.2432278000051,699.0899328000378,699.0899381000781,700.6061974000186,701.623135700007,w,6.0,0.8467050000326708,1,+10,64,-20.31958419846456,0.095094346244601,-0.09148377948338471,404709.0,5.556937041108268,0.130669568363734,0.47457105068304273,408242.0,-11.291851388739541,-0.12560981751050537,0.04619721112356068,415623.0,693.2257024105346,689.6927024105346,700.6067024105346
18,48,26,male,1,0,10.0,10,3,high,4 + 8 - 9 + 1 + 7,11,13,11,9,703.1398912000004,705.1675909000915,706.6828064000001,711.7011391000124,715.7939162000548,715.793921799981,717.3106961000012,718.3270270000212,w,11.0,4.09277710004244,1,+10,74,12.956384634917947,-0.2771418575598932,-0.21665155915322742,418167.0,24.575096859252795,-0.18317031613272539,-0.2745745954958796,421700.0,-4.227983925981148,-0.042019019643405375,0.08913832570218005,432327.0,706.6837024105346,703.1507024105346,717.3107024105345
19,48,26,male,1,0,11.0,11,2,low,4 + 9 - 7 + 1 - 1,6,8,5,6,719.8436300000176,721.8699300000444,723.3849654999794,728.4037283000071,729.065861799987,729.0658671000274,730.5823638000293,731.5992038000841,e,6.0,0.6621334999799728,1,+1,75,2.8732700910224693,0.4438771572963929,0.06768983255343564,434869.0,13.409519081726973,-0.9383270290621875,-0.13268734353003353,438403.0,2.628432061062412,0.4123953238048337,0.22907593291960282,445598.0,723.3867024105346,719.8527024105347,730.5817024105346
20,48,26,male,1,0,12.0,12,3,high,6 + 8 + 7 + 1 - 9,13,13,14,15,733.1159460000927,735.1427851000335,736.6576157000381,741.6760616999818,745.5697486000136,745.5697538000531,747.0859745000489,748.1021949000424,q,13.0,3.893686900031753,1,+10,85,-19.09499910933955,0.17816968593902072,0.03132934158826295,448142.0,10.458167346716385,0.20063135740130367,-0.21010541343254374,451675.0,3.7887441321316295,-0.0495452521668418,0.24513052473172436,462102.0,736.6587024105346,733.1257024105346,747.0857024105346
21,48,26,male,1,0,13.0,13,1,high,6 + 1 + 1 + 7 - 1,14,12,13,14,749.6188155000564,751.6402992000803,753.155397900031,758.1737714000046,758.8017492000945,758.80175470002,760.3180582000641,761.3358283999842,e,14.0,0.6279778000898659,1,+10,95,-23.454529975861035,0.0008009052421802387,0.20273062432072386,464640.0,13.081185966035893,0.4506965038988504,-0.48551012804649396,468173.0,-12.228570589510174,0.6295661480500554,-0.06625534892387641,475335.0,753.1567024105345,749.6237024105346,760.3187024105346
22,48,26,male,1,0,14.0,14,4,low,6 + 9 + 7 - 3 - 5,14,13,15,14,762.8525501000695,764.8764487000881,766.3917602000292,771.4106197000947,772.153776000021,772.1537811000599,773.6705220000586,774.687225200003,e,14.0,0.7431562999263406,1,+1,96,0.3775542902308189,0.06431598683445117,-0.09032502477455928,477876.0,10.839054026951931,-0.7792824531660631,0.04061691207892082,481410.0,-0.7645047978807238,-0.12583771441865688,0.16639522310294197,488686.0,766.3937024105346,762.8597024105345,773.6697024105346
23,48,26,male,1,0,15.0,15,3,high,2 + 1 + 9 - 5 + 6,13,13,11,14,776.2038287000032,778.230063199997,779.7451634000754,784.7638640999794,785.5777146000182,785.577719300054,787.0943530000513,788.111390999984,q,13.0,0.813850500038825,1,+10,106,-30.184746519851146,-0.19987746073912405,-0.1827260613190358,491229.0,13.505923263187974,-0.5486402291651071,-0.12625318862221135,494763.0,1.5449325239091607,-0.0058149692670381725,-0.039203171807480786,502111.0,779.7467024105346,776.2127024105346,787.0947024105346
24,48,26,male,1,0,16.0,16,2,low,6 + 8 + 1 + 1 - 7,9,9,11,8,789.6281235000351,791.6552203000756,793.170340300072,798.1887408000184,798.8097227000399,798.8097278000787,800.3261600000551,801.3429441000335,q,9.0,0.6209819000214338,1,+1,107,-33.92681992964228,1.421487285594564,-0.18007019688674397,504654.0,-26.406833202932102,0.2935016413952969,-0.5534506803389299,508188.0,-33.98314652188808,-0.8868982543669746,0.27645702337840206,515342.0,793.1717024105346,789.6377024105345,800.3257024105346
25,48,26,male,1,0,17.0,17,2,high,7 + 1 + 9 - 1 - 8,8,7,8,6,802.8591228000587,804.8849397000158,806.4001281000674,811.420181500027,812.2656678000931,812.2656765000429,813.7820814000443,814.7991649000905,w,8.0,0.8454863000661135,1,+10,117,-30.896988416205154,-0.22062704677158296,0.1663026875218918,517884.0,24.248456920398315,0.4573117786918308,0.23385657497063228,521419.0,-1.9728572612902067,0.0821641248356233,-0.09965886152047787,528798.0,806.4027024105346,802.8677024105345,813.7817024105345
26,48,26,male,1,0,18.0,18,4,high,3 + 9 - 5 + 8 - 7,8,8,7,9,816.3158854000503,818.3428066000342,819.8580376000609,824.8768380000256,827.2576451000059,827.2576500000432,828.7738476999803,829.7910985000199,q,8.0,2.380807099980302,1,+10,127,9.625935272032772,-0.0287102232721983,0.19979724194506865,531342.0,-4.692355854739038,-0.0115716922688609,0.3543760925075823,534876.0,17.11360691786129,0.1028788050065832,0.12657347764056404,543790.0,819.8597024105345,816.3257024105346,828.7737024105345
27,48,26,male,1,0,19.0,19,1,low,7 - 1 + 1 + 9 - 1,15,15,14,13,831.3079753000056,833.3339812000049,834.849267499987,839.8675609000493,840.4496015000623,840.449606899987,841.9659632000839,842.9822479999857,q,15.0,0.5820406000129879,1,+1,128,-20.63652334812423,-0.07701105393506502,-0.19896142493017166,546333.0,-2.450847791007064,0.12763829584731123,-0.22863586654127843,549867.0,4.91445928780308,0.20606564168130603,0.7412525565269323,556982.0,834.8507024105345,831.3167024105346,841.9657024105345
28,48,26,male,1,0,20.0,20,3,high,6 + 1 + 8 + 7 - 9,13,13,15,14,844.4989118999802,846.5244194000261,848.0395687000128,853.0578999000136,853.785611600033,853.7856168000726,855.3022479000501,856.3194401999936,q,13.0,0.7277117000194266,1,+10,138,-19.757287857766684,0.06903239162974639,-0.04538646620922826,559524.0,4.350932964319246,-0.045309835325282766,-0.08844385815526223,563057.0,-8.507400169599805,0.16981134039624113,-0.47269319125283893,570319.0,848.0407024105345,844.5077024105346,855.3027024105345
29,48,26,male,1,0,21.0,21,1,low,8 + 1 + 5 + 1 + 1,16,16,17,15,857.8361052999971,859.8625845999923,861.3777277000481,866.3958681999939,867.0095465000486,867.0095514000859,868.5258048999822,869.5423887000652,q,16.0,0.6136783000547439,1,+1,139,-33.16650691918658,0.05319550353197178,0.5346274869455883,572862.0,-1.6806410498714257,0.34521174977266744,0.023496323874246272,576395.0,-4.101308197748224,0.9030627219205178,0.1685656631677368,583542.0,861.3787024105345,857.8457024105346,868.5257024105347
30,48,26,male,1,0,22.0,22,1,high,7 + 1 + 5 + 1 - 1,13,14,12,13,871.0586208000313,873.0842757000355,874.5992988999933,879.6176925000036,880.2895945000928,880.2896000000183,881.8064144999953,882.8238440999994,e,13.0,0.671902000089176,1,+10,149,1.2293888231179544,0.23379396957685605,-0.541918084688854,586084.0,3.7978885837808196,-0.3395913080156179,0.19952118675456987,589617.0,-14.913948646478623,-0.04648123737179155,0.10741919695946045,596823.0,874.6007024105345,871.0677024105346,881.8067024105346
31,48,26,male,1,0,23.0,23,4,high,4 + 7 - 8 + 9 - 3,9,9,8,11,884.3401173000457,886.3634580000071,887.878472500015,892.8970377000514,894.7856311000651,894.7856362999883,896.3025105000706,897.3195487000048,q,9.0,1.888593400013633,1,+10,159,26.232581717666104,-0.11599560002576847,-0.35647370015493607,599363.0,-8.402151288375292,-0.5635033841613368,-0.2382282443524364,602896.0,19.334908835401134,0.30418411713555216,0.025114776498112334,611319.0,887.8797024105345,884.3467024105346,896.3027024105345
32,48,26,male,1,0,24.0,24,4,low,5 + 7 - 4 - 6 + 9,11,11,13,12,898.8362622000277,900.861679600086,902.3768978000152,907.3950855000876,907.945430300082,907.945435200003,909.4618707000044,910.4785642999924,q,11.0,0.550344799994491,1,+1,160,12.906528262448647,-0.01622893304648043,0.29017091584980825,613861.0,-4.726217319394916,-0.2771811635290966,0.27645628092843744,617395.0,22.159730497386654,-0.2869008273112259,-0.11897636572615511,624478.0,902.3787024105345,898.8447024105346,909.4617024105346
33,48,26,male,1,0,25.0,25,4,high,7 + 8 - 4 + 6 + 5,22,21,22,23,911.9946573000634,914.0208166000666,915.5359582999954,920.5544779000338,921.1214473000728,921.1214522999944,922.6375336000928,923.654732700088,w,22.0,0.5669694000389427,1,+10,170,-7.556687577308093,-0.26424948063820874,0.019858224671439828,627020.0,24.346971538339815,0.004945599688048752,0.038006894310472106,630554.0,14.720522274965328,0.4522322545359949,-0.22506663629337353,637654.0,915.5377024105346,912.0037024105345,922.6377024105345
34,48,26,male,1,0,26.0,26,2,low,3 + 8 - 5 + 1 + 1,8,6,8,9,925.1712757000932,927.1986352000386,928.7147475000238,933.7329081000062,934.3613749000942,934.3613802000182,935.8777971999951,936.8946486000204,w,8.0,0.6284668000880629,1,+1,171,-8.304182682752153,0.3466251419859372,-0.08962864138267257,640198.0,16.59635978221278,0.13543643113190562,-0.14723300381976578,643732.0,12.416277477483295,-0.6344503412795075,0.34842293157446136,650894.0,928.7157024105345,925.1817024105346,935.8777024105345
35,48,26,male,1,0,27.0,27,1,high,8 - 1 + 1 + 6 + 1,15,16,14,15,938.4113022000528,940.4366776000244,941.9517769999802,946.9705519999844,948.8493754999944,948.8493804000318,950.3658333000494,951.382804300054,e,15.0,1.878823500010185,1,+10,181,15.132753272338405,0.15627840768672652,-0.5019234862700284,653436.0,-18.469766569970812,-1.1690491441082598,-0.06655028880236458,656969.0,-12.243766182318176,0.02909242929170297,-0.012193767353679164,665382.0,941.9527024105346,938.4197024105347,950.3657024105346
36,48,26,male,1,0,28.0,28,3,low,8 - 7 + 9 + 1 + 4,15,14,15,16,952.8994118000846,954.9236767999828,956.4386841000525,961.456862800056,962.0654310000828,962.0654367000096,963.5817640000024,964.5978646000148,w,15.0,0.6085682000266388,1,+1,182,-12.534793548397719,-0.12475797795318311,-0.27322747800975833,667923.0,6.1168387026931805,0.3690399992794262,0.0830314468208897,671456.0,-3.5072241464979186,0.07070272401974131,0.0071664936840161175,678598.0,956.4397024105347,952.9067024105345,963.5817024105345
37,48,26,male,1,0,29.0,29,2,high,6 + 1 + 7 - 8 - 1,5,5,7,4,966.1145126000048,968.1413810000522,969.6566527000396,974.6752623000648,975.3214864000912,975.3214919000166,976.8387286000652,977.8566508000948,q,5.0,0.646224100026302,1,+10,192,13.25965778178285,0.32750928417573455,-0.00802354489315249,681140.0,6.3048144309248055,-0.12751133085411492,-0.18267626122520753,684674.0,7.652042883941347,-0.2313261103394737,-0.16311620855709386,691856.0,969.6577024105345,966.1237024105346,976.8397024105345
38,48,26,male,1,0,30.0,30,3,high,3 + 8 - 7 + 1 + 9,14,14,13,12,979.373519900022,981.3994196000276,982.9145573000424,987.9336381000468,988.9612967000576,988.9613019999816,990.4769796000328,991.4929557000288,q,14.0,1.0276586000109091,1,+10,202,16.112392942680486,-0.2754708253495566,0.031605712253783835,694398.0,17.781390279342638,0.14985116147144284,0.08565791596635286,697933.0,-11.240583557502514,0.06086921720381966,-0.2873067035412191,705493.0,982.9167024105345,979.3817024105347,990.4767024105347
39,48,26,male,1,0,31.0,31,2,low,7 + 5 + 1 + 9 + 1,23,23,22,21,993.0094715000596,995.036857200088,996.5519801999908,1001.5697310999968,1002.3213630000828,1002.3213685000082,1003.838181200088,1004.854465499986,q,23.0,0.7516319000860676,1,+1,203,22.960850733877216,1.264789432768537,0.08966321230796126,708036.0,-7.356261971864036,-0.26375689629279053,-0.004325144802082903,711569.0,-23.632619789590585,0.2456292471040955,0.11016521986973515,718854.0,996.5527024105345,993.0197024105346,1003.8377024105346
40,48,26,male,1,0,32.0,32,3,low,4 + 7 + 1 + 9 - 5,16,17,18,16,1006.3710100000026,1008.3975065000122,1009.9126086999896,1014.9310643000064,1015.5532416000495,1015.5532470000908,1017.0696603000396,1018.0864405999891,e,16.0,0.6221773000434041,1,+1,204,13.87975562476039,0.13575477960724758,-0.06300995779232288,721396.0,22.62678824741264,0.0072104287449770155,-0.0007321590159232727,724930.0,20.073455923849167,0.17314162765581775,-0.28509825744994544,732086.0,1009.9137024105346,1006.3797024105345,1017.0697024105345
41,48,26,male,1,0,33.0,33,2,low,8 + 1 + 9 + 1 - 5,14,13,15,14,1019.6031587000472,1021.628512000083,1023.1437253000912,1028.1632617000723,1028.7452960000371,1028.745301200077,1030.2617615000345,1031.2782581000356,e,14.0,0.5820342999650165,1,+1,205,-9.582061603712262,0.12775092539816724,-0.23939916469715072,734628.0,-28.525262892390618,-0.016537674181825057,0.13950980896300003,738162.0,10.626678501923214,0.27440035745349256,0.016824440832287735,745277.0,1023.1457024105346,1019.6117024105347,1030.2607024105346
42,48,26,male,1,0,34.0,34,4,high,8 + 4 + 7 - 5 - 6,8,7,8,9,1032.7951254000654,1034.82196500001,1036.337116700015,1041.355706600007,1042.5131973000243,1042.5132026000647,1044.029450400034,1045.0466246000724,w,8.0,1.1574907000176609,1,+10,215,9.699039642496166,0.17043862747301208,-0.19778643329438417,747821.0,-42.14851228206193,0.05119974617518386,-0.3629372275801206,751355.0,10.397627986805137,0.11433548373020264,0.2152312384306203,759046.0,1036.3387024105346,1032.8047024105347,1044.0297024105346
43,48,26,male,1,0,35.0,35,2,low,5 + 1 + 7 - 6 + 1,8,8,6,7,1046.562879400095,1048.5869351000292,1050.1020376000088,1055.1223686999874,1055.8172459000489,1055.81725130009,1057.3338529000755,1058.3506284999894,q,8.0,0.6948772000614554,1,+1,216,-1.466727044881818,0.49298255019496606,1.2238979440670672,761585.0,23.332071810506516,-0.195874392931922,0.44401849497740464,765121.0,-8.790898701524522,-0.2047181331233907,0.5036714498796258,772350.0,1050.1047024105346,1046.5687024105346,1057.3337024105347
44,48,26,male,1,0,36.0,36,1,low,9 + 1 + 1 + 7 - 1,17,19,17,16,1059.8666752000572,1061.902325000032,1063.4172582000028,1068.4354044999927,1068.9852650000248,1068.9852703000652,1070.5015913000095,1071.5182256000116,w,17.0,0.5498605000320822,1,+1,217,5.561032595075968,0.0735678682297145,-0.05592577304131652,774902.0,15.720408212389547,0.1623763677458463,0.1215907012065287,778434.0,12.834783240278385,0.3984904070095414,0.1582495174705727,785517.0,1063.4177024105345,1059.8857024105346,1070.5007024105346
45,48,26,male,1,0,37.0,37,1,high,6 + 1 + 8 + 1 + 1,17,15,17,16,1073.034515800071,1075.059686799999,1076.5747110000812,1081.5925589000108,1082.2171727999812,1082.2171777000185,1083.733879000065,1084.7510825000936,w,17.0,0.6246138999704272,1,+10,227,-36.36798088309562,0.2506621044554489,-0.23576773377176075,788059.0,-19.600563755453077,0.04351218275822655,0.02521103993577256,791592.0,2.820213930741467,-0.0508423429163436,0.1579233140462133,798750.0,1076.5757024105346,1073.0427024105345,1083.7337024105345
46,48,26,male,1,1,38.0,0,4,low,9 + 7 - 5 + 8 + 6,25,27,24,25,1107.8084111000644,1109.8338153000225,1111.348884499981,1116.367864000029,1117.4411588000366,1117.4411643000783,1118.9579635000557,1119.9750024999958,e,25.0,1.0732948000077158,1,+1,228,-0.18506477368641683,0.018993833656501646,7.748687727596156,822833.0,3.3300090289216264,0.08570492212875713,1.375575884235614,826367.0,-2.41998110164948,0.25951974081100593,2.015304683443599,833974.0,1111.3507024105345,1107.8167024105346,1118.9577024105347
47,48,26,male,1,1,39.0,1,3,high,2 + 1 + 9 - 4 + 6,14,14,15,16,1121.492016100092,1123.5182162000565,1125.033121400047,1130.052306500031,1130.7131142000435,1130.713119900087,1132.230093299993,1133.2480579999974,q,14.0,0.6608077000128105,1,+10,238,23.042825995013054,0.4260250018071563,1.871185122362082,836517.0,0.5730631024648805,-0.48583927482921796,-3.524320313646081,840051.0,15.551096638718565,0.27144850398940745,-0.04446505255240041,847247.0,1125.0347024105347,1121.5007024105346,1132.2307024105346
48,48,26,male,1,1,40.0,2,4,low,3 + 8 - 4 + 9 + 7,23,22,23,24,1134.7650234000755,1136.7871565000387,1138.302257000003,1143.3221774999984,1143.889149600058,1143.8891549999826,1145.4056330000749,1146.422567200032,w,23.0,0.5669721000595018,1,+1,239,-12.816614797259597,0.054413990550528535,-1.0154858770053643,849786.0,-37.590289933678434,-0.041751025812564624,-1.2446261207258882,853321.0,22.17159440478379,0.28030710461731667,-0.17401575232652888,860422.0,1138.3047024105347,1134.7697024105346,1145.4057024105346
49,48,26,male,1,1,41.0,3,3,low,8 + 5 + 1 - 7 + 9,16,14,16,17,1147.9391992000164,1149.964309800067,1151.4795072000709,1156.497817400028,1159.3050156000536,1159.3050210000947,1160.8216560999865,1161.8386688000755,e,17.0,2.807198200025596,0,+0,239,6.755792007672177,-0.20204405812522497,1.1866084842642266,862963.0,7.236438619464344,-0.06782674283526235,-0.8642612176254953,866497.0,14.036289116150183,0.6100143143937471,-0.0112983568133469,986054.0,1151.4807024105346,1147.9467024105345,1271.0377024105346
50,48,26,male,1,1,42.0,4,1,high,3 + 1 + 8 - 1 + 1,12,13,12,10,1163.355299900053,1165.3780128000071,1166.8932588000316,1171.9109927000245,1172.4970070000272,1172.4970120000653,1174.0133178000106,1175.030309600057,w,12.0,0.5860143000027165,1,+10,249,19.219516262165932,-0.4847663290123405,-6.174389232839506,878377.0,7.300337724513241,0.03466580907691541,-0.012556170938434974,881910.0,6.4371984109112415,-0.061521102949732676,0.18409069802409306,889029.0,1166.8937024105346,1163.3607024105345,1174.0127024105345
51,48,26,male,1,1,43.0,5,1,high,7 + 1 + 4 + 1 - 1,12,13,11,12,1176.5470361000623,1178.569668099983,1180.084710800089,1185.1030968000414,1185.7050456000725,1185.705051099998,1187.2215598000912,1188.238752000034,e,12.0,0.6019488000310957,1,+10,259,25.96757961902476,-0.3068954350711701,-0.17372275345728738,891568.0,-1.9466825331386115,0.2345262030888957,-0.07011492768874561,895102.0,8.8264976832391,0.1797066881374083,-1.165187236663673,902238.0,1180.0857024105346,1176.5517024105345,1187.2217024105346
52,48,26,male,1,1,44.0,6,1,low,5 + 6 + 1 + 1 + 1,14,13,16,14,1189.7553818000015,1191.781935899984,1193.2971177999862,1198.3150225999998,1198.9289910000516,1198.9289958000882,1200.4453902000096,1201.461564600002,e,14.0,0.6139684000518173,1,+1,260,10.747896053466768,-0.04502104803704121,-2.9669148377805445,904781.0,7.201385585552853,0.012333887625055606,0.050220701598352235,908314.0,-25.66205084182536,0.11742486897936155,-0.31959175308491616,915461.0,1193.2977024105346,1189.7647024105345,1200.4447024105345
53,48,26,male,1,1,45.0,7,4,high,8 + 3 - 4 + 5 + 9,21,21,23,22,1202.9778302999912,1205.003596600029,1206.5186543000164,1211.537580200005,1212.6489558999892,1212.648961400031,1214.1655477000168,1215.1826578000328,q,21.0,1.1113756999839095,1,+10,270,-12.50966301786105,0.4401084067010079,1.9147376728602996,918002.0,11.98204069675229,-0.4767280332958008,-1.6734214335769835,921537.0,14.325429144304737,-0.2420157885855252,-0.6673368532387531,929182.0,1206.5207024105346,1202.9857024105345,1214.1657024105345
54,48,26,male,1,1,46.0,8,3,low,8 + 3 + 1 - 7 + 9,14,14,15,12,1216.6991541000316,1218.72394549998,1220.2391991000625,1225.2579103000462,1229.472980000079,1229.4729854000034,1230.9889459999977,1232.0054449000163,w,15.0,4.215069700032473,0,+0,270,8.897693431799423,0.18679403066668465,0.20429267917359262,931723.0,-8.978446519349411,-0.07731959884941197,-0.07937563993146313,935257.0,-11.781305431420856,0.26895416332595357,-1.7971282274840537,1014118.0,1220.2407024105346,1216.7067024105345,1299.1017024105347
55,48,26,male,1,1,47.0,9,2,high,6 + 1 + 1 + 8 - 9,7,5,9,7,1233.5221275000367,1235.54904120008,1237.0641540000215,1242.0833563000197,1242.960919000092,1242.9609242000151,1244.4775016000494,1245.4946899000788,e,7.0,0.8775627000723034,1,+10,280,19.856896845021485,0.31749447141432974,-3.295964724992876,948548.0,33.5340882721408,0.4075245316384102,1.3946287271555065,952082.0,33.44107114269835,0.4776457457169987,-0.9676424838131421,959494.0,1237.0657024105346,1233.5317024105345,1244.4777024105347
56,48,26,male,1,1,48.0,10,2,high,9 + 4 + 5 + 1 - 1,18,18,17,19,1247.011508100084,1249.0371748000616,1250.5519900000654,1255.5699670000467,1256.1928756000707,1256.1928803999908,1257.7092403999995,1258.7257345999824,q,18.0,0.6229086000239477,1,+10,290,41.80476791125766,0.2193641236041617,2.223464735269218,962035.0,-14.425676462780082,-0.4152440791982852,-0.6630917163644394,965569.0,28.030691097507642,-0.10664381916927068,-0.36005867721090823,972725.0,1250.5527024105345,1247.0187024105346,1257.7087024105347
57,48,26,male,1,1,49.0,11,3,high,4 + 1 + 8 + 9 - 5,17,19,17,18,1260.242197200074,1262.2696677000497,1263.785684500006,1268.803845699993,1269.520882699988,1269.5208880000282,1271.037511600065,1272.0546688000904,w,17.0,0.7170369999948889,1,+10,300,-80.86997108755784,-0.1961578783022211,-0.1878401259438629,975268.0,-49.79780277947248,0.20592577889337793,0.24612860983174123,978803.0,7.509953564773204,2.361650189252727,-1.3839731892923233,1043189.0,1263.7867024105346,1260.2517024105346,1328.1727024105346
58,48,26,male,1,1,50.0,12,1,high,6 + 9 + 1 + 1 - 1,16,15,16,14,1273.571169200004,1275.5946629000828,1277.109875400085,1282.1279003000818,1282.6808409000514,1282.6808459000897,1284.1972944000736,1285.2144520999864,w,16.0,0.5529405999695882,1,+10,310,-8.043283017477815,0.4408193529218045,-0.06189736054806083,988594.0,4.0163893699913515,-0.3345628323663341,-0.480571491084703,992127.0,2.075984235615806,0.47413081135558954,2.0728859346905857,999213.0,1277.1107024105345,1273.5777024105346,1284.1967024105345
59,48,26,male,1,1,51.0,13,3,high,5 + 6 + 7 - 1 - 9,8,8,7,9,1286.7312319000484,1288.757298600045,1290.2725525000133,1295.2923010999805,1297.5848669999978,1297.5848724000389,1299.1021798000438,1300.1200555000687,q,8.0,2.292565900017508,1,+10,320,-9.332336888970502,-0.1690089234803489,-1.1264335939675352,1001756.0,-8.168355311300365,0.3278228302960331,0.5040515087411066,1005291.0,-15.919305779016456,0.23335440011647757,-0.610750563757863,1164076.0,1290.2747024105347,1286.7397024105346,1449.0597024105346
60,48,26,male,1,1,52.0,14,2,low,8 + 1 + 7 + 1 - 4,13,14,12,13,1301.636628700071,1303.663006399991,1305.1780132000567,1310.196633500047,1313.2647578000324,1313.2647631000727,1314.7817915000487,1315.7990487000206,q,14.0,3.0681242999853566,0,+0,320,8.608653128463493,-0.20814766690128295,-0.578581635682454,1016662.0,5.570524801692454,0.11583801206740629,-0.3401728007652327,1020195.0,5.6357721814493225,0.1150333200807816,0.4249258208194213,1069541.0,1305.1787024105347,1301.6457024105346,1354.5247024105345
61,48,26,male,1,1,53.0,15,3,low,2 + 1 + 9 - 7 + 6,11,12,13,11,1317.3157196000684,1319.3437219000189,1320.8586202000731,1325.876959700021,1326.6567638000706,1326.656768899993,1328.173288900056,1329.1900884000352,e,11.0,0.7798041000496596,1,+1,321,32.49391682648013,0.17555700278154918,-0.43977750711117025,1032342.0,34.56575341788039,-0.13901611400887637,-0.22399148256669044,1035876.0,-34.40709894101161,0.2567627509566015,0.0318144356184078,1177140.0,1320.8597024105345,1317.3257024105346,1462.1237024105346
62,48,26,male,1,1,54.0,16,1,low,3 + 1 + 9 + 1 - 1,13,14,13,12,1330.7067352000158,1332.7336503000697,1334.2487899999833,1339.2672193000326,1339.8087362000952,1339.808741100016,1341.3250806999858,1342.341653999989,w,13.0,0.541516900062561,1,+1,322,-1.636448351962561,-1.8398365372091585,1.4154016439322294,1045733.0,-25.019687758436056,-0.9279560735536241,-0.42400161316661844,1049266.0,-9.826479445876366,0.3899675408078531,-0.0030327334753188495,1056341.0,1334.2497024105346,1330.7167024105345,1341.3247024105344
63,48,26,male,1,1,55.0,17,2,low,2 + 9 - 4 + 1 + 1,9,11,9,8,1343.858531300095,1345.8854809000622,1347.4008359999862,1352.4189318000572,1353.0087167000163,1353.0087218000554,1354.525157200056,1355.541893400019,w,9.0,0.5897848999593407,1,+1,323,6.2620861199510305,0.11999875397252602,0.7656369486934533,1058884.0,22.405828635128778,0.14254372173096153,-0.6485379409610204,1062418.0,-20.6968347769087,-0.14772174323521758,0.014903059500552374,1205700.0,1347.4017024105344,1343.8677024105345,1490.6837024105346
64,48,26,male,1,1,56.0,18,2,high,6 + 1 + 7 + 5 - 1,18,18,17,16,1357.0584801000075,1359.0853991000913,1360.6000915000914,1365.618880400085,1366.4247948999982,1366.424800000037,1367.9412253000771,1368.9583611000562,w,17.0,0.8059144999133423,0,+0,323,14.023563775123076,0.25965314599926126,-1.8804763519301098,1072085.0,-11.423397115500297,-0.02082475321535382,-1.2168099276857767,1075618.0,-13.425341959703319,0.5038445270110343,0.1120782629704955,1219572.0,1360.6017024105345,1357.0687024105346,1504.5557024105344
65,48,26,male,1,1,57.0,19,1,low,5 + 1 + 1 + 6 + 1,14,13,16,14,1370.474975900026,1372.5022096000612,1374.0170123000862,1379.034676500014,1379.576639200095,1379.576644100016,1381.0928992000408,1382.1097512000706,e,14.0,0.5419627000810578,1,+1,324,3.3045634854257786,-0.02480547456474369,17.241003414596715,1085501.0,-1.328814009539208,-0.08044718906109116,-0.6649521763979092,1089033.0,-3.8938980443975897,-0.018459625457822426,-1.4641937677290606,1096108.0,1374.0167024105344,1370.4847024105345,1381.0917024105345
66,48,26,male,1,1,58.0,20,1,low,8 + 1 + 1 + 1 - 4,7,7,8,5,1383.6262384,1385.6503281000769,1387.1653696000576,1392.1833032000577,1392.824659600039,1392.82466500008,1394.3412556999829,1395.3580501000397,q,7.0,0.641356399981305,1,+1,325,-52.39752790614607,0.09987390483859704,0.9608711983678919,1098649.0,4.007170568349592,-0.13417339339127565,-0.6169123356937174,1102182.0,-25.689284732869474,0.12149047863791895,0.10855048193414163,1109357.0,1387.1657024105345,1383.6327024105344,1394.3407024105345
67,48,26,male,1,1,59.0,21,4,low,3 + 8 - 4 + 9 + 6,22,21,22,23,1396.8746337000048,1398.9019531999948,1400.4173702000408,1405.4353392000776,1407.6326624000212,1407.6326678000623,1409.1491381999804,1410.1653067000443,w,22.0,2.19732319994364,1,+1,326,16.67853040545009,0.07870550922256592,0.1969478362168786,1111900.0,-15.488171822287725,-0.005776916930478437,-0.08091308907954975,1115434.0,4.083751489622383,-0.1362160561084229,0.0570001723218585,1124164.0,1400.4177024105345,1396.8837024105346,1409.1477024105345
68,48,26,male,1,1,60.0,22,1,high,3 + 1 + 8 + 1 + 1,14,14,12,13,1411.6820053000702,1413.7084409000818,1415.223509500036,1420.2417845000746,1420.9125881000657,1420.912593199988,1422.4291245000204,1423.4461553000149,q,14.0,0.6708035999909043,1,+10,336,17.073767157425905,0.38970143553366676,-0.4314604145279617,1126707.0,-20.751275892126312,0.36258682434975453,-0.1341400387223839,1130240.0,-9.116316067528642,-0.2828978348359632,-0.006192869873332896,1137445.0,1415.2237024105345,1411.6907024105346,1422.4287024105345
69,48,26,male,1,1,61.0,23,1,high,7 + 1 + 6 + 1 + 1,16,16,18,17,1424.9632441999856,1426.9875622000543,1428.502689099987,1433.5216326999944,1434.304483700078,1434.304489100003,1435.8209660000866,1436.8372663999908,q,16.0,0.7828510000836104,1,+10,346,-4.264351200884834,0.04896764076170479,-0.2040449994437381,1139986.0,-35.22847564171739,0.032069918919902296,0.033129500014554836,1143520.0,4.158529706635344,-0.14971895712444816,0.10939353869768098,1150837.0,1428.5037024105345,1424.9697024105346,1435.8207024105345
70,48,26,male,1,1,62.0,24,3,low,7 - 1 + 9 - 5 + 4,14,15,13,14,1438.3539399000583,1440.3803080000216,1441.8952655000612,1446.9135765000246,1447.5444878999842,1447.544493400026,1449.0607982000802,1450.0775690000737,e,14.0,0.6309113999595866,1,+1,347,3.4780710645514263,-0.4317003472076202,0.6301578578387943,1153379.0,13.225727721500176,0.28202846269994897,-0.07406333277475774,1156912.0,9.41529830891414,0.3158807268573067,0.4249783002872718,1261556.0,1441.8957024105346,1438.3627024105344,1546.5397024105346
71,48,26,male,1,1,63.0,25,3,low,5 + 1 + 7 - 8 + 6,11,13,11,9,1451.5941481000043,1453.6193307000212,1455.13454800006,1460.153871100047,1460.6084902000148,1460.6084952000529,1462.1247143000364,1463.1416703000432,w,11.0,0.454619099968113,1,+1,348,3.4807681754365927,0.07551865048399842,0.14887881460774288,1166618.0,-4.636712278162151,-0.1676048178103935,0.08961172256892169,1170151.0,9.25300738884984,0.5606979996720463,-1.0537460710055306,1380764.0,1455.1347024105346,1451.6017024105345,1665.7477024105344
72,48,26,male,1,1,64.0,26,4,low,3 + 9 - 4 + 7 + 6,21,20,21,19,1464.6582960999804,1466.683768399991,1468.1989847000225,1473.2176010999829,1475.9845142000122,1475.984519600053,1477.5009898000862,1478.5176823000656,w,21.0,2.766913100029342,1,+1,349,5.322463019378596,0.18884653152317954,0.4104441867791344,1179682.0,-11.343772617381495,0.1284121991883298,0.6822182380750519,1183216.0,-8.050865513900224,0.30774870537470145,-0.028201055451090085,1192516.0,1468.1997024105344,1464.6657024105345,1477.4997024105346
73,48,26,male,1,1,65.0,27,2,low,3 + 9 - 1 - 5 + 1,7,5,6,7,1480.0343294000486,1482.06021460006,1483.5754837000277,1488.5941310999915,1489.1684588000644,1489.168464199989,1490.6847908000927,1491.7013998000184,e,7.0,0.5743277000728995,1,+1,350,0.7253180344609707,0.05255765151241487,0.3192998764517476,1195059.0,-0.89746265525579,-0.10584563290377069,-2.763483644966959,1198593.0,23.916141770117925,0.1978412400883447,-0.5754822939018958,1246076.0,1483.5767024105346,1480.0427024105345,1531.0597024105346
74,48,26,male,1,1,66.0,28,2,high,5 + 7 - 8 + 1 + 1,6,6,8,7,1493.2182943000223,1495.2448641000085,1496.7600267999806,1501.778591000009,1503.0403778000036,1503.0403832000447,1504.5568169000326,1505.57369260001,q,6.0,1.261786799994297,1,+10,360,13.441164583130384,0.19043806101733196,-0.30029511041529844,1208244.0,11.984770187276876,0.12329729729134042,0.017946459692899097,1211777.0,-6.256718292112387,0.06485917844295264,0.44491661743407995,1275901.0,1496.7607024105346,1493.2277024105344,1560.8847024105346
75,48,26,male,1,1,67.0,29,1,low,9 + 8 + 1 + 1 - 1,18,17,18,19,1507.0899293000111,1509.1147529000882,1510.6297883000225,1515.6487176000371,1516.352402199991,1516.3524072000291,1517.8688858000096,1518.8856110000052,w,18.0,0.7036845999537036,1,+1,361,-11.870400007065996,-0.03599181253169714,-0.12771608403199153,1222114.0,8.180780954086925,0.0011898266800347557,0.14667589700987982,1225647.0,-14.7800538171277,0.6776520187643098,1.4393983163553852,1232884.0,1510.6307024105345,1507.0977024105346,1517.8677024105345
76,48,26,male,1,1,68.0,30,2,high,4 + 9 - 7 + 1 - 1,6,5,8,6,1520.4028496000683,1522.4295905000763,1523.9455081000924,1528.9639227000298,1529.5443780000787,1529.5443830000004,1531.060982700088,1532.078185899998,e,6.0,0.580455300048925,1,+10,371,-31.960500142149836,0.039580721384530726,0.15484410109704605,1235428.0,12.056594229850562,0.01785677750292658,-0.2768132059014299,1238962.0,-21.574522490847595,-0.23127076366320498,-1.1135931127963303,1289068.0,1523.9457024105345,1520.4117024105346,1574.0517024105345
77,48,26,male,1,1,69.0,31,3,high,3 + 1 + 8 - 5 + 6,13,15,13,14,1533.5936144000152,1535.6198076000435,1537.135096200043,1542.1531686000526,1545.0242922999896,1545.024297200027,1546.540645500063,1547.5578279000474,w,13.0,2.871123699937016,1,+10,381,-22.443740874621632,0.20806379898607075,0.03816066463553369,1248618.0,-7.213733983029606,0.12113218830685835,-0.3566149297227277,1252152.0,19.492402425795003,-0.08580313682073903,-5.802625724608614,1393899.0,1537.1357024105346,1533.6017024105345,1678.8827024105344
78,48,26,male,1,1,70.0,32,2,high,5 - 8 + 7 + 1 + 1,6,6,8,7,1549.0744824000867,1551.1014232999878,1552.6162731000222,1557.634625100065,1559.3683106000535,1559.368315900094,1560.885320100002,1561.9025211000117,q,6.0,1.7336854999884963,1,+10,391,-30.01624453025522,-0.14959672513769773,-0.45707093043745495,1264100.0,7.387851568785326,-0.32996501346415386,-0.316203936554853,1267633.0,-16.66498922701598,0.3665627941993157,0.43603793674639846,1421507.0,1552.6167024105346,1549.0837024105344,1706.4907024105346
79,48,26,male,1,1,71.0,33,2,low,4 + 9 + 1 - 7 - 1,6,5,8,6,1563.419133200077,1565.4468906000257,1566.962016200065,1571.9804154000012,1572.536277999985,1572.5362832000246,1574.0525319000008,1575.0690797000425,e,6.0,0.5558625999838114,1,+1,392,11.46579442177733,0.06860025193317787,-0.44637501189317064,1278444.0,2.6371196275531803,-0.028011359762090127,0.08314247473491143,1281979.0,-23.533168130456136,-0.05025238449809177,0.4755545753972559,1505243.0,1566.9627024105346,1563.4277024105345,1790.2267024105345
80,48,26,male,1,1,72.0,34,1,high,4 + 7 + 1 - 1 - 1,10,11,10,9,1576.585688900086,1578.61285340006,1580.1279803999932,1585.1462358999995,1588.448361100047,1588.448367300094,1589.9655081999954,1590.9827974000946,w,10.0,3.3021252000471577,1,+10,402,-8.834993976945615,0.07655867286604279,-0.06900400039768328,1291611.0,14.192688585677327,-0.002618421606876975,0.08463583350755499,1295145.0,17.372045466400454,0.31455444627193874,-3.550079505256809,1304981.0,1580.1287024105345,1576.5947024105346,1589.9647024105345
81,48,26,male,1,1,73.0,35,4,low,7 + 6 - 9 + 8 - 3,9,7,9,8,1592.4995622000424,1594.5225269000512,1596.0376037000678,1601.056361300056,1601.7122656999854,1601.7122711000266,1603.228765100008,1604.2453516999958,w,9.0,0.6559043999295682,1,+1,403,14.102243734042146,-0.019814349469669423,-0.457077294035269,1307521.0,12.799433010775065,0.24608499671069928,0.0749017274074415,1311055.0,13.913293280262273,0.3097573021738693,2.3134131442250876,1318244.0,1596.0387024105346,1592.5047024105345,1603.2277024105344
82,48,26,male,1,1,74.0,36,1,low,8 + 1 + 1 - 1 - 4,5,5,6,3,1605.7621670999797,1607.7890555000631,1609.3041955999795,1614.3223453999965,1614.9282106000464,1614.9282160000876,1616.4444729000095,1617.4607816000937,q,5.0,0.6058652000501752,1,+1,404,33.745481287554945,-0.1378243634465508,0.44196577684915184,1320787.0,6.421099658302111,0.03342353360199812,0.09250393322504458,1324321.0,14.978917309909933,0.12056900893311306,1.6905801144404062,1331459.0,1609.3047024105344,1605.7707024105346,1616.4427024105346
83,48,26,male,1,1,75.0,37,4,high,9 + 3 - 5 + 8 + 6,21,21,23,19,1618.9773212000728,1621.0019665000727,1622.5168730000732,1627.5359401000896,1629.632142700022,1629.6321480000624,1631.1485239000758,1632.1653564000735,q,21.0,2.09620259993244,1,+10,414,35.99869200737375,-0.03519818004426423,-0.6758627039072014,1334000.0,-19.303715847012775,0.2781153790754123,0.1232486515688489,1337534.0,3.9544260337712576,0.0822590207159446,-0.3554028986110431,1346164.0,1622.5177024105346,1618.9837024105345,1631.1477024105345
84,48,26,male,1,2,76.0,0,3,low,6 - 1 + 7 - 8 + 9,13,12,13,11,1651.2761144000106,1653.3009724000003,1654.8161350000885,1659.83594930009,1664.232155799982,1664.2321614000248,1665.748780600028,1666.765592599986,w,13.0,4.396206499892287,1,+1,415,-10.344080797801851,-0.28608076240793334,12.481984158463273,1366299.0,0.0003771205897766805,-0.271498618306945,-4.050005718732194,1369834.0,11.6682206298426,0.21414221876609973,0.42377219407849687,1408323.0,1654.8177024105346,1651.2827024105345,1693.3067024105346
85,48,26,male,1,2,77.0,1,3,low,7 - 5 + 9 + 1 - 4,8,9,8,7,1668.282774200081,1670.3093407000415,1671.8243783999933,1676.8429782000603,1677.3680652000476,1677.3680707000894,1678.884426300065,1679.9012473000912,w,8.0,0.5250869999872521,1,+1,416,-3.71926758292787,-0.07965372091586964,-4.308647559094467,1383307.0,40.37543444893753,-0.2351353852030984,-1.5915689960596033,1386841.0,9.04700255803556,0.3271871008761704,-0.8028119440562271,1449995.0,1671.8247024105344,1668.2907024105345,1734.9787024105344
86,48,26,male,1,2,78.0,2,3,low,9 - 5 - 1 - 6 + 8,5,5,4,7,1681.4176971000852,1683.442916900036,1684.9577646000544,1689.9749878000002,1691.7920358000556,1691.7920410999795,1693.3083786000498,1694.324906100053,q,5.0,1.8170480000553653,1,+1,417,-32.85502035959926,0.017433334074340223,-0.19577279400762038,1396441.0,3.2143718998384205,-0.1283141503395704,0.6462668239189018,1399974.0,23.86016681909379,0.19202815545721252,-0.11734166687638137,1688507.0,1684.9577024105345,1681.4247024105346,1973.4907024105346
87,48,26,male,1,2,79.0,3,2,low,7 + 6 + 1 - 1 - 8,5,3,5,4,1695.841775399982,1697.8686628000578,1699.3835126000922,1704.4018352000276,1704.9761022999885,1704.9761077000294,1706.4926075000549,1707.5085084000602,w,5.0,0.5742670999607071,1,+1,418,-21.172798164275783,-0.03041503664370726,0.2688229801354485,1410866.0,-21.350337612134886,0.13935844866287095,-0.09716241133543768,1414400.0,10.691307653116748,-0.05538705405155131,0.051554631355086755,1518299.0,1699.3837024105346,1695.8497024105345,1803.2827024105345
88,48,26,male,1,2,80.0,4,1,low,5 + 6 + 1 + 1 + 1,14,15,16,14,1709.0248767000155,1711.0514673000434,1712.5665438000578,1717.5850760000758,1718.2080485000042,1718.2080537000438,1719.724387900089,1720.7404056000523,e,14.0,0.6229724999284372,1,+1,419,35.036618424455035,0.0475783664316316,-0.026560887051505944,1424050.0,18.660917327214875,0.021680850576455857,-0.0019419748090729883,1427583.0,4.100348353267476,-0.0003631071959007137,-0.14996074177814123,1434739.0,1712.5667024105346,1709.0337024105345,1719.7227024105346
89,48,26,male,1,2,81.0,5,3,low,6 + 7 + 8 + 1 - 9,13,15,14,13,1722.2570730000734,1724.28445190005,1725.8005106000928,1730.8190676000668,1733.464059100021,1733.4640645000618,1734.9805371999971,1735.9972427000755,e,13.0,2.6449914999539037,1,+1,420,-14.096653310028493,-0.03930467882141242,0.03460593524802391,1437283.0,-9.697641582645154,-0.06472933580727691,0.36362350652652964,1440817.0,1.3858336966221074,0.030329650512699757,0.05423043210507572,1767970.0,1725.8007024105345,1722.2667024105344,2052.953702410535
90,48,26,male,1,2,82.0,6,4,high,3 + 8 - 5 + 9 - 7,8,7,8,6,1737.5137859000824,1739.5361681000795,1741.0512804000173,1746.069489400019,1748.680030800053,1748.68003649998,1750.196397199994,1751.213602700038,w,8.0,2.6105414000339806,1,+10,430,29.89478627224302,0.044930113398789384,0.42215741875839186,1452534.0,-50.340690404456765,-0.07742354399249862,0.02709275521427834,1456068.0,7.30223401866315,0.4744104223429977,0.6051449064931482,1465212.0,1741.0517024105345,1737.5177024105346,1750.1957024105345
91,48,26,male,1,2,83.0,7,4,low,5 + 8 - 6 + 7 + 4,18,18,19,17,1752.730212500086,1754.7531388000352,1756.2682256000116,1761.286571500008,1762.0639331000857,1762.0639389000137,1763.5802936999826,1764.5967540000563,q,18.0,0.777361600077711,1,+1,431,37.78945703385488,-0.21544111720568804,-0.23889291481879837,1467751.0,15.712014264296213,0.16461130782486944,-0.1686807780471984,1471285.0,13.301235868511027,-0.013084404084890533,0.018212963619969713,1478595.0,1756.2687024105346,1752.7347024105345,1763.5787024105346
92,48,26,male,1,2,84.0,8,2,low,5 + 8 + 1 - 1 + 9,22,22,23,21,1766.113193300087,1768.140618500067,1769.6557461000048,1774.6742417000933,1775.319886400015,1775.3198917000557,1776.8359676999971,1777.8524552000454,e,21.0,0.6456446999218315,0,+0,431,-24.92584274747113,0.8059071760881282,-1.2630465282992809,1481139.0,-16.085989330038014,-0.23586934738798626,-0.7218729890780651,1484672.0,5.460266948856919,0.056002431994990776,0.30507573433341406,1603891.0,1769.6557024105346,1766.1227024105344,1888.8747024105346
93,48,26,male,1,2,85.0,9,2,low,3 + 1 + 8 - 5 - 1,6,5,7,6,1779.3692267000442,1781.3911331000272,1782.9060575000476,1787.9241798000876,1788.7118685999883,1788.7118736000266,1790.2281419000356,1791.2448996000458,e,6.0,0.7876887999009341,1,+1,432,0.22746624097750612,0.08532348959657332,-0.9223826279937839,1494389.0,21.910691720878305,0.11233987187915839,-0.0017269919756319752,1497922.0,26.731539844570527,0.008306784133632394,0.5010715587566317,1631483.0,1782.9057024105346,1779.3727024105344,1916.4667024105345
94,48,26,male,1,2,86.0,10,2,low,7 + 6 + 1 + 8 + 1,23,21,22,23,1792.761170300073,1794.783498600009,1796.2984373000218,1801.3165871000383,1801.7678926000367,1801.7678980000785,1803.2843937000723,1804.3011402999985,e,23.0,0.4513054999988526,1,+1,433,-4.161182405512726,0.2564565920636246,-0.41465453797005125,1507781.0,-0.25315067453869844,-0.009688164118706322,0.36500586085834463,1511315.0,-17.914470206419104,0.30179194220381245,1.6020221070475422,1661907.0,1796.2987024105346,1792.7647024105345,1946.8907024105345
95,48,26,male,1,2,87.0,11,3,low,9 - 1 + 5 - 6 + 8,15,17,15,14,1805.8177425999893,1807.843800600036,1809.358995800023,1814.3768767000877,1816.2718293000944,1816.2718383000465,1817.7881491000296,1818.8050229999933,e,14.0,1.8949526000069452,0,+0,433,23.033120008499964,0.05995071384452233,0.11732596447110133,1520842.0,27.86328950729796,-0.2132555715705826,0.02975294207470114,1524375.0,-35.3680900522954,0.16105641292014994,-0.3832873680094586,1820763.0,1809.3587024105345,1805.8257024105346,2105.7467024105345
96,48,26,male,1,2,88.0,12,4,high,9 + 8 - 5 - 7 + 6,11,11,10,13,1820.321734099998,1822.3459058000008,1823.8611804000104,1828.879939300008,1833.0318060000427,1833.0318112000823,1834.5481571999844,1835.565351700061,q,11.0,4.151866700034589,1,+10,443,-23.917493709354286,0.12928401582645987,-0.03216639265812482,1535344.0,-22.02356722135674,0.08828064542988123,-0.13089827730064485,1538878.0,24.886553876070195,0.39122551631215097,-0.32194831240273913,1549563.0,1823.8617024105345,1820.3277024105346,1834.5467024105346
97,48,26,male,1,2,89.0,13,4,high,7 + 6 + 8 - 4 + 5,22,21,22,23,1837.0817694000436,1839.108927500085,1840.624011100037,1845.643865399994,1846.21573330008,1846.2157382000005,1847.7321115999948,1848.749530400033,w,22.0,0.5718679000856355,1,+10,453,-34.57798236504338,0.15557979621647755,0.2974357251427513,1552107.0,15.798866979487984,0.23025752563422563,0.6819372375735853,1555642.0,7.0623439359149405,0.07687557393709721,-0.5105166976200017,1562747.0,1840.6257024105346,1837.0907024105345,1847.7307024105346
98,48,26,male,1,2,90.0,14,1,low,3 + 1 + 8 + 1 + 1,14,14,13,16,1850.2661048000448,1852.2940269000828,1853.809167600004,1858.8273095000768,1860.7517481000395,1860.7517530000769,1862.268146199989,1863.2847435000583,q,14.0,1.9244385999627407,1,+1,454,-16.176627901609294,0.07440040795934078,0.7681074057066226,1565292.0,6.022838585740873,-0.12470552863449402,-0.021117298690512598,1568825.0,6.107381876378213,-0.032363625571175,0.5453159266236121,1577283.0,1853.8087024105346,1850.2757024105344,1862.2667024105344
99,48,26,male,1,2,91.0,15,1,high,7 + 1 + 4 + 1 - 1,12,12,11,13,1864.8014550000664,1866.827430400066,1868.3426173999903,1873.3626808000265,1874.0797594999892,1874.079764700029,1875.5962863999885,1876.613161000074,q,12.0,0.7170786999631673,1,+10,464,-5.401084108022271,-0.04461643435394569,1.0558194445636886,1579825.0,9.281439721537373,0.01743158910657172,-0.12411482215273395,1583361.0,7.365330582539418,-0.1524711208451488,-0.10873708622432332,1590611.0,1868.3447024105346,1864.8087024105346,1875.5947024105346
100,48,26,male,1,2,92.0,16,2,low,9 + 6 + 1 + 7 + 1,24,25,23,24,1878.1297743000323,1880.157144100056,1881.6719856000277,1886.690938399988,1887.359672700055,1887.3596776000925,1888.8761927000012,1889.8929516000208,e,24.0,0.668734300066717,1,+1,465,9.63443792032907,0.19474868855073435,-0.01582002253548609,1593154.0,-18.622569830590855,-0.040919531952342325,0.029261504059412857,1596689.0,-24.112121880193886,0.3502142445265335,0.06941606377264975,1728299.0,1881.6727024105346,1878.1377024105345,2013.2827024105345
101,48,26,male,1,2,93.0,17,4,low,4 + 7 + 9 - 5 + 7,22,23,22,24,1891.4096315000209,1893.4365126000484,1894.951623500092,1899.9705491000784,1901.695718500065,1901.6957239999904,1903.212574000005,1904.2291882000864,w,22.0,1.7251693999860436,1,+1,466,-14.69946938117845,-0.8822224941511236,0.20098997099068683,1606435.0,-12.366024212977575,0.14678535548746696,0.2535523462996139,1609968.0,-1.6674042190894482,-0.38999591529859146,0.23521646795093787,1618227.0,1894.9517024105346,1891.4187024105345,1903.2107024105346
102,48,26,male,1,2,94.0,18,2,low,9 + 5 - 6 + 1 - 1,8,9,7,8,1905.745911000064,1907.77045140008,1909.285663500079,1914.305045400048,1914.9516072000845,1914.951612200006,1916.468062500004,1917.48462880007,e,8.0,0.6465618000365794,1,+1,467,-2.51177544973525,0.0003744420471476495,0.15402620331795802,1620768.0,-27.24085369275641,-0.005430808945318777,0.10843471472936983,1624303.0,11.145302477972928,-0.016038336959437682,-1.322214477219191,1754803.0,1909.2867024105346,1905.7517024105346,2039.7867024105346
103,48,26,male,1,2,95.0,19,4,low,6 + 9 + 7 - 3 - 5,14,13,12,14,1919.001284800004,1921.027523800032,1922.5428176000717,1927.561377600068,1932.0636483000128,1932.0636539000552,1933.5798877000343,1934.5966934000608,w,12.0,4.502270699944347,0,+0,467,23.62357601869453,0.12406212887002255,-0.23740213226883,1634025.0,30.839260219059952,-0.10807036752311117,0.2238179310382371,1637559.0,21.734816948351913,0.49622253912667746,-0.45984498440333255,1701835.0,1922.5427024105345,1919.0087024105346,1986.8187024105346
104,48,26,male,1,2,96.0,20,2,low,3 + 8 + 1 - 5 + 1,8,8,9,6,1936.1133333999896,1938.1414439000653,1939.656585999997,1944.6746692000888,1945.3756213000745,1945.3756265999984,1946.8921799000816,1947.908084099996,q,8.0,0.7009520999854431,1,+1,468,-4.562272232163647,0.00817860344503929,1.0622692796576132,1651139.0,-47.838848080820256,0.06002296603103119,-0.4966414518460667,1654672.0,-22.48955963615042,0.2862093468824245,-0.8265527371224586,1807602.0,1939.6557024105346,1936.1227024105344,2092.585702410535
105,48,26,male,1,2,97.0,21,1,low,3 + 1 + 1 + 8 - 1,12,14,13,12,1949.4247593000764,1951.452567700064,1952.967350400053,1957.9854646000315,1958.6557139999927,1958.655719500035,1960.1720506000563,1961.188731500064,e,12.0,0.6702493999619037,1,+1,469,-34.79954893800082,-0.5217874974110162,1.6270869788594062,1664450.0,-62.40098556460039,-0.10144366711813779,-0.1374191446018891,1667983.0,15.05215383882234,0.07141384978854592,0.22131998501048145,1675187.0,1952.9667024105345,1949.4337024105346,1960.1707024105344
106,48,26,male,1,2,98.0,22,3,high,6 - 1 + 7 - 8 + 9,13,13,12,11,1962.7054908000864,1964.733515500091,1966.2485309999904,1971.2667523000853,1971.9756561000831,1971.975661900011,1973.4919051000616,1974.5090786000949,q,13.0,0.7089037999976426,1,+10,479,4.111966130056002,0.13394573831547518,0.35769916483992503,1677731.0,-9.599050907206255,0.1670905075807041,0.449925815024649,1681265.0,0.48962320359008693,0.3570921253535517,0.08440030035578161,1888530.0,1966.2487024105346,1962.7147024105345,2173.5137024105347
107,48,26,male,1,2,99.0,23,4,high,3 + 9 - 5 + 6 + 8,21,22,23,21,1976.025691900053,1978.0512173000025,1979.5666012000293,1984.584630300058,1985.303545000032,1985.3035500000697,1986.819869800005,1987.8370302000549,e,21.0,0.7189146999735385,1,+10,489,9.2380802014144,-0.2673446267876165,-1.068727557583518,1691049.0,2.137830145390385,-0.2966608520946865,-0.7236627284394643,1694582.0,3.4875397659795464,-0.2248779908310783,0.2337548856109386,1741490.0,1979.5657024105346,1976.0327024105345,2026.4737024105345
108,48,26,male,1,2,100.0,24,1,low,2 + 1 + 9 + 1 + 1,14,12,13,14,1989.3536360000728,1991.381597800064,1992.8959144999967,1997.9135077000828,1998.383489000029,1998.38349440007,1999.8998223000672,2000.9167163000675,e,14.0,0.4699812999460846,1,+1,490,-2.916580430531159,-0.2291507293828987,-0.06013999272692061,1704378.0,-6.276809431493099,0.015211677756556963,0.03801750629578038,1707911.0,-2.347284609406028,-0.018659239428580943,-2.1237756127989798,1714914.0,1992.8947024105346,1989.3617024105345,1999.8977024105345
109,48,26,male,1,2,101.0,25,2,high,8 + 1 + 1 + 9 - 4,15,14,16,15,2002.433454800048,2004.4608444999903,2005.975550100091,2010.9931631000943,2011.7675448000664,2011.7675508999964,2013.284117900068,2014.3012371000368,e,15.0,0.7743816999718547,1,+10,500,6.181735555088902,0.1706623169063335,0.165370839876406,1717459.0,6.846875616650294,0.17445796542812397,0.2912789547679502,1720991.0,15.154825638224859,-0.16900891212494473,-0.05034754747599379,2026241.0,2005.9747024105345,2002.4427024105346,2311.2247024105345
110,48,26,male,1,2,102.0,26,4,high,2 + 5 - 3 + 9 + 8,21,21,22,19,2015.8178343999896,2017.8455544000024,2019.3606212000595,2024.379194600042,2024.9595182000196,2024.9595236000605,2026.4758541000772,2027.492755300016,q,21.0,0.5803235999774188,1,+10,510,9.602328351233036,-0.04115200548083875,1.3508999323622604,1730843.0,-4.307117686045831,0.21583015008250817,-0.378163922795121,1734377.0,18.50458588216079,0.23082925203680915,0.07444823175295667,1946826.0,2019.3607024105345,2015.8267024105346,2231.8097024105346
111,48,26,male,1,2,103.0,27,2,low,4 + 7 + 1 + 1 - 8,5,5,7,4,2029.0093228000917,2031.0377083000492,2032.552554300055,2037.570856400067,2038.2714102000464,2038.271415400086,2039.7883167000252,2040.805664799991,q,5.0,0.7005537999793887,1,+1,511,11.381820744977404,0.004106299177689454,0.05401069101059619,1744035.0,18.12132884544078,0.06854535621873303,-0.26219333481081364,1747568.0,54.199688415286374,0.28972005022016445,-0.10517274791195774,2149425.0,2032.5517024105345,2029.0187024105346,2434.4087024105347
112,48,26,male,1,2,104.0,28,3,low,8 + 4 + 1 - 7 + 9,15,13,15,16,2042.3223499000303,2044.3479968000904,2045.8628241000697,2050.8831462999806,2051.439388900064,2051.4393943999894,2052.9559577000327,2053.9735071000177,w,15.0,0.5562426000833511,1,+1,512,3.813451356246702,-0.3758159823120679,-1.3014862044233908,1757346.0,-25.562587472255952,-0.07573589950087456,-0.7964290635451583,1760881.0,2.270580550902376,0.1992285576072388,2.3771948766652216,1933682.0,2045.8647024105346,2042.3297024105345,2218.665702410535
113,48,26,male,1,2,105.0,29,1,low,9 + 8 + 1 + 1 - 1,18,20,17,18,2055.489790100022,2057.5165126000065,2059.031370399985,2064.049227899988,2064.631386800087,2064.6313920000102,2066.148114299984,2067.1656207999918,e,18.0,0.5821589000988752,1,+1,513,11.17711213384732,0.016187296937091755,0.009880037676282427,1770514.0,12.749493988838658,-0.007064511058206602,0.13568757428736689,1774047.0,3.7396696532273355,0.8081615026258575,0.19321959229900543,1781162.0,2059.0307024105346,2055.4977024105347,2066.145702410535
114,48,26,male,1,2,106.0,30,1,low,2 + 9 + 1 + 1 + 1,14,14,12,13,2068.681087300065,2070.705683600041,2072.2208143000025,2077.239361400017,2077.92738150002,2077.927386400057,2079.443828599993,2080.460576100042,q,14.0,0.6880201000021771,1,+1,514,8.030187796961997,-0.14127187305496536,0.1968188967832134,1783703.0,32.145053238113306,0.3586481022265948,-0.32989538284284237,1787237.0,13.659875511390908,0.24550742200597853,-2.6504301331043116,1794458.0,2072.2207024105346,2068.6867024105345,2079.4417024105346
115,48,26,male,1,2,107.0,31,2,high,9 + 6 + 1 + 7 + 1,24,23,24,25,2081.976899900008,2084.002398099983,2085.5175061000045,2090.535806400003,2091.071364400093,2091.0713696000166,2092.587849600008,2093.604797000065,w,24.0,0.535558000090532,1,+10,524,4.503105944572313,-0.09214637895916589,0.006892227194729372,1797000.0,-32.23575308839633,0.3043401334767992,-0.3248285847602794,1800533.0,-25.25502987041893,-0.37878002479428874,0.6287828101843687,2218297.0,2085.5167024105344,2081.9837024105345,2503.2807024105346
116,48,26,male,1,2,108.0,32,3,high,4 + 7 - 3 + 5 - 1,12,13,12,11,2095.1213737000944,2097.1480837999843,2098.6633607000117,2103.6835138000315,2104.231452999986,2104.2314586000284,2105.747834000038,2106.7651339999866,w,12.0,0.5479391999542713,1,+10,534,17.873457884345818,-0.24734007005441683,-0.8929471193694987,1810145.0,3.216226312482135,-0.0828437074058086,0.0727168524570665,1813681.0,-30.769279776187993,0.36912684328644163,0.12944503199189583,1973161.0,2098.6647024105346,2095.1287024105345,2258.1447024105346
117,48,26,male,1,2,109.0,33,1,low,2 + 9 + 1 + 1 + 1,14,12,14,13,2108.280868300004,2110.308400399983,2111.823473900091,2116.841437800089,2117.439243300003,2117.4392485000426,2118.955873200088,2119.971597100026,w,14.0,0.5978054999141023,1,+1,535,1.5275037369457918,0.09291094022172608,-0.5940040283630665,1823306.0,-3.801437294704197,0.25697075292795724,0.4034717527446148,1826839.0,-10.63377481460119,-0.1677617717369566,-0.11088472615799638,1833970.0,2111.8227024105345,2108.2897024105346,2118.953702410535
118,48,26,male,1,2,110.0,34,1,high,2 + 1 + 1 + 9 - 1,12,13,12,11,2121.488165899995,2123.514428900089,2125.0291278000223,2130.04944480001,2132.055240400019,2132.05524580006,2133.571671599988,2134.588881400065,w,12.0,2.005795600009151,1,+10,545,-49.3012550466877,0.09885834948889816,-0.0324776692383022,1836512.0,-26.06610765822524,-1.323939023729459,-0.16907980742190531,1840047.0,-12.047619761222922,-0.16144619528193083,0.20904464812335277,1848586.0,2125.0307024105346,2121.4957024105347,2133.569702410535
119,48,26,male,1,2,111.0,35,1,high,4 + 1 + 1 + 7 - 1,12,14,13,12,2136.1056964000454,2138.130369200022,2139.6451535000238,2144.6632868000306,2145.3992589000845,2145.399264300009,2146.915833200095,2147.933137700078,e,12.0,0.7359721000539139,1,+10,555,4.393255461099731,-0.056948382507666206,-0.28079284899482815,1851128.0,13.293118418503703,0.3020396898411968,0.6591585237933195,1854661.0,-52.69319571465758,-1.1220149806582262,0.3302586690226157,1861930.0,2139.6447024105346,2136.1117024105347,2146.913702410535
120,48,26,male,1,2,112.0,36,1,high,6 + 9 + 1 + 1 - 1,16,14,15,16,2149.4496278000297,2151.476669900003,2152.991764000035,2158.0094740000786,2158.5592338000424,2158.5592389000813,2160.0753931000363,2161.09240720002,e,16.0,0.5497597999637946,1,+10,565,-39.58030130296763,-0.5937436242031104,0.46122886264661034,1864474.0,-28.633878001981465,-0.016965860730012938,0.034867270282305185,1868007.0,-3.2194273079985862,0.15572695442357798,0.5478263971828206,1875090.0,2152.9907024105346,2149.4577024105347,2160.0737024105347
121,48,26,male,1,2,113.0,37,3,low,2 - 4 + 9 + 7 + 1,15,15,13,16,2162.6089367000386,2164.635419700062,2166.150524000055,2171.1689586000284,2171.99917570001,2171.999181400053,2173.515804100083,2174.5324391000904,q,15.0,0.8302170999813825,1,+1,566,-22.028940155963873,0.04981601991961693,0.2107021560279172,1877633.0,-22.993855478469765,-0.06086396858171561,0.29729242152465574,1881166.0,23.656463605323403,0.30378497934532556,-0.12389440902650506,1986633.0,2166.1497024105347,2162.616702410535,2271.616702410535
122,48,26,male,1,3,114.0,0,3,low,2 + 9 - 3 + 4 + 1,13,11,14,13,2207.9871238000924,2210.012884600088,2211.52816039999,2216.5465023000725,2217.151243400061,2217.151248899987,2218.66787200002,2219.6843445000704,e,13.0,0.6047410999890417,1,+1,567,12.093440649809475,-0.3132182520772555,13.537026537512293,1923010.0,20.93562947463892,-0.09037896019348413,-2.97702983816745,1926544.0,13.544571093473275,0.6071521861487987,0.21854471360875038,1999802.0,2211.527702410535,2207.9937024105348,2284.7857024105347
123,48,26,male,1,3,115.0,1,4,high,5 + 8 - 4 - 6 + 9,12,14,13,12,2221.200737999985,2223.226325200056,2224.741395500023,2229.7595730000176,2230.295161599992,2230.2951671000337,2231.81151280005,2232.828532600077,e,12.0,0.5355885999742895,1,+10,577,6.465975201310805,0.002862762009112174,-0.06017784262065362,1936224.0,24.664737025553674,-0.7774241651084517,-3.2512671125146184,1939757.0,2.0225633532182634,0.06545105384282701,0.5441374292086572,1960042.0,2224.7407024105346,2221.2077024105347,2245.0257024105344
124,48,26,male,1,3,116.0,2,4,high,4 + 8 + 9 - 3 + 7,25,25,24,26,2234.3454487000126,2236.3715402000817,2237.886635200004,2242.905016500037,2243.5110465000616,2243.5110518999863,2245.027283600066,2246.0445887000533,q,25.0,0.6060300000244752,1,+10,587,4.463804569426047,0.38906644573507565,1.2129545897536431,1949369.0,11.572377385774859,-0.20566992437708143,0.8094840027237851,1952902.0,-8.81796336291132,0.15200474884794657,0.1252632494241901,2136281.0,2237.8857024105346,2234.3527024105347,2421.2647024105345
125,48,26,male,1,3,117.0,3,3,low,3 + 8 - 7 - 1 + 9,12,14,13,12,2247.56124499999,2249.586576900096,2251.1015342000173,2256.120284100063,2256.6310045000864,2256.631009200006,2258.1473052999936,2259.164073900087,e,12.0,0.5107204000232741,1,+1,588,-7.404759355062829,-0.1183221264507539,0.5988613458518355,1962584.0,20.450318854293954,-0.41723859393622575,-1.704878579208124,1966118.0,24.80290217897562,0.24333747980958265,0.37576780316553027,2052682.0,2251.1017024105345,2247.567702410535,2337.6657024105343
126,48,26,male,1,3,118.0,4,3,low,4 + 1 + 8 + 9 - 5,17,18,19,17,2260.680446300073,2262.707380000036,2264.2224503000034,2269.2403527999995,2270.103010400082,2270.103016000008,2271.6193083000835,2272.6361246000743,e,17.0,0.8626576000824571,1,+1,589,-1.0399974508409056,1.031770519999054,1.0865610347602974,1975704.0,-8.163192444332985,-0.06728923465579051,0.5875122507904678,1979238.0,-8.340647929916596,0.01957626675013957,-0.1279245877876356,2065889.0,2264.221702410535,2260.6877024105347,2350.8727024105347
127,48,26,male,1,3,119.0,5,3,high,3 + 8 + 1 + 5 - 9,8,8,9,7,2274.1530259000137,2276.1784005000954,2277.693499600049,2282.7107174000703,2283.270994600025,2283.270999700064,2284.787311800057,2285.8044426999986,q,8.0,0.5602771999547258,1,+10,599,6.248038841386995,0.11095312758906406,0.07517831969306243,1989176.0,-14.483587917795862,-0.5752022618186037,-0.5788505516318807,1992709.0,0.6081442480717953,0.13463824705375016,0.49304684057364767,2123050.0,2277.692702410535,2274.1597024105345,2408.0337024105347
128,48,26,male,1,3,120.0,6,1,low,9 + 7 + 1 + 1 + 1,19,20,18,19,2287.3211770000635,2289.348487499985,2290.863253900083,2295.881174399983,2296.414964199997,2296.414969500038,2297.9312052000314,2298.947364300024,e,19.0,0.5337898000143468,1,+1,600,-16.489850636516277,0.17812734461932722,0.7169639507568739,2002346.0,-8.381812891018066,-0.05797123323566078,-0.057342356612085865,2005878.0,13.569895255239071,0.17301418513944178,0.22269204010402888,2012945.0,2290.8617024105347,2287.3297024105345,2297.9287024105347
129,48,26,male,1,3,121.0,7,2,high,7 + 8 + 1 + 9 + 1,26,26,25,24,2300.4643360000337,2302.4909435000736,2304.0058721000096,2309.025185800041,2309.7109411000274,2309.710946300067,2311.227106300066,2312.2434660000727,q,26.0,0.6857552999863401,1,+10,610,28.143700850396577,0.009076678608687327,-0.06988134461457562,2015488.0,22.594506370800463,0.04074480239561473,0.04784253442946351,2019023.0,-42.92164155960271,0.6012472567066998,-0.36307606213222243,2299089.0,2304.0067024105347,2300.471702410535,2584.0727024105345
130,48,26,male,1,3,122.0,8,2,high,3 + 9 + 1 - 5 + 1,9,8,7,9,2313.760766900028,2315.785357300076,2317.3006024000933,2322.3185753000434,2322.822857900057,2322.8228628000943,2324.339368100045,2325.3565469000023,w,7.0,0.5042826000135392,0,+0,610,21.19737961734741,0.045678728894638976,-0.09975450997599111,2028783.0,-15.358944511674734,0.13850608174268464,0.45096648903421865,2032316.0,-1.460907470530924,0.11258836809640682,0.2960486389596362,2409472.0,2317.299702410535,2313.7667024105344,2694.4557024105347
131,48,26,male,1,3,123.0,9,3,high,9 + 3 - 4 + 6 + 7,21,22,23,21,2326.873241399997,2328.9012507000007,2330.416468200041,2335.4346839000937,2336.1509427999845,2336.150948100025,2337.667369600036,2338.6848045000806,e,21.0,0.7162588998908177,1,+10,620,-4.0714704190910425,0.3148989066070278,0.14882045483096107,2041898.0,35.48255193171343,-0.027857272057983273,0.2623749692262507,2045432.0,-2.1307197258038215,0.808899743655163,0.39826747461797396,2365784.0,2330.415702410535,2326.8817024105347,2650.7677024105346
132,48,26,male,1,3,124.0,10,3,low,7 - 6 + 8 + 1 + 7,17,16,15,17,2340.2013801999856,2342.226004300057,2343.7417029000358,2348.759923300008,2349.358818000066,2349.3588231999893,2350.875392600079,2351.892058400088,e,17.0,0.5988947000587359,1,+1,621,1.4217731882847602,0.14536150124718272,0.497139868191784,2055223.0,-7.036887608703049,-0.0367620857255786,0.2941840910177085,2058757.0,-50.97091297936946,0.2298760028672735,-0.16415092351550342,2382985.0,2343.7407024105346,2340.2067024105345,2667.9687024105347
133,48,26,male,1,3,125.0,11,1,high,7 - 1 + 9 + 1 - 1,15,15,13,14,2353.4086749000708,2355.4350615000585,2356.9501557000917,2361.968475200003,2362.4788748000283,2362.478880000068,2363.995090099983,2365.012066100025,q,15.0,0.5103996000252664,1,+10,631,27.775145976074764,0.11608629966487038,-0.29537237349764567,2068432.0,37.89894704269465,-0.03754521524862531,0.21919062929061894,2071965.0,-4.149415863260851,1.2313484324546597,2.195228041658904,2079009.0,2356.9487024105347,2353.4157024105343,2363.9927024105345
134,48,26,male,1,3,126.0,12,1,low,5 + 9 - 1 + 1 + 1,15,15,17,13,2366.5287680000765,2368.5542893999955,2370.0693454000866,2375.087097999989,2375.7188779000426,2375.7188830000814,2377.2354087000717,2378.2521733000176,q,15.0,0.631779900053516,1,+1,632,-27.507334961454152,0.09174516558951407,0.8274714854618743,2081551.0,3.09634761980244,0.01798084027120428,0.1574958477267323,2085084.0,18.680297360550004,0.1748803473164604,0.03725845716211751,2092249.0,2370.0677024105344,2366.5347024105345,2377.2327024105343
135,48,26,male,1,3,127.0,13,4,low,7 + 6 - 9 + 8 - 3,9,8,9,7,2379.7687002000166,2381.7945338999853,2383.3093058000086,2388.328912100056,2393.3455156000564,2393.345518300077,2394.861978800036,2395.8828032000456,,,,0,Too Slow!,632,30.27245083928506,-0.03038509867329342,-0.11688028354404167,2094791.0,9.579133807131232,-0.07142521789935508,0.013938521367300893,2098326.0,-36.58067352936234,-0.02426542196261572,0.36065232790100765,2109880.0,2383.3097024105346,2379.7747024105347,2394.8637024105346
136,48,26,male,1,3,128.0,14,3,high,5 + 7 + 1 - 4 + 6,15,17,13,15,2397.399217600003,2399.423474100069,2400.9385439000325,2405.9564200000605,2406.5187922000187,2406.518797500059,2408.0358182000928,2409.053416299983,e,15.0,0.5623721999581903,1,+10,642,-10.634893504318281,0.14770683701864895,-0.409900829121991,2112420.0,-28.412513519731128,-0.03763059615956754,-0.0421895539528947,2115954.0,,,,,2400.9377024105347,2397.4037024105346,
137,48,26,male,1,3,129.0,15,4,high,2 + 9 - 6 + 8 - 4,9,7,9,11,2410.570446100086,2412.5923587,2414.107528500026,2419.12594040006,2419.750773100066,2419.7507781999884,2421.2669393999968,2422.284047399997,w,9.0,0.6248327000066638,1,+10,652,-11.072690790994985,0.030048447751569896,-1.13659776611102,2125589.0,-45.433390752534464,0.2619390375082171,-0.532484631919214,2129123.0,,,,,2414.1067024105346,2410.5727024105345,
138,48,26,male,1,3,130.0,16,2,high,9 + 1 + 6 + 7 + 1,24,25,23,24,2423.8007997000823,2425.826427199994,2427.3414237999823,2432.35978430009,2432.894700600067,2432.894705499988,2434.4109305000165,2435.4282682000194,e,24.0,0.5349162999773398,1,+10,662,7.421933694514145,-0.4013328994470249,0.05451179475047496,2138823.0,-3.0286429453008914,-0.3752703637010897,0.3607782936537802,2142356.0,,,,,2427.3397024105348,2423.8067024105344,
139,48,26,male,1,3,131.0,17,4,low,5 + 9 - 4 + 7 + 6,23,25,24,23,2436.9445300000957,2438.9670324000763,2440.4818671999965,2445.499657800072,2445.982748000068,2445.982753499993,2447.499099400011,2448.515183200012,e,23.0,0.4830901999957859,1,+1,663,2.409153861556291,-0.049943447856318546,0.005955982372242374,2151963.0,36.23633258516303,0.22983917976250057,-0.14832123275927955,2155497.0,,,,,2440.4807024105344,2436.9467024105347,
140,48,26,male,1,3,132.0,18,4,high,3 + 8 - 7 + 9 - 5,8,7,9,8,2450.0316029000096,2452.058655400062,2453.573859199998,2458.591885200003,2459.4386760999914,2459.438681300031,2460.955243100063,2461.972431200091,e,8.0,0.8467908999882638,1,+10,673,-2.0491390888126126,0.02333262742006692,-0.11807912644820462,2165056.0,4.178413369066825,0.22091218326385964,-0.25607772144052987,2168589.0,,,,,2453.5727024105345,2450.0397024105346,
141,48,26,male,1,3,133.0,19,4,low,5 + 7 - 4 + 8 + 6,22,23,24,22,2463.489248200087,2465.5139910000144,2467.0291068999795,2472.049380899989,2475.326578999986,2475.326585200033,2476.8430826000404,2477.859280500096,e,22.0,3.2771980999968946,1,+1,674,7.699529215164787,0.38082333933560397,0.1316923614059462,2178511.0,-11.835655835767948,0.20450502872959775,0.4644477377570304,2182046.0,,,,,2467.0297024105344,2463.4947024105345,
142,48,26,male,1,3,134.0,20,1,high,5 + 1 + 1 + 9 + 1,17,17,19,16,2479.3758620000444,2481.403817199985,2482.9194272999885,2487.9369033999974,2488.654696000041,2488.6547014000826,2490.1710729000624,2491.1885281000286,q,17.0,0.7177926000440493,1,+10,684,-22.251549613412692,0.19903740993041552,-0.41949945556531176,2194401.0,11.72474272799848,-0.05204371154352572,-0.06721453859359272,2197934.0,,,,,2482.9177024105347,2479.3847024105344,
143,48,26,male,1,3,135.0,21,2,high,6 + 1 + 8 + 5 - 1,19,18,19,17,2492.7051943000406,2494.73025969998,2496.2456035000505,2501.263915400021,2501.766591100022,2501.766596200061,2503.28308199998,2504.3001708000666,w,19.0,0.5026757000014186,1,+10,694,42.30784210493985,-2.133570874172535,-22.942146943012066,2207727.0,3.751059470484165,-0.17893942853148626,-1.3489250952694327,2211261.0,,,,,2496.2447024105345,2492.7107024105344,
144,48,26,male,1,3,136.0,22,4,high,8 + 7 - 4 + 5 + 9,25,26,25,24,2505.81674759998,2507.8450351000065,2509.3598165999865,2514.3782983000856,2515.1105586000485,2515.110563700088,2516.6270764000947,2517.6441105999984,w,25.0,0.7322602999629453,1,+10,704,23.499554547502747,-0.043670984738791496,0.09337218556734683,2220842.0,7.740978042416674,0.13336457529960022,0.4328598076904875,2224375.0,,,,,2509.3587024105345,2505.8257024105346,
145,48,26,male,1,3,137.0,23,1,high,3 + 1 + 1 + 9 - 1,13,14,13,12,2519.160792800016,2521.18667179998,2522.7014135000063,2527.7192998999963,2528.294533499982,2528.294538900024,2529.8109178000595,2530.8279956000624,w,13.0,0.5752335999859497,1,+10,714,3.8480841382070397,-0.10144385822786917,0.1887261569597669,2234183.0,8.575443417383337,-0.04139067133828034,0.0392484782437279,2237716.0,,,,,2522.6997024105344,2519.1667024105345,
146,48,26,male,1,3,138.0,24,1,high,5 + 8 - 1 + 1 + 1,14,16,14,12,2532.345260000089,2534.371688000043,2535.886521800072,2540.9045613000635,2541.3105349000543,2541.310540100094,2542.826974500087,2543.844154000049,w,14.0,0.4059735999908298,1,+10,724,29.553258470447336,0.05589768876007839,0.43970749431597866,2247368.0,-10.74288098630721,0.05597745234566909,-0.13221930967164042,2250901.0,,,,,2535.8847024105344,2532.3517024105345,
147,48,26,male,1,3,139.0,25,1,high,8 + 1 + 1 + 1 - 3,8,9,6,8,2545.3608438000083,2547.386521200068,2548.90178090008,2553.919754600036,2556.3665123999817,2556.366518100025,2557.8830099999905,2558.8994843000546,e,8.0,2.446757799945772,1,+10,734,-0.20499495219926445,-0.01537162582562801,-0.07955048553293054,2260383.0,-8.376549670610057,-0.02603925619168046,-0.18145134040007704,2263917.0,,,,,2548.9007024105344,2545.3667024105343,
148,48,26,male,1,3,140.0,26,4,low,9 + 4 - 6 + 8 + 7,22,24,22,21,2560.4163653000724,2562.442981900065,2563.9578766000923,2568.976457700017,2569.398474800051,2569.3984834000003,2570.915050300071,2571.931809900096,w,22.0,0.4220171000342816,1,+1,735,1.4826802517014812,0.20119372811063663,0.09125268547446197,2275440.0,10.524422438651825,-0.05924740981337129,-0.32888598515549816,2278973.0,,,,,2563.9567024105345,2560.4237024105346,
149,48,26,male,1,3,141.0,27,2,high,8 + 1 + 9 + 1 - 4,15,14,16,15,2573.4485129000386,2575.4719897999894,2576.987055200036,2582.005117300083,2582.5584097000537,2582.5584149000933,2584.0747253000736,2585.0919816000387,e,15.0,0.5532923999708146,1,+10,745,33.82850310161059,-0.001274874168785356,-0.09207755379147642,2288468.0,23.318269491525623,0.11250332951049535,-0.14586312101798526,2292002.0,,,,,2576.9857024105345,2573.4517024105344,
150,48,26,male,1,3,142.0,28,1,low,7 + 1 + 4 + 1 - 1,12,14,13,12,2586.608813500032,2588.6317587000085,2590.146501600044,2595.1644725999795,2595.7824647000525,2595.7824701000936,2597.298857900081,2598.3157453000317,e,12.0,0.6179921000730246,1,+1,746,21.59245036872322,0.08680105969452212,0.09583722645756865,2301629.0,1.0668353378847186,-0.07820395134902691,-0.22415428271465743,2305161.0,,,,,2590.1447024105346,2586.6127024105344,
151,48,26,male,1,3,143.0,29,4,high,5 + 7 - 4 + 6 + 9,23,25,24,23,2599.832213100046,2601.858310700045,2603.373779200017,2608.3919214000925,2608.966402400052,2608.966407600092,2610.483048200025,2611.500099500059,e,23.0,0.5744809999596328,1,+10,756,29.778024089192325,0.6621511926807417,-0.6180708731082092,2314855.0,-26.552973286290246,-0.13384031007630615,0.15989261935315469,2318389.0,,,,,2603.3727024105347,2599.8387024105346,
152,48,26,male,1,3,144.0,30,1,low,8 + 1 + 4 + 1 + 1,15,16,14,15,2613.0167562999995,2615.0436054000165,2616.558926100028,2621.577901200042,2622.070364300045,2622.070369500085,2623.587603399996,2624.6050858000526,e,15.0,0.4924631000030786,1,+1,757,-19.35711799718952,0.05702224591611049,-0.11377302546912915,2328040.0,-16.513857526024125,-0.15661497271154667,-0.24483904090948627,2331575.0,,,,,2616.5587024105344,2613.0237024105345,
153,48,26,male,1,3,145.0,31,4,low,8 + 4 + 7 - 5 - 6,8,8,6,9,2626.1214069999987,2628.148358899984,2629.6635288000107,2634.681809900096,2636.0543337999843,2636.054339300026,2637.5707351000747,2638.5877266000025,w,6.0,1.3725238998886198,0,+0,757,2.4485055693994973,-0.21997868140979326,-0.633481647516998,2341145.0,13.949511903146988,-0.07119881748926371,0.17399561263476215,2344678.0,,,,,2629.6617024105344,2626.1287024105345,
154,48,26,male,1,3,146.0,32,3,low,3 + 1 + 8 - 5 + 9,16,15,17,16,2640.104264000081,2642.1311758999946,2643.6463394000893,2648.6656325000804,2649.254335200065,2649.2543402999872,2650.770358000067,2651.7869291000534,e,16.0,0.5887026999844238,1,+1,758,0.5175473938256445,-0.0064800292746687305,-0.04096386147841713,2355128.0,26.938259034755145,-0.09519685455950389,0.2495535008488794,2358662.0,,,,,2643.6457024105343,2640.1117024105347,
155,48,26,male,1,3,147.0,33,3,high,7 - 1 + 8 - 6 + 4,12,12,11,13,2653.304601400043,2655.328606700059,2656.84359840001,2661.8630853000795,2666.454297200078,2666.454301899997,2667.970668400056,2668.9880522000603,q,12.0,4.591211899998598,1,+10,768,20.032893371099323,0.23498076865705286,0.18380005454217496,2368325.0,25.015815415576835,0.05582827986905636,-0.1404373179530154,2371859.0,,,,,2656.8427024105345,2653.3087024105344,
156,48,26,male,1,3,148.0,34,1,high,2 + 1 + 9 + 1 - 1,12,12,13,11,2670.50463900005,2672.5313763000304,2674.046255800058,2679.0662896999856,2679.574215200031,2679.574219900067,2681.090341400006,2682.106703600032,q,12.0,0.5079255000455305,1,+10,778,-10.725302122782274,-0.2403810371053261,-0.844754021238888,2385528.0,-21.794778909812866,-0.02557275291697847,-0.3216813957976896,2389063.0,,,,,2674.0467024105346,2670.5117024105343,
157,48,26,male,1,3,149.0,35,2,high,4 + 1 + 9 + 1 - 6,9,8,7,9,2683.623275200021,2685.6675962000154,2687.1826664999826,2692.200372899999,2692.942248000065,2692.942252699984,2694.458498000051,2695.475538400002,e,9.0,0.741875100065954,1,+10,788,3.469893519480255,-0.1939160627760279,0.172279018647572,2398664.0,-9.65656520310708,-0.008377434904120351,0.8960119768547159,2402197.0,,,,,2687.1807024105346,2683.6477024105347,
158,48,26,male,1,3,150.0,36,4,low,7 + 6 - 4 + 9 - 5,13,14,12,13,2696.992165600066,2699.0151249000337,2700.530417500064,2705.5488212000346,2706.0381609000037,2706.03816570004,2707.5546323000453,2708.571443699999,e,13.0,0.4893396999686956,1,+1,789,0.14835838844148785,0.9081008471328502,0.31997896166794604,2412012.0,-2.558412133972606,-0.09697532065818004,-0.4023434503215846,2415545.0,,,,,2700.5287024105346,2696.9957024105347,
159,48,26,male,1,3,151.0,37,2,low,6 + 1 + 1 + 7 - 9,6,8,6,4,2710.088755600038,2712.117351000081,2713.6323704000097,2718.651120100054,2719.238194200094,2719.238199400017,2720.7545902000275,2721.77133030002,w,6.0,0.5870741000398993,1,+1,790,9.682869120770482,-0.017360201943070752,-0.7523678499602084,2425114.0,-21.87875312306848,0.0805135634717451,0.00010771670954667911,2428647.0,,,,,2713.6307024105345,2710.0977024105346,
160,48,26,male,1,4,152.0,0,1,low,7 - 1 + 8 + 1 - 1,14,12,14,13,2922.1301644000923,2924.1576209000777,2925.6728394000093,2930.692958300002,2931.3017993000103,2931.3018047000514,2932.818325900007,2933.835082500009,w,14.0,0.6088410000083968,1,+1,791,-23.32966860762424,-1.7653450550486633,-2.6817519059673067,2637153.0,-15.139306539695722,-0.12567081766432153,0.206400297708619,2640689.0,,,,,2925.6727024105344,2922.1367024105343,
161,48,26,male,1,4,153.0,1,1,low,4 + 9 + 1 - 1 - 1,12,12,11,13,2935.351601200062,2937.3732160000363,2938.8880738000157,2943.9060513000004,2946.485723300022,2946.4857285000617,2948.00215830002,2949.019065200002,e,13.0,2.5796720000216737,0,+0,791,-14.874316658304739,0.11931051093081813,-0.08660076141431716,2650369.0,-11.5937612028024,-0.00830734393398469,0.2148254259654898,2653902.0,,,,,2938.8857024105346,2935.3527024105347,
162,48,26,male,1,4,154.0,2,4,low,6 + 7 + 9 - 3 + 5,24,24,22,23,2950.535475200042,2952.5583262,2954.073385099997,2959.0939538000384,2962.101698199985,2962.1017037000274,2963.6180780000286,2964.6350419000955,q,24.0,3.0077443999471143,1,+1,792,24.51245986765485,0.18801147007147057,-0.20459864465702182,2665554.0,12.108689516320826,0.4076565381442898,1.1951362047365777,2669089.0,,,,,2954.0727024105345,2950.5377024105346,
163,48,26,male,1,4,155.0,3,4,high,2 + 9 - 3 + 5 + 8,21,23,21,22,2966.1515841000946,2968.1780952999834,2969.693227000069,2974.7117765999865,2976.061732500093,2976.0617379000178,2977.5780711000552,2978.594914700021,q,23.0,1.349955900106579,0,+0,792,5.167540842928442,0.06888738435587216,-0.5473314961837445,2681174.0,-10.651031641366894,-0.03418597434561588,0.45118445686060227,2684708.0,,,,,2969.6917024105346,2966.1577024105345,
164,48,26,male,1,4,156.0,4,2,high,5 + 9 - 8 + 1 + 1,8,7,9,8,2980.111863800092,2982.13670630008,2983.651873300085,2988.669887600001,2989.1497676,2989.1497728000395,2990.666116300039,2991.682838500012,e,8.0,0.4798799999989569,1,+10,802,4.778802029858827,0.09656400769113893,0.3493425284862717,2695133.0,-45.3788992661141,-0.06489257206757615,-0.46464322751635123,2698666.0,,,,,2983.6497024105347,2980.1167024105343,
165,48,26,male,1,4,157.0,5,1,low,6 + 1 + 8 + 1 - 1,15,13,14,15,2993.1993638999998,2995.22444660007,2996.739600400091,3001.757623100071,3002.261633899994,3002.261639000033,3003.778921900084,3004.796488400083,e,15.0,0.5040107999229804,1,+1,803,39.30865608480935,0.16845700855670254,0.6884328620380664,2708220.0,-22.44349929944477,0.3610700691764337,0.4226812360383434,2711754.0,,,,,2996.7377024105344,2993.2037024105343,
166,48,26,male,1,4,158.0,6,3,low,4 + 5 - 3 + 7 - 1,12,11,12,13,3006.313210500055,3008.34074730007,3009.855563900084,3014.874261600082,3015.365614600014,3015.365619600052,3016.881644700072,3017.898468800005,w,12.0,0.4913529999321326,1,+1,804,3.3963648710460754,-1.101204531883425,-0.005151775787094692,2721337.0,-4.593179636878336,-0.14223114497149192,0.04738335950665018,2724870.0,,,,,3009.8537024105344,3006.3207024105345,
167,48,26,male,1,4,159.0,7,4,high,4 + 7 + 8 - 3 + 9,25,24,25,26,3019.414710300043,3021.4386791000143,3022.9536406000843,3027.972256200039,3028.5016060000053,3028.501611100044,3030.0179460000945,3031.0350387000944,w,25.0,0.5293497999664396,1,+10,814,-37.17520767810412,0.25439989786787987,0.15506844698224853,2734434.0,-26.51382294950142,-0.07639407116332331,0.260072251993698,2737968.0,,,,,3022.9517024105344,3019.4177024105347,
168,48,26,male,1,4,160.0,8,2,high,4 + 8 + 1 + 1 - 6,8,8,9,7,3032.551641800092,3034.579174200073,3036.094347800012,3041.1121567999944,3041.7736210000003,3041.7736259000376,3043.290191000094,3044.307687600027,q,8.0,0.6614642000058666,1,+10,824,30.39291564841362,-0.04782686329438057,0.38333043242699816,2747575.0,13.517062839931715,0.040643194884562917,-0.3608164412181054,2751108.0,,,,,3036.0917024105347,3032.5587024105344,
169,48,26,male,1,4,161.0,9,2,high,3 - 1 + 9 - 5 + 1,7,7,6,5,3045.824288800009,3047.84886420006,3049.3643391000805,3054.3828228000784,3054.917596700019,3054.9176013000542,3056.4340996000683,3057.4512876000954,q,7.0,0.5347738999407738,1,+10,834,23.556045456222613,0.23000651520943483,-0.005600085784536191,2760845.0,44.088432485916705,0.24263115917506495,0.12385941154576585,2764379.0,,,,,3049.3627024105344,3045.8287024105343,
170,48,26,male,1,4,162.0,10,3,high,5 + 6 - 4 - 1 + 7,13,14,15,13,3058.967929000035,3060.9968254000414,3062.5119094999973,3067.5305738000898,3068.181524000014,3068.181529200054,3069.6978859000374,3070.7150159000885,e,13.0,0.6509501999244094,1,+10,844,15.155828083462787,-0.09028614755678421,-0.0772736375974894,2773993.0,-17.795631819181516,0.07530898612062509,-0.27359948668143375,2777526.0,,,,,3062.5097024105344,3058.9767024105345,
171,48,26,male,1,4,163.0,11,2,low,2 + 9 + 1 + 1 - 5,8,6,8,7,3072.2315859000664,3074.259278299985,3075.7744285000954,3080.7932500999887,3081.429573700065,3081.4295786999865,3082.945947100059,3083.962594400044,w,8.0,0.636323600076139,1,+1,845,7.523897774686516,0.06881488110325451,0.2971240160638615,2787255.0,1.2720033305415086,0.12440534916953117,0.12149115123083476,2790788.0,,,,,3075.7717024105345,3072.2387024105346,
172,48,26,male,1,4,164.0,12,3,high,2 + 9 + 1 - 5 + 7,14,14,12,15,3085.4790387999965,3087.5065686000744,3089.021621500025,3094.040048200055,3094.589470600011,3094.5894754000474,3096.106001900044,3097.1230932000326,q,14.0,0.5494223999558017,1,+10,855,-5.380744172367326,0.009438175316831998,0.033802597983509486,2800502.0,-1.4774904263136648,0.08556660926774162,0.2946252674472767,2804036.0,,,,,3089.0197024105346,3085.4857024105345,
173,48,26,male,1,4,165.0,13,3,high,7 + 1 + 9 + 5 - 6,16,16,14,15,3098.639628500096,3100.6635427,3102.178544200025,3107.196836000076,3107.901558100013,3107.901563700056,3109.4179121000925,3110.43517870002,q,16.0,0.7047220999374986,1,+10,865,-5.665768580485285,0.3176657560560503,-0.03915407062783771,2813659.0,38.74111107596442,0.125125059588983,0.3409031188233733,2817193.0,,,,,3102.1767024105347,3098.6427024105346,
174,48,26,male,1,4,166.0,14,2,low,9 + 4 - 6 + 1 - 1,7,7,9,8,3111.962456800044,3113.990445600008,3115.505535500008,3120.5236848000204,3121.101467000088,3121.1014720000094,3122.6180134000024,3123.6347886000294,q,7.0,0.5777822000673041,1,+1,866,-9.380421754925205,0.24349711183967382,0.08265352541492277,2826986.0,13.560583270200505,0.8141191408589183,-0.8613175524849197,2830519.0,,,,,3115.5027024105343,3111.9697024105344,
175,48,26,male,1,4,167.0,15,3,high,7 - 1 + 8 - 6 + 4,12,11,12,13,3125.1514506000094,3127.1779001000104,3128.693004300003,3133.7113435000647,3134.17346760002,3134.1734730000608,3135.6899464000016,3136.707083099988,w,12.0,0.4621240999549627,1,+10,876,-10.000205638803568,-0.15091376001815782,0.11423019684817959,2840174.0,7.10303874546878,0.06910603482257605,0.19365491739912954,2843707.0,,,,,3128.6907024105344,3125.1577024105345,
176,48,26,male,1,4,168.0,16,2,high,6 + 1 + 8 + 7 - 1,21,21,19,23,3138.223518199986,3140.249752300093,3141.764994300087,3146.78373730008,3148.73347029998,3148.7334755000197,3150.2499214999843,3151.267136499984,q,21.0,1.9497329998994248,1,+10,886,19.798268726588127,0.08731937172804938,0.29970189585244533,2853245.0,37.791528843466054,0.18570218890979517,0.36073160237904034,2856779.0,,,,,3141.7627024105345,3138.2287024105344,
177,48,26,male,1,4,169.0,17,3,low,4 + 8 - 3 + 5 - 1,13,13,14,12,3152.7837296000216,3154.8124631000683,3156.3273341000317,3161.345789700048,3161.845395200071,3161.8454001999926,3163.361883800011,3164.3786988999927,q,13.0,0.4996055000228807,1,+1,887,-34.29185717719439,0.22139253931755243,-0.1215814399995594,2867808.0,-5.114114349501622,-0.15639096482699877,-0.12782284174662095,2871341.0,,,,,3156.3247024105344,3152.7917024105345,
178,48,26,male,1,4,170.0,18,1,high,2 + 1 + 9 + 1 - 1,12,11,12,13,3165.8952211000724,3167.919832600048,3169.434987500077,3174.4522671999875,3174.9893992000725,3174.9894047999987,3176.505166899995,3177.522034200025,w,12.0,0.5371320000849664,1,+10,897,28.82551292952332,0.04562120582715945,0.11679420329939738,2880915.0,19.281015089607788,-1.3609104283623297,-0.1621347852911974,2884449.0,,,,,3169.4327024105346,3165.8987024105345,
179,48,26,male,1,4,171.0,19,4,low,2 + 9 - 4 + 8 + 7,22,22,23,21,3179.038639000035,3181.066098200041,3182.5820724000223,3187.6005153000588,3190.797394699999,3190.797399800038,3192.3138899999904,3193.329693100066,q,22.0,3.1968793999403715,1,+1,898,22.285253003507318,0.059816528596202456,0.05085026836150064,2894062.0,-8.010814902396529,-1.6721415758220846,0.15840302534503437,2897596.0,,,,,3182.5797024105345,3179.0457024105344,
180,48,26,male,1,4,172.0,20,3,high,5 + 6 - 4 - 1 + 8,14,16,15,14,3194.846713200095,3196.87461440009,3198.3893649000674,3203.4069951000856,3203.981476200046,3203.9814815000864,3205.497984400019,3206.5141405999893,e,14.0,0.5744810999603942,1,+10,908,-39.74209231483833,0.13770756004018514,-0.5480395124885113,2909870.0,1.437881750434852,0.15031462711911292,0.15420377783169315,2913403.0,,,,,3198.3867024105343,3194.8537024105344,
181,48,26,male,1,4,173.0,21,3,high,7 + 5 + 9 + 1 - 6,16,15,14,16,3208.0303150999825,3210.054834400071,3211.5699330000207,3216.588035200024,3217.885260500014,3217.885266300058,3219.4023277000524,3220.418803800014,e,16.0,1.2972252999898046,1,+10,918,-29.595033432159617,0.1585359524235237,0.4730855588497338,2923050.0,8.18718926553081,0.035181301512470675,0.1801501695289165,2926583.0,,,,,3211.5667024105346,3208.0337024105347,
182,48,26,male,1,4,174.0,22,4,low,8 + 4 + 7 - 5 - 6,8,6,9,8,3221.9351523000514,3223.9617502000183,3225.477581400075,3230.495903400006,3231.045293400064,3231.0452989999903,3232.5617435000604,3233.578566399985,e,8.0,0.549390000058338,1,+1,919,-12.012476601483378,0.16562219076757456,0.8125515176098723,2936957.0,5.688150296441041,-0.08739700516667437,-1.2432693218805646,2940491.0,,,,,3225.4747024105345,3221.9407024105344,
183,48,26,male,1,4,175.0,23,2,high,2 + 1 + 9 - 4 + 1,9,8,9,11,3235.094749500044,3237.119320700061,3238.6344387000427,3243.6524914000183,3244.3252340999898,3244.3252426000545,3245.841911500087,3246.858972100076,w,9.0,0.6727426999714226,1,+10,929,-6.96710987638815,0.21720888848443387,-0.11548507120880913,2950115.0,-6.469026643640783,0.16290525289139257,0.21859571345275874,2953648.0,,,,,3238.6317024105347,3235.0987024105343,
184,48,26,male,1,4,176.0,24,4,high,4 + 9 - 7 + 8 + 5,19,21,19,20,3248.37511969998,3250.4032674999908,3251.9181388000725,3256.936673899996,3257.573187300004,3257.573192300042,3259.0895448999945,3260.106717600021,w,19.0,0.6365134000079706,1,+10,939,-33.47980596763492,0.07562649818505429,0.1712432153650738,2963399.0,43.207065287780686,0.1422760533804821,-0.22980995823823136,2966932.0,,,,,3251.9157024105343,3248.3827024105344,
185,48,26,male,1,4,177.0,25,3,low,8 - 1 + 6 - 7 + 5,11,11,12,13,3261.623679500073,3263.648836700013,3265.164002500009,3270.182624000008,3270.6291902000085,3270.629195000045,3272.145543600084,3273.162245000014,q,11.0,0.4465662000002339,1,+1,940,17.529323192420684,-0.07149720777856716,0.216637532875259,2976643.0,-12.767048757510812,0.1860699465485518,0.1565966860834802,2980178.0,,,,,3265.1617024105344,3261.6267024105346,
186,48,26,male,1,4,178.0,26,3,high,3 - 7 + 5 + 1 + 9,11,12,11,13,3274.678811900085,3276.706150299986,3278.221395600005,3283.2397657000693,3284.773161099991,3284.7731663000304,3286.289629100007,3287.306770300027,w,11.0,1.5333953999215737,1,+10,950,6.742149899433308,0.030579971918180737,-0.19334336922981699,2989702.0,16.083293273233036,0.11190685344807005,-0.1672942368734418,2993235.0,,,,,3278.2187024105347,3274.6857024105348,
187,48,26,male,1,4,179.0,27,4,high,4 + 7 - 8 + 9 - 4,8,8,9,7,3288.82297530002,3290.850302200066,3292.3652338000247,3297.383842500043,3297.973099700059,3297.9731050999835,3299.4892084000167,3300.5059454999864,q,8.0,0.5892572000157088,1,+10,960,28.702743409213,0.11687760648192791,0.0866003817829295,3003845.0,6.7750089616248115,0.1107099948839485,0.09778020513604879,3007379.0,,,,,3292.3627024105344,3288.8287024105343,
188,48,26,male,1,4,180.0,28,1,low,6 + 1 + 1 + 9 - 1,16,15,14,16,3302.0233059000457,3304.050011000014,3305.565114600002,3310.5834564000834,3311.1331224000314,3311.1331279000733,3312.6494694000576,3313.665795900044,e,16.0,0.5496659999480471,1,+1,961,17.649625793893524,0.20660940118584326,0.2864986081679355,3017045.0,16.806118878377674,-0.008724436409282665,-0.056672027600642494,3020579.0,,,,,3305.5627024105347,3302.0287024105346,
189,48,26,male,1,4,181.0,29,4,low,4 + 7 + 8 - 3 + 9,25,25,26,24,3315.182356500067,3317.208193000057,3318.723201200017,3323.7432769000297,3324.60515399999,3324.605159500032,3326.121605799999,3327.138366500032,q,25.0,0.8618770999601111,1,+1,962,17.92633710088308,0.1687221766463496,0.05854358069409926,3030203.0,10.311964622063677,0.023720723547587363,-0.05321198833406626,3033739.0,,,,,3318.7227024105346,3315.1867024105345,
190,48,26,male,1,4,182.0,30,2,high,5 - 1 + 1 + 8 + 9,22,21,22,23,3328.6549061000114,3330.679894800065,3332.194854100002,3337.212498100009,3339.045144200092,3339.045150400023,3340.5614607000025,3341.578469700064,e,23.0,1.832646100083366,0,+0,962,25.149873171830293,0.13018380322207834,-0.32106543383915565,3043675.0,16.7235936124867,0.1267876981097087,0.26488287986242653,3047208.0,,,,,3332.1917024105346,3328.6587024105347,
191,48,26,male,1,4,183.0,31,4,high,5 + 6 - 4 + 7 + 9,23,25,23,24,3343.0949357000645,3345.121518400032,3346.637527700048,3351.6553606999805,3352.1250717000803,3352.125076299999,3353.641373899998,3354.658015300054,w,23.0,0.4697110000997782,1,+10,972,4.452250319341808,0.4310418659160822,0.012130871247276076,3058117.0,14.48243559431825,-0.16670800182304402,-0.5727265296721775,3061651.0,,,,,3346.6347024105344,3343.1007024105347,
192,48,26,male,1,4,184.0,32,3,high,5 - 1 - 4 + 6 + 7,13,14,13,15,3356.174634700059,3358.2000084000174,3359.71524020005,3364.7334252999863,3365.2050631000893,3365.2050688000163,3366.7215210000286,3367.738592799986,w,13.0,0.4716378001030534,1,+10,982,11.740917208583888,0.2419856088402017,-0.17950755474782554,3071195.0,27.38828564216556,-1.3375913000275288,-0.21952753381305357,3074729.0,,,,,3359.7127024105343,3356.1787024105347,
193,48,26,male,1,4,185.0,33,4,high,6 + 5 - 7 + 8 - 9,3,4,5,3,3369.255509300041,3371.282856900012,3372.798025700031,3377.8163944000844,3378.2690409000497,3378.2690465000924,3379.785233800066,3380.80253440002,e,3.0,0.4526464999653399,1,+10,992,-46.80672065341045,0.16217021854455616,-0.6718711504111727,3084278.0,10.681358873822804,0.7092219169585956,0.4167904608035613,3087812.0,,,,,3372.7957024105344,3369.2617024105343,
194,48,26,male,1,4,186.0,34,3,high,3 + 1 + 6 - 8 + 9,11,11,13,12,3382.3192425000016,3384.3459743000567,3385.8609967000084,3390.8790150000714,3391.3810058999807,3391.381010700017,3392.8974344000453,3393.914778000093,q,11.0,0.5019908999092877,1,+10,1002,-33.311538959721375,-0.12360504360927704,0.2710880070030033,3097341.0,-5.054572379797708,-0.2686393154003608,0.3991443093277809,3100874.0,,,,,3385.8577024105343,3382.3247024105344,
195,48,26,male,1,4,187.0,35,2,low,4 + 8 + 1 + 1 - 5,9,11,8,9,3395.4313432000345,3397.4590531000867,3398.9741746000946,3403.9926516000414,3404.636956000002,3404.6369616000447,3406.153309000074,3407.1699937999947,e,9.0,0.6443043999606743,1,+1,1003,16.193477772913177,0.7753034678832402,-1.451906593441624,3110454.0,11.10124162551232,0.265515766609316,0.4671416158862858,3113987.0,,,,,3398.9707024105346,3395.4377024105347,
196,48,26,male,1,4,188.0,36,4,low,8 + 5 - 4 + 7 + 9,25,25,26,24,3408.686677700025,3410.7133413000265,3412.228320299997,3417.248559900094,3417.972928400035,3417.9729336000746,3419.4894627000904,3420.5062485000817,q,25.0,0.7243684999411926,1,+1,1004,15.272972374985677,-0.049456444183130666,0.2823090502916301,3123709.0,-1.8828637844955913,-0.30113862663402213,0.029705533233034487,3127244.0,,,,,3412.2277024105347,3408.6927024105344,
197,48,26,male,1,4,189.0,37,2,low,7 + 5 + 1 - 1 - 8,4,3,2,4,3422.0218842000468,3424.04887170007,3425.564325100044,3430.58261719998,3431.0769104000647,3431.076915599988,3432.5929709000047,3433.6095634000376,e,4.0,0.4942932000849396,1,+1,1005,34.68059380462074,-0.004096801617228252,0.25604519278382654,3137044.0,26.72370065616026,0.1703028465063232,-0.0037058033648946775,3140578.0,,,,,3425.5617024105345,3422.0277024105344,
198,48,26,male,1,5,190.0,0,4,low,6 + 9 - 7 + 8 - 5,11,12,13,11,3475.5930482000117,3477.6209992000367,3479.136118200025,3484.156602600008,3484.756860900088,3484.7568661000114,3486.274092200096,3487.291117100045,e,11.0,0.6002583000808954,1,+1,1006,-25.38877115075369,0.16350928943146448,0.2928740280691642,3190616.0,-19.4709826321885,0.022917261667152466,-1.541975093058035,3194151.0,,,,,3479.1347024105344,3475.5997024105345,
199,48,26,male,1,5,191.0,1,3,low,8 + 6 - 7 + 1 - 4,4,4,5,3,3488.807747600018,3490.8352286000736,3492.349964700057,3497.36885660002,3497.860960900085,3497.860967000015,3499.377565200092,3500.394335100078,q,4.0,0.4921043000649661,1,+1,1007,3.1313634876738448,0.19662343324425802,0.03803503508195227,3203830.0,27.98890558142601,0.08363001139067539,0.06289644970122943,3207363.0,,,,,3492.3467024105344,3488.8137024105345,
