,id,age,sex,cued,block,trial,trialinblock,efflev,rewlev,calc,corAns,option1,option2,option3,tstart,ITI1Time,probTime,respTime,selectTime,ITI2Time,fbTime,ITI3Time,key_press,chosenAns,RT,acc,feedback,total_points,cuescr,cuecor,cuezyg,cuetime,probscr,probcor,probzyg,probtime,fbscr,fbcor,fbzyg,fbtime,probtime_c,cuetime_c,fbtime_c
0,49,19,m,0,Practice,,0,1,0,4 + 1 + 9 + 1 + 1,16,14,15,16,94.20554839994293,,94.20555039995816,99.3720794999972,102.11358579993248,102.11359209998044,103.63039920001756,104.65303569997197,e,16,2.7415062999352813,1,Correct,0,,,,,-13.558828428997442,1.1903619108378498,0.014596918004426973,92688.0,24.948985950340226,-0.8817673387788556,-0.005042300635448083,101968.0,94.35644135946578,,103.63644135946578
1,49,19,m,0,Practice,,1,1,0,3 + 1 + 1 + 8 - 1,12,12,10,11,106.1698745000176,,106.16987789992707,111.19138560001738,112.16149089997634,112.16149680002128,113.67841930000576,114.6954190999968,q,12,0.9701052999589592,1,Correct,0,,,,,9.282425308725099,0.0829216927171208,-0.32425445202586145,104508.0,-30.865671416180874,-0.9960853048837697,0.006922756820177067,112012.0,106.17644135946577,,113.68044135946577
2,49,19,m,0,Practice,,2,2,0,8 + 1 + 6 + 1 - 4,12,11,12,10,116.23065529996528,,116.23066060000563,121.25039259996264,122.73757739993744,122.7375836999854,124.25498029997108,125.27311730000656,w,12,1.4871847999747845,1,Correct,0,,,,,3.8504045575415375,0.4563235500982312,0.18501044907091369,114567.0,5.3584082377805835,-0.15636867702675694,0.06962114586161894,122589.0,116.23544135946577,,124.25744135946577
3,49,19,m,0,Practice,,3,2,0,9 + 4 - 6 + 1 - 1,7,7,6,5,126.79046119994018,,126.79046419996304,131.80935070000123,136.20166609995067,136.20167290000245,137.71844399999827,138.75037159991916,w,6,4.392315399949439,0,Incorrect,0,,,,,-0.9252047914174355,-0.21265110806615084,-0.16640607161338727,125125.0,40.40863973649289,-1.7270963519273623,0.3041185143522487,136066.0,126.79344135946577,,137.7344413594658
4,49,19,m,0,Practice,,4,3,0,9 + 3 - 5 + 6 + 7,20,22,20,21,140.26739089994226,,140.26739409996662,145.28663569991477,147.64965549996123,147.6496618000092,149.16678009997122,150.18394040002022,w,20,2.363019800046459,1,Correct,0,,,,,17.923974439495623,1.065955204135955,-0.7154761674363299,138602.0,13.86299221731456,-1.093119746709779,0.2165141580012626,147500.0,140.2704413594658,,149.16844135946576
5,49,19,m,0,Practice,,5,3,0,2 + 1 + 9 - 7 + 6,11,11,9,10,151.70099499996286,,151.700998299988,156.72125529998448,157.4176328999456,157.41763919999357,158.9347113999538,159.95295409997925,q,11,0.6963775999611244,1,Correct,0,,,,,-0.915113567211618,0.12128415329063458,0.633030540290139,150037.0,15.288376797541773,0.42600029418011776,0.01472808391362701,157269.0,151.7054413594658,,158.93744135946577
6,49,19,m,0,Practice,,6,4,0,4 + 8 + 5 - 3 + 7,21,21,22,23,161.47007719997782,,161.4700806000037,166.490406399942,169.8895535999909,169.88956489996053,171.4076856999891,172.42573659995105,q,21,3.399147200048901,1,Correct,0,,,,,25.90336688330654,-0.3237102113267696,2.238992327667861,159806.0,0.07561772927972044,-1.6625633012039671,-0.06371724845541493,169742.0,161.4744413594658,,171.41044135946578
7,49,19,m,0,Practice,,7,4,0,5 + 8 - 4 + 6 + 9,24,23,22,24,173.94306189997587,,173.94306530000176,178.96267359994818,184.58541479997805,184.58542070002292,186.10227099992332,187.120515699964,e,24,5.62274120002985,1,Correct,0,,,,,37.02158599765745,-0.857749838223425,0.14703917313230863,172278.0,18.590640240632748,-2.175069474096478,0.12419744937331445,184436.0,173.94644135946578,,186.1044413594658
8,49,19,m,1,0,0.0,0,4,high,9 + 4 - 6 + 8 + 7,22,22,24,21,371.1108051999472,373.2001370999496,374.7155849999981,379.7344087000238,380.4627935999306,380.4627995999763,381.9796275999397,382.9969679999631,e,21,0.7283848999068141,0,+0,0,-7.415946365905119,0.4174213565561318,-0.05334362812770532,369515.0,28.885604917130337,0.5554132340373918,0.18231706223978073,373050.0,-8.515692352516247,-0.05482553646745103,-0.1016322184844638,407175.0,374.71844135946577,371.18344135946575,408.84344135946577
9,49,19,m,1,0,1.0,1,3,low,8 - 7 + 9 + 1 + 4,15,14,16,15,384.51373609993607,386.5746583999135,388.0899140000111,393.1083707999205,393.9268039999297,393.9268092999701,395.4429288000101,396.4600876999321,e,15,0.8184332000091672,1,+1,1,6.535348037347631,-0.715959540946292,-0.3219035279588409,382890.0,17.169951598096254,-1.073368533045043,0.14546795523965406,386424.0,-15.562901056660865,-1.0910534984430251,-0.6182369761758801,393775.0,388.09244135946574,384.55844135946575,395.44344135946574
10,49,19,m,1,0,2.0,2,4,low,5 + 6 - 4 + 7 + 9,23,23,25,24,397.977515699924,400.0108141999226,401.5260057999985,406.544358199928,407.3267271999503,407.3267364000203,408.8428432999645,409.8596245999215,q,23,0.7823690000222996,1,+1,2,22.842643087461983,-0.674021676987798,-0.05247509398110317,396326.0,3.5787627365673913,-0.5083000641786839,-0.08257856881414405,399860.0,-2.8549319953708974,-0.3439136849474149,0.04405237684934149,433840.0,401.5284413594658,397.9944413594658,435.50844135946573
11,49,19,m,1,0,3.0,3,1,low,7 + 1 + 4 + 1 - 1,12,13,12,14,411.3764799999772,413.4042934000026,414.9204935999587,419.9386488000164,420.7427474999568,420.7427530999994,422.2594732999569,423.2769022999564,w,12,0.8040986999403685,1,+1,3,20.334261975083496,-1.3271902681785086,-0.06780016200694172,409720.0,-5.662664624405824,0.5264599321815435,0.044724910861946965,413254.0,33.792166988592385,0.07332872894874054,0.030447965159935197,420592.0,414.9224413594658,411.3884413594658,422.26044135946574
12,49,19,m,1,0,4.0,4,4,high,8 + 7 - 4 + 5 + 9,25,26,24,25,424.7940348999109,426.82210170000326,428.3374505999964,433.3560712999897,433.9907022999832,433.990708099911,435.50754999998026,436.5250645999331,e,25,0.6346309999935329,1,+10,13,7.329992361113085,-0.021845389459291376,-0.10263816734376752,423138.0,-3.438093483415451,-0.4163783667002292,0.1611493288188448,426671.0,18.412645618028073,-0.18321239185118898,-0.09461808282694695,639822.0,428.33944135946575,424.80644135946574,641.4904413594658
13,49,19,m,1,0,5.0,5,3,low,4 + 7 - 3 + 5 - 1,12,12,11,13,438.04156009992585,440.0673622000031,441.5826249999227,446.6010858999798,447.2866446999833,447.28665000002366,448.8035264000064,449.820134599926,q,12,0.6855588000034913,1,+1,14,2.424638725120367,0.4479302874584752,-0.04331578107899703,436383.0,-24.93229708012341,0.09810086373547922,0.08935691754683073,439917.0,42.02074967894929,0.7261559312619088,0.21216966753073563,447136.0,441.58544135946573,438.05144135946574,448.8044413594658
14,49,19,m,1,0,6.0,6,2,low,9 + 6 + 1 + 7 + 1,24,24,25,23,451.3369649000233,453.3856907999143,454.9015002999222,459.9197006999748,461.6466834999155,461.6466889999574,463.1633791999193,464.1801328000147,q,24,1.7269827999407426,1,+1,15,-26.496023534200727,0.3400736253011054,0.6523107855434487,449701.0,8.072419466875546,0.9469140610598004,0.01968616635008491,453235.0,-6.872594792569437,-0.5050795522451512,0.11697700094176877,461495.0,454.9034413594658,451.3694413594658,463.16344135946576
15,49,19,m,1,0,7.0,7,2,high,3 + 1 + 8 - 5 - 1,6,5,6,7,465.6969907999737,467.73186780000106,469.247246599989,474.2656538999872,475.4625715999864,475.4625769999111,476.9792023999617,477.9965223999461,w,6,1.196917699999176,1,+10,25,-16.064668959610323,1.1907100140566058,0.15825831943874613,464047.0,-12.83726248030468,-0.19209347882781103,-0.16673975640445637,467581.0,20.05760397803426,0.7230027587174881,-0.06986894842024549,475312.0,469.2494413594658,465.7154413594658,476.9804413594658
16,49,19,m,1,0,8.0,8,2,high,3 + 8 - 5 + 1 + 1,8,8,6,9,479.5132053999696,481.537164999987,483.0521882999456,488.0706510000164,489.3425269,489.3425323999254,490.8592048999853,491.87747359997593,q,8,1.27187589998357,1,+10,35,-28.734280784913956,-0.036103429808460596,-0.020309771556433764,477852.0,26.806083765079244,0.2284624510198361,-0.023701436496483375,481386.0,14.277411321840843,0.030782621628940632,0.17783944509915894,489192.0,483.0544413594658,479.52044135946574,490.86044135946577
17,49,19,m,1,0,9.0,9,2,high,6 + 1 + 7 + 5 - 1,18,18,17,16,493.39387109992094,495.4213047999656,496.93661430000793,501.95584800001234,502.5985893999459,502.59859479998704,504.115526999929,505.1328963999404,q,18,0.642741399933584,1,+10,45,-16.498694485831727,0.00799318134611493,-0.10691363759003414,491736.0,0.27986342390191865,0.24412441588028333,-0.0333324201670635,495271.0,-3.01286458052466,-0.9875400167825994,-0.2563564109120744,502448.0,496.9394413594658,493.40444135946575,504.11644135946574
18,49,19,m,1,0,10.0,10,3,low,8 + 5 + 1 - 7 + 9,16,17,14,16,506.6496787000215,508.67741729994304,510.1927852999652,515.2115156999789,516.1264731999254,516.1264786999673,517.6427414999343,518.6596178999171,e,16,0.9149574999464676,1,+1,46,19.457672048246536,1.0005648569600192,0.06485933997117921,504993.0,-3.9481385295810556,-0.13328282189620122,0.15929734338824986,508527.0,-3.805819281376392,0.4284066372022437,-0.05872715351544433,515975.0,510.19544135946575,506.66144135946575,517.6434413594658
19,49,19,m,1,0,11.0,11,3,high,5 + 1 + 7 - 8 + 6,11,11,13,9,520.1763588999165,522.2100899999496,523.7250702999299,528.743635199964,532.486542699975,532.4865482000168,534.0032673999667,535.0206128999125,w,13,3.742907500010915,0,+0,46,5.836794472624434,-0.11892923584781734,-0.15060826112200232,518525.0,42.637409140954176,0.011588258445208943,-0.0819670185880943,522059.0,11.205980297910752,0.7890500652455934,-0.05955445812851479,572647.0,523.7274413594657,520.1934413594657,574.3154413594658
20,49,19,m,1,0,12.0,12,1,low,8 + 1 + 1 + 1 - 3,8,9,8,6,536.5370370999444,538.5656363000162,540.0809945999645,545.099134500022,545.8864605999552,545.8864662999986,547.4030423000222,548.420004399959,w,8,0.7873260999331251,1,+1,47,3.170483473036711,0.4349020005266597,-0.10014627167731427,534880.0,0.7852444265922891,0.5519891699818791,0.21673951149953652,538414.0,9.832372430909816,-0.7201348197801138,-0.046910608401230736,545735.0,540.0824413594657,536.5484413594658,547.4034413594658
21,49,19,m,1,0,13.0,13,1,high,2 + 9 + 1 + 1 + 1,14,14,12,13,549.9375386999454,551.968918300001,553.4842553000199,558.502434499911,559.3584767999128,559.3584822999546,560.8750361999264,561.8923074000049,q,14,0.8560423000017181,1,+10,57,14.670528453515267,0.011530606704087454,-0.07213673207915683,548284.0,-6.731924006180474,0.49187624223407234,0.0891946570951212,551818.0,16.97544840404904,0.8781411739304152,0.02198842960510028,559207.0,553.4864413594657,549.9524413594658,560.8754413594658
22,49,19,m,1,0,14.0,14,3,low,2 + 1 + 9 - 7 + 6,11,13,11,12,563.409187000012,565.4331052999478,566.9484471000032,571.9673512999434,572.7984868999338,572.7984925999772,574.3151057999348,575.3320226999931,w,11,0.8311355999903753,1,+1,58,36.07371340056016,0.475834118686012,0.027108155684808066,561748.0,17.852840125921304,-1.0261734469979809,0.09850557413340622,565282.0,12.694286452370507,0.42594872322585164,0.06894544867996721,612822.0,566.9504413594658,563.4164413594658,614.4904413594658
23,49,19,m,1,0,15.0,15,2,low,4 + 7 + 1 + 1 - 8,5,5,4,7,576.848991899984,578.876898999908,580.3921657999745,585.4108876999235,586.102368199965,586.1023741000099,587.6188886999153,588.6366919999709,q,5,0.6914805000415072,1,+1,59,9.759468889390103,1.2321041248675346,0.01880093604642763,575192.0,8.1007442447392,-0.8235734478982124,-0.020666607526456104,578726.0,-11.744720637115726,1.4158788274945673,-0.11922718160745815,585951.0,580.3944413594658,576.8604413594658,587.6194413594658
24,49,19,m,1,0,16.0,16,1,low,6 + 9 + 1 + 1 - 1,16,14,16,15,590.1531339000212,592.1788843999384,593.6940763000166,598.7123858999694,599.6783673999598,599.6783730000025,601.1948226999957,602.2114745000144,w,16,0.9659814999904484,1,+1,60,14.630762324999523,-1.0386978633674984,-0.005643323524498367,588494.0,21.77899292186496,1.222396789940797,0.1904003270702479,592027.0,-10.681444095246839,-0.2990218479754807,-0.03745194759226411,599526.0,593.6954413594658,590.1624413594658,601.1944413594657
25,49,19,m,1,0,17.0,17,3,low,3 + 8 + 1 + 5 - 9,8,7,8,9,603.7282280999934,605.7543951999396,607.2696894999826,612.2889216999756,612.9744909999426,612.9744964999845,614.4908134000143,615.5077304999577,w,8,0.6855692999670282,1,+1,61,8.284708617375728,0.24122068160069876,-0.08901010711659252,602069.0,40.87850624153159,-0.10957111637512273,2.262626789624262,605604.0,5.6834903808634785,-3.1107033662885692,0.025768220861250413,712998.0,607.2724413594658,603.7374413594657,714.6664413594658
26,49,19,m,1,0,18.0,18,1,high,3 + 1 + 9 + 1 + 1,15,14,17,15,617.0245432999218,619.048722699983,620.5640748000005,625.5822560999077,626.8223447999917,626.8223503999179,628.3388021999272,629.356677099946,e,15,1.2400887000840155,1,+10,71,17.692926990707836,1.1287110304434265,-0.06475842403300902,615363.0,-9.716430738661995,0.31327398310462673,0.10153077264286847,618897.0,-14.35624589922391,0.3217556802746815,0.08673077508209204,626671.0,620.5654413594658,617.0314413594658,628.3394413594658
27,49,19,m,1,0,19.0,19,4,low,4 + 7 + 9 - 5 + 7,22,24,23,22,630.8735484000063,632.9004050999647,634.4154090000084,639.4345977000194,639.9742763999384,639.9742821999826,641.4907546999166,642.5076248999685,e,22,0.5396786999190226,1,+1,72,-3.1078133266740924,0.24633678324922492,0.14285135038359908,629215.0,8.7509621337265,0.7452631521215576,-0.019576795106160727,632749.0,-11.560375381556335,0.2510406953373243,0.15398402007407208,754406.0,634.4174413594658,630.8834413594658,756.0744413594657
28,49,19,m,1,0,20.0,20,1,low,6 + 9 + 1 + 1 - 1,16,15,14,16,644.02435959992,646.0515492999693,647.5665586999385,652.5846273999196,654.8942621999886,654.8942680999171,656.4105646999087,657.4273735999595,e,16,2.309634800069034,1,+1,73,16.158064051892193,0.5099714698304822,0.09584733470963136,642366.0,5.094425337575284,1.0274896762400871,0.08288234756459856,645899.0,12.943834257343859,-0.013189421684884017,0.06411651279920405,654742.0,647.5674413594658,644.0344413594657,656.4104413594657
29,49,19,m,1,0,21.0,21,2,high,7 + 8 + 1 + 9 + 1,26,25,24,26,658.9440992999589,660.9708488999167,662.4858297000173,667.5044150999747,668.2381829000078,668.2381885999348,669.7550400999608,670.7721762999427,e,26,0.7337678000330925,1,+10,83,22.270052607208314,-1.162071748869713,0.05197470882934274,657285.0,7.508008283974533,0.08074500137979079,0.12281680473880763,660819.0,4.896532281092053,-1.8126053485034603,-0.11729549891391922,668087.0,662.4874413594657,658.9534413594657,669.7554413594657
30,49,19,m,1,0,22.0,22,2,high,9 + 5 - 6 + 1 - 1,8,9,7,8,672.2889283999102,674.313698999933,675.82900779997,680.8468221999938,685.6462451999541,685.6462508999975,687.1628979999805,688.1809631999349,w,7,4.79942299996037,0,+0,83,4.517925860378007,-1.1591173496720186,-0.08431064782146502,670628.0,12.034492517124416,-0.4357257313136964,0.24771529583597207,674162.0,1.9675274133372902,-0.7016853928398135,-0.11429735134061048,740134.0,675.8304413594658,672.2964413594658,741.8024413594658
31,49,19,m,1,0,23.0,23,1,low,8 + 1 + 1 - 1 - 4,5,5,3,6,689.6978334999876,691.725260199979,693.2405101999175,698.2597908999305,699.070306199952,699.0703122999985,700.587830399978,701.6052173000062,e,6,0.8105153000215068,0,+0,83,-12.151077716227658,0.11921615159886745,-0.10779300502230393,688040.0,-21.863198486180565,-0.25183591598116095,0.17453013840149412,691574.0,67.67744267355131,0.07466649227178745,-0.036529162216470734,726543.0,693.2424413594657,689.7084413594657,728.2114413594658
32,49,19,m,1,0,24.0,24,3,high,7 - 6 + 8 + 1 + 7,17,17,15,16,703.1390962000005,705.1657345999265,706.6805495999288,711.6997658999171,713.1502455999143,713.1502509999555,714.6663347999565,715.684098699945,q,17,1.4504796999972314,1,+10,93,-24.784352869055127,1.267605834545816,0.09223077995719797,701481.0,-12.95956568371394,0.6941834624469099,0.18375440616059535,705014.0,-70.0153737072437,-1.2180940727995804,0.47407575201851015,785318.0,706.6824413594658,703.1494413594658,786.9864413594657
33,49,19,m,1,0,25.0,25,1,high,2 + 1 + 9 + 1 + 1,14,13,12,14,717.2008898999775,719.222634500009,720.7376182000153,725.7557668000227,726.6941979000112,726.6942033999367,728.2109989000019,729.2286349999486,e,14,0.93843109998852,1,+10,103,-29.156093747485894,0.2711488282080312,0.1089000321433824,715538.0,-18.62454767429731,-1.292789264034293,-0.033990585245257776,719070.0,44.53696434211953,0.6041639079555745,-0.020968180710073003,799158.0,720.7384413594658,717.2064413594658,800.8264413594658
34,49,19,m,1,0,26.0,26,2,high,4 + 8 + 1 + 1 - 5,9,11,9,8,730.7455692000221,732.7701303999638,734.2862816000124,739.3043890999397,740.2861610999098,740.2861666999524,741.8027182000224,742.8201282999944,w,9,0.9817719999700784,1,+10,113,6.300906236067188,-1.1260851943106926,-0.07143076981618512,729085.0,-40.6385812157884,-0.14335623463653668,0.017815997277967677,732619.0,-19.265946859389896,1.8952181827326804,-0.14364760159016887,887189.0,734.2874413594658,730.7534413594658,888.8574413594657
35,49,19,m,1,0,27.0,27,4,low,7 + 8 - 4 + 6 - 5,12,13,11,12,744.3374124999391,746.3631438999437,747.8793033999391,752.8976804999402,754.558028099942,754.5580337999854,756.074692199938,757.0917159999954,e,12,1.6603476000018418,1,+1,114,-16.46779371224425,-0.7130688787871264,-0.10775226320473608,742678.0,20.032733056377023,0.31138336944387124,-0.16541878553151723,746212.0,15.270193185333055,-2.1359188300290475,0.04257092104192539,846710.0,747.8804413594657,744.3464413594658,848.3784413594658
36,49,19,m,1,0,28.0,28,4,high,4 + 7 - 8 + 9 - 3,9,8,9,11,758.6084169999231,760.636598699959,762.1515251999954,767.1711637999397,771.2140736000147,771.214079599944,772.7306163000176,773.7481430999469,q,8,4.042909800074995,0,+0,114,44.53271658171993,-0.071962648088296,0.16810836534773754,756951.0,8.943790685027027,-0.7629978896376324,-0.01559392979408969,760486.0,3.6952446256562617,-0.05933370583290465,2.1822700459646405,1027829.0,762.1544413594657,758.6194413594658,1029.4974413594657
37,49,19,m,1,0,29.0,29,3,high,7 - 1 + 8 - 6 + 4,12,13,11,12,775.2649366999976,777.2878025999526,778.8030732999323,783.8218441000208,785.4700923999771,785.470097900019,786.986699800007,788.0040972999996,e,12,1.6482482999563215,1,+10,124,16.302391758266392,-0.06678766551008053,1.5706187723607523,773602.0,4.541183628790614,1.3089349477082042,-0.016667570752389782,777136.0,-2.031814091366579,-2.722932874037374,0.1465412556223913,831934.0,778.8044413594657,775.2704413594657,833.6024413594657
38,49,19,m,1,0,30.0,30,1,high,9 + 8 + 1 + 1 - 1,18,17,20,18,789.5212323999731,791.5444451000076,793.0597902999725,798.078114099917,799.3100494999671,799.3100555000128,800.8265131999506,801.8436557999812,e,18,1.2319354000501337,1,+10,134,11.579595165620034,1.7353647493057318,0.010278783311862938,787859.0,-38.973354435670274,-0.5454809341834723,-0.04361237645922644,791392.0,-5.418880690610457,2.157224458168918,1.9582172081541485,972198.0,793.0604413594658,789.5274413594658,973.8664413594657
39,49,19,m,1,0,31.0,31,2,low,7 + 6 + 1 - 1 - 8,5,5,3,4,803.3604963999242,805.3838920999551,806.8991302999202,811.9174998999806,816.7020470999414,816.7020525999833,818.2186628999189,819.2359242999228,e,4,4.784547199960798,0,+0,134,17.916858834633164,0.20475402143513488,-0.0638069643293071,801698.0,10.370062434514619,0.5804484798989868,-0.10830251495861898,805232.0,-2.432317458848008,0.3562088972709967,-1.0237394882356083,944871.0,806.9004413594657,803.3664413594657,946.5394413594657
40,49,19,m,1,0,32.0,32,3,low,6 + 1 + 8 + 7 - 9,13,15,14,13,820.7528107999824,822.7802402999951,824.2954463999486,829.3144655999495,832.0860121999867,832.0860178999137,833.602662499994,834.6192151999567,e,13,2.7715466000372544,1,+1,135,8.869961634631732,-1.3326303259517394,0.3037524381811081,819095.0,14.697186930642529,1.453485723768475,-0.14469977447699955,822629.0,10.12056608298967,-0.4778940334601227,-0.047433552455331096,859998.0,824.2974413594658,820.7634413594658,861.6664413594658
41,49,19,m,1,0,33.0,33,4,high,2 + 9 - 6 + 8 - 4,9,7,11,9,836.135945099988,838.1603417999577,839.6755705999676,844.6938812999288,846.861945600016,846.8619515999453,848.3780755000189,849.3955308999866,e,9,2.168064300087281,1,+10,145,9.60519334179712,-1.0099074879112813,-0.0033046549489599286,834474.0,-17.73370367647024,1.3384270149809758,0.2037458213636396,838008.0,9.011980894027735,0.751726328177388,-0.010539646305280925,1041285.0,839.6764413594658,836.1424413594658,1042.9534413594658
42,49,19,m,1,0,34.0,34,3,high,5 + 7 + 1 - 4 + 6,15,17,13,15,850.9126945999451,852.940020399983,854.4550329999765,859.4736043999437,860.1499509999994,860.1499628999736,861.6666343999095,862.6838939000154,e,15,0.6763466000556946,1,+10,155,4.447095591774627,0.3346866531764032,0.38415765540217306,849254.0,5.217443096083798,-0.19245261965918825,0.1267823685579299,852788.0,4.650649157930675,-0.08730528289156236,-0.12649874972365005,873270.0,854.4564413594658,850.9224413594658,874.9384413594657
43,49,19,m,1,0,35.0,35,3,high,7 - 1 + 8 - 6 + 4,12,11,12,13,864.2007809999632,866.2276213999139,867.743087299983,872.7612665999914,873.4218576999847,873.4218630999094,874.938289099955,875.955625899951,w,12,0.6605910999933258,1,+10,165,-38.57985178229159,-0.6707626795303705,0.031375354059970384,862542.0,-77.65126395105818,0.491213632694917,0.007362382156160585,866076.0,-1.8355297299891848,-2.3423106500477533,1.1382734247168282,900342.0,867.7444413594658,864.2104413594658,902.0104413594657
44,49,19,m,1,0,36.0,36,2,low,2 + 9 - 4 + 1 + 1,9,11,9,8,877.4724758999655,879.499741800013,881.0155217999127,886.0334812999936,887.341794500011,887.3417998999357,888.8582582999952,889.8751672999933,w,9,1.3083132000174371,1,+1,166,-24.758403171205646,-0.38855961404847417,-0.03659432658172257,875814.0,19.77841928858478,0.7214691608113517,0.026779012694198023,879348.0,10.508745220505954,-0.40276564883183497,-0.02773026716353444,985365.0,881.0164413594657,877.4824413594657,987.0334413594658
45,49,19,m,1,0,37.0,37,3,high,7 - 5 + 9 + 1 - 4,8,7,9,8,891.3926733999979,893.418958199909,894.9347520999145,899.9549575999845,900.4938499999698,900.493855800014,902.0104101999896,903.0272720999784,e,8,0.5388923999853432,1,+10,176,-26.470527126405596,-0.06562709775739073,-0.3023748966312221,889733.0,15.701843639302652,0.7772754714749874,-0.2744273414820002,893269.0,-0.03734582323207647,0.49122926205364514,-0.024755054502126672,958102.0,894.9374413594658,891.4014413594657,959.7704413594657
46,49,19,m,1,1,38.0,0,2,high,6 + 1 + 1 + 8 - 9,7,9,5,7,934.4891339999158,936.5164733999408,938.0323957999937,943.051713099936,945.0217825999716,945.0217886000172,946.5390283999732,947.5568422999931,e,7,1.9700695000356063,1,+10,186,1.0691624852972694,0.6475401029261127,-1.5653276448573794,932830.0,4.834538803217001,0.446913245774466,0.21728602459367719,936366.0,6.896151528125345,-0.5066159590912616,0.11213393753392387,998629.0,938.0344413594657,934.4984413594658,1000.2974413594658
47,49,19,m,1,1,39.0,1,3,low,2 + 1 + 9 - 4 + 6,14,15,14,16,949.0739956999896,951.1018338999712,952.6165328000208,957.6356651999522,958.2536398000084,958.2536451999332,959.770304100006,960.78769919998,w,14,0.6179746000561863,1,+1,187,2.9343202141231224,0.7689384077429464,0.026842163365278005,947416.0,23.180386277146045,-0.34452224015221766,-0.0783943002561096,950949.0,-8.596305239139099,0.3085114738453303,-0.12075004288291913,1011957.0,952.6174413594657,949.0844413594658,1013.6254413594658
48,49,19,m,1,1,40.0,2,1,high,3 + 1 + 8 - 1 + 1,12,13,12,10,962.3049075999296,964.326832099934,965.8421187999191,970.8620551999192,972.3497163999128,972.349722099956,973.866483299993,974.8834965999704,w,12,1.487661199993454,1,+10,197,-16.422354508149372,-0.21812059985371324,-0.19365744649793415,960641.0,-46.75574728854474,0.1024346158634808,0.13597469462098433,964175.0,14.133249093097385,-1.6731763704784903,0.1479755014084836,1187621.0,965.8434413594657,962.3094413594657,1189.2894413594659
49,49,19,m,1,1,41.0,3,2,high,7 + 1 + 9 - 1 - 8,8,7,6,8,976.4003163999878,978.428337099962,979.9435519999824,984.96199719992,985.5177336999914,985.5177391999168,987.0340818999102,988.0514582999748,e,8,0.5557365000713617,1,+10,207,-51.583890327268946,-0.0625518209754885,0.06523051564195548,974742.0,-65.31872379816308,-1.735532581027786,0.04184277680889448,978276.0,14.905708367191544,-1.0820447243342786,-0.26315895635266306,1085293.0,979.9444413594657,976.4104413594657,1086.9614413594657
50,49,19,m,1,1,42.0,4,2,low,3 + 9 - 1 - 5 + 1,7,7,5,6,989.5679762000218,991.5928839999252,993.107962399954,998.126998599968,998.7817291999236,998.7817350999684,1000.2984787999884,1001.3153997999616,q,7,0.6547305999556556,1,+1,208,4.251649306135564,0.3361035987032608,-0.0458678214305861,987907.0,66.26083795256952,-1.0464778339569794,0.35801052613453943,991440.0,15.49343266208575,-0.5266915618945216,0.2785573154647596,1101845.0,993.1084413594658,989.5754413594658,1103.5134413594658
51,49,19,m,1,1,43.0,5,3,low,4 + 8 - 3 + 5 - 1,13,13,12,14,1002.8324226000112,1004.8580740999896,1006.373285699985,1011.3917517999652,1012.1096410999309,1012.1096469999756,1013.6263544999528,1014.643336799927,q,13,0.7178892999654636,1,+1,209,12.734988040394082,-0.2663111734533521,-0.060046217463028295,1001172.0,2.965681679411844,-0.4557623706055267,-0.11242217474800897,1004706.0,14.737581403062043,-0.5812333735971107,0.016454563487483975,1160068.0,1006.3744413594658,1002.8404413594658,1161.7364413594657
52,49,19,m,1,1,44.0,6,4,high,9 + 8 - 5 - 7 + 6,11,13,10,11,1016.160421299981,1018.1849185000174,1019.7001899000024,1024.7193024000153,1027.981601699954,1027.9816085000057,1029.4982187999412,1030.5152990999632,e,11,3.262299299938604,1,+10,219,-9.272348429708279,0.5005542228855893,0.16144205431981007,1014498.0,-33.64121704826276,1.0809466296295307,0.0393325197132115,1018033.0,-11.13901120080305,-0.18240763007882332,-0.09714065256560689,1056405.0,1019.7014413594658,1016.1664413594658,1058.0734413594657
53,49,19,m,1,1,45.0,7,4,low,5 + 7 - 4 - 6 + 9,11,12,13,11,1032.0326442000223,1034.0614024999086,1035.5768476999365,1040.5961000999669,1041.437558799982,1041.4375645999098,1042.954046399915,1043.9709966999944,e,11,0.8414587000152096,1,+1,220,17.71015846121246,1.423547490129847,-0.2881943552390158,1030375.0,-23.16870473299624,-0.16444922640003945,0.15307747474262268,1033911.0,7.713984414211765,-0.4279520503164953,-0.07881790335349503,1072125.0,1035.5794413594658,1032.0434413594658,1073.7934413594658
54,49,19,m,1,1,46.0,8,4,low,6 + 5 - 7 + 8 - 9,3,5,3,4,1045.4878613000035,1047.5150684999537,1049.03030079999,1054.049141699914,1056.5575375999324,1056.5575429999735,1058.0739569999278,1059.0908876999747,w,3,2.508395900018513,1,+1,221,7.345693546208292,-0.19567731003546296,0.06628748427028253,1043828.0,-15.847336483656377,0.02058163221871645,0.01626673721482863,1047363.0,-20.184057253313554,0.25167139955212026,0.07262879059554339,1118701.0,1049.0314413594658,1045.4964413594657,1120.3694413594658
55,49,19,m,1,1,47.0,9,4,high,7 + 6 - 9 + 8 - 3,9,7,8,9,1060.607799499994,1062.6339608000126,1064.149267099914,1069.1676794999512,1072.2776549999835,1072.2776617999189,1073.794194899965,1074.8115439999383,e,9,3.1099755000323057,1,+10,231,-31.560610544546662,0.5956703845923377,-0.053102437915056644,1058948.0,16.13254926762739,0.05034413613475941,0.03919921242399793,1062482.0,-16.441351073180655,0.5408458432751484,-0.09434956370176995,1131869.0,1064.1504413594657,1060.6164413594659,1133.5374413594657
56,49,19,m,1,1,48.0,10,2,high,7 + 6 + 1 + 8 + 1,23,21,22,23,1076.3283908999292,1078.3537302999755,1079.868986699963,1084.8873802999733,1085.4454767999705,1085.44548200001,1086.9619676999282,1087.9794342999812,e,23,0.5580964999971911,1,+10,241,12.497622325208726,-0.731246077495042,-0.030474020510632194,1074667.0,11.653373477178418,1.0244340452805893,-0.3005967868854087,1078201.0,-25.306425523191795,0.18501416063991716,0.09360979062435715,1173461.0,1079.8694413594658,1076.3354413594657,1175.1294413594658
57,49,19,m,1,1,49.0,11,2,low,4 + 1 + 9 + 1 - 6,9,9,8,7,1089.496283399989,1091.5236486999784,1093.0386228999123,1098.0564867999635,1101.99748000002,1101.99748609995,1103.5141026999336,1104.5313021999318,q,9,3.940993200056255,1,+1,242,10.840486502666288,1.186775088888096,-0.09809276731973604,1087837.0,-4.914624234318257,-0.1899808409346324,-0.03639623996237873,1091370.0,-2.78145615045646,-1.0339045654545211,0.04228510672616048,1201308.0,1093.0384413594657,1089.5054413594657,1202.9764413594658
58,49,19,m,1,1,50.0,12,4,low,6 + 9 - 7 + 8 - 5,11,13,12,11,1106.047908499953,1108.0734900999814,1109.589218499954,1114.607837199932,1118.853443400003,1118.8534489999292,1120.370107900002,1121.387760499958,e,11,4.245606200071052,1,+1,243,-45.10611335517303,1.0475433028158196,0.05811475420198664,1104387.0,12.59398156810922,1.780797621158193,0.10410849297581715,1107922.0,-53.28752533213496,0.8888864925968858,1.6686016850561272,1146613.0,1109.5904413594658,1106.0554413594657,1148.2814413594658
59,49,19,m,1,1,51.0,13,4,high,3 + 9 - 4 + 7 + 6,21,19,21,20,1122.9051628999878,1124.9304785999702,1126.4463087000186,1131.4644645999651,1132.0213967999443,1132.0214024999875,1133.5379425999708,1134.5551755999911,w,21,0.556932199979201,1,+10,253,-19.08532408021738,0.44312168208479896,0.02387582567786084,1121244.0,-40.76979305828584,-0.8155826699776112,-0.09209466817499834,1124779.0,-30.00463323760467,1.562755062312224,-0.17080409644965533,1246012.0,1126.4474413594658,1122.9124413594657,1247.6804413594657
60,49,19,m,1,1,52.0,14,4,high,7 + 6 - 4 + 9 - 5,13,13,14,12,1136.0720335999504,1138.0991770999972,1139.614622599911,1144.6329405999277,1146.7653188999975,1146.7653242999222,1148.2819038999733,1149.299138000002,q,13,2.1323783000698318,1,+10,263,-6.954821263947983,-0.31668208718819635,0.05709749192910607,1134413.0,14.592781985882677,1.3657089647170242,-0.011672608583945143,1137947.0,2.8386311334771435,0.029381148762979592,-0.009119012026004736,1273565.0,1139.6154413594656,1136.0814413594658,1275.2334413594658
61,49,19,m,1,1,53.0,15,3,low,5 + 6 + 7 - 1 - 9,8,7,8,9,1150.8160720999583,1152.8414289000211,1154.356536499923,1159.3766694000224,1160.2212986999657,1160.2213042000076,1161.737975499942,1162.7548205999192,w,8,0.8446292999433354,1,+1,264,8.48597731983816,0.38959417599226054,-1.382306723205542,1149155.0,13.539183138688905,0.8434533115322251,0.008982785507429147,1152690.0,-7.730615834495758,-0.7265979990859366,0.16803737368990657,1218908.0,1154.3584413594658,1150.8234413594657,1220.5764413594657
62,49,19,m,1,1,54.0,16,2,low,8 + 1 + 4 - 7 + 1,7,5,7,6,1164.2717457999242,1166.2990145999938,1167.8141637999795,1172.8322069999997,1173.6133604999632,1173.6133658000035,1175.130033100024,1176.1467838999815,w,7,0.7811534999636933,1,+1,265,-18.700810604498596,-2.5590695300123016,-0.04514850064472142,1162613.0,-4.254843025150192,0.4213501566734985,0.13195097325297178,1166147.0,3.5487761261928785,0.5774879662997243,-0.046822228350787753,1531251.0,1167.8154413594657,1164.2814413594658,1532.9194413594657
63,49,19,m,1,1,55.0,17,1,low,9 + 7 + 1 + 1 + 1,19,19,20,18,1177.6635443000123,1179.689965599915,1181.2053622999229,1186.224472199916,1187.7733695999486,1187.7733751999913,1189.289914599969,1190.3065720999148,q,19,1.548897400032729,1,+1,266,1.3105750925805761,1.005187405172542,0.0024873277339585442,1176004.0,53.30879413757699,1.1604949139033236,-0.051038756070014735,1179538.0,8.598059391993203,-0.49714791896413235,0.021222829579430336,1321380.0,1181.2064413594658,1177.6724413594657,1323.0484413594659
64,49,19,m,1,1,56.0,18,2,low,7 + 5 + 1 - 1 - 8,4,3,4,2,1191.8233652999625,1193.8517264999682,1195.3674944000086,1200.3859304999933,1201.4612110999878,1201.4612169999164,1202.9777437999146,1203.9947298999175,w,4,1.075280599994585,1,+1,267,3.8613600093491343,0.011897047924990467,0.037912778800113456,1190164.0,0.64181919328525,-0.5389960123103243,0.0410895834458862,1193699.0,4.524992911652419,1.2984685877052744,-0.15666623350855513,1736602.0,1195.3674413594658,1191.8324413594657,1738.2704413594658
65,49,19,m,1,1,57.0,19,3,low,3 + 1 + 8 - 5 + 9,16,16,17,15,1205.5112332999706,1207.5364563999465,1209.0515409000218,1214.0716363999527,1219.0612441999838,1219.0612498999108,1220.5778149999678,1221.5947450000094,q,16,4.989607800031081,1,+1,268,-7.701445974909483,-0.7673274760481528,-0.2181475646360449,1203850.0,-1.4588612853929703,1.6579754040496963,-0.017957213268559924,1207385.0,3.5056830747513494,-0.85546335961671,-0.018086615998074818,1232693.0,1209.0534413594658,1205.5184413594657,1234.3614413594657
66,49,19,m,1,1,58.0,20,3,high,7 - 1 + 9 - 5 + 4,14,13,15,14,1223.1113961000228,1225.137864199933,1226.6535518999444,1231.6716715999646,1232.8452118999558,1232.845218100003,1234.3618189999834,1235.3793172999283,e,14,1.1735402999911455,1,+10,278,11.280569234712956,-0.6906704706076638,-4.2890963995047615,1221451.0,0.41149858022488495,-0.9986501089213737,0.07857940821546272,1224986.0,5.766269058509714,0.11862917032857911,0.07653990772950325,1259324.0,1226.6544413594659,1223.1194413594658,1260.9924413594658
67,49,19,m,1,1,59.0,21,4,low,5 + 7 - 4 + 8 + 6,22,22,24,23,1236.8961535999551,1238.9237547999946,1240.4391178999797,1245.4574277999343,1246.1652577000204,1246.165263299947,1247.6818256999832,1248.6986464000074,q,22,0.7078299000859261,1,+1,279,21.27977034566238,-1.7988083809865207,-0.03779509319494645,1235237.0,-10.063863747787076,0.38593126437675185,0.12078564036650086,1238771.0,15.618821497191806,-0.14356714604957066,0.07081371788754498,1287756.0,1240.4394413594657,1236.9054413594658,1289.4244413594658
68,49,19,m,1,1,60.0,22,3,low,2 + 1 + 9 - 5 + 6,13,11,13,14,1250.2154361999128,1252.2417553999694,1253.7571148999268,1258.7763279000064,1259.4771678999532,1259.4771736999974,1260.9939826999323,1262.0108763999306,w,13,0.7008399999467656,1,+1,280,12.167914628057927,1.3321312393503604,0.044694723282182824,1248555.0,-32.71591164128177,-0.10513691803055814,0.05668883633160959,1252090.0,6.131453568881735,1.3588789183395011,-0.11135254714435461,1391523.0,1253.7584413594657,1250.2234413594658,1393.1914413594657
69,49,19,m,1,1,61.0,23,4,high,4 + 7 + 8 - 3 + 9,25,26,24,25,1263.5274830999551,1265.5526538999984,1267.0684879999608,1272.0871747999918,1273.7172618999612,1273.717267800006,1275.2338664999695,1276.2513852999546,e,25,1.630087099969387,1,+10,290,21.609955160744306,0.29755973361825117,0.06817673575555427,1261866.0,-15.471814437047703,0.11297978280490106,0.04479482375664534,1265401.0,-8.915373231314174,0.22703787495392813,-0.04346767789704575,1360924.0,1267.0694413594658,1263.5344413594657,1362.5924413594657
70,49,19,m,1,1,62.0,24,4,low,8 + 4 + 7 - 5 - 6,8,7,9,8,1277.7682662999723,1279.7964534999337,1281.311832999927,1286.3307421000209,1287.9091722000155,1287.9091778999427,1289.4256459999597,1290.4423910999903,e,8,1.5784300999948755,1,+1,291,-3.5387112606867603,-1.4272139575475924,0.3604465053502157,1276110.0,5.396498929254079,-0.01210187865357426,0.04694584805915847,1279644.0,10.334610658273286,-0.3160647873293332,0.16613757416677388,1418324.0,1281.3124413594658,1277.7784413594657,1419.9924413594658
71,49,19,m,1,1,63.0,25,4,low,9 + 3 - 5 + 8 + 6,21,21,23,19,1291.9594602999275,1293.9839391999412,1295.4992992000189,1300.5174286999973,1304.8450828000205,1304.845087799942,1306.36175739998,1307.3791216999523,w,23,4.32765410002321,0,+0,291,1.3011159979301645,-0.6549310676103044,-0.21843349409715063,1290297.0,9.400532450765523,0.6998295744507557,0.04287501222738066,1293831.0,0.9975003919020873,-0.4002551530331955,-0.033576704373500244,1447804.0,1295.4994413594657,1291.9654413594658,1449.4724413594658
72,49,19,m,1,1,64.0,26,1,high,5 + 1 + 1 + 9 + 1,17,17,16,19,1308.895772299962,1310.9242812999291,1312.439481099951,1317.4574415999232,1321.5331230999436,1321.5331293999916,1323.0497444999637,1324.0668384999735,q,17,4.075681500020437,1,+10,301,13.050296363057672,0.2512969597793182,0.0039032140338850496,1307238.0,-2.4969353198394675,0.3621140629112318,0.023542054673990176,1310771.0,-11.142779264246816,0.11157572925091053,-0.02728239564553059,1334524.0,1312.4394413594657,1308.9064413594658,1336.1924413594656
73,49,19,m,1,1,65.0,27,1,high,5 + 6 + 1 + 1 + 1,14,16,15,14,1325.5836289,1327.6106976999436,1329.1258791999426,1334.1439483999277,1334.677007799968,1334.6770138000138,1336.193722199998,1337.2109264999162,e,14,0.5330594000406563,1,+10,311,-23.686680940231994,0.6079188896199543,-0.05972027016163617,1323924.0,22.420528858819278,2.2226835305603565,0.02486658040542533,1327457.0,-9.819878463912737,-0.3720988931338969,-0.12160764112225952,1347716.0,1329.1254413594659,1325.5924413594657,1349.3844413594657
74,49,19,m,1,1,66.0,28,1,low,2 + 1 + 9 + 1 - 1,12,13,11,12,1338.7276077999268,1340.756634999998,1342.2715795999393,1347.2896596000064,1347.869004099979,1347.869009600021,1349.3858808999648,1350.403099399991,e,12,0.5793444999726489,1,+1,312,-9.307381902575042,-0.5893645384689297,-0.04796818688948279,1337070.0,-4.57490054806328,0.5189992955499481,0.03146124269059203,1340603.0,0.6456353446302678,1.1483756498019284,0.25159064414581733,1374428.0,1342.2714413594658,1338.7384413594657,1376.0964413594659
75,49,19,m,1,1,67.0,29,4,high,5 + 7 - 4 - 6 + 9,11,13,12,11,1351.91958039999,1353.9468946999405,1355.4621812999249,1360.4805953999748,1361.0770563000117,1361.07706219994,1362.5936461000238,1363.6108320999192,e,11,0.5964609000366181,1,+10,322,-12.234238670971116,0.9078080968685276,0.09217667241186156,1350261.0,41.30415221147276,-1.1687772450999283,0.05568407222505445,1353794.0,4.142725881431407,0.05616005806080615,-0.036547070284766336,1461115.0,1355.4624413594659,1351.9294413594657,1462.7834413594658
76,49,19,m,1,1,68.0,30,1,high,8 + 1 + 5 + 1 + 1,16,16,15,17,1365.127628599992,1367.1519386,1368.6673701999243,1373.6851331000216,1374.580964099965,1374.5809698000085,1376.0975410999963,1377.1147006999236,q,16,0.8958309999434277,1,+10,332,34.97967147201243,-1.8880839024535936,0.13044521695154998,1363465.0,3.022227373616042,0.20759927005682588,0.07639308275096801,1366999.0,3.6844003632185043,1.4197788077564386,0.042786969227782246,1404852.0,1368.6674413594658,1365.1334413594657,1406.5204413594658
77,49,19,m,1,1,69.0,31,3,low,6 - 1 + 7 - 8 + 9,13,13,12,11,1378.6314891999357,1380.658579199924,1382.173839599942,1387.1921592999715,1391.6769232000224,1391.6769284999464,1393.1933411000064,1394.210308999987,q,13,4.484763900050893,1,+1,333,15.74539721486423,0.6221553779176663,0.00547824249295048,1376972.0,33.267757300987924,-0.2612226536907398,-0.021793340465755096,1380506.0,1.2564880209882237,1.2644373187058902,0.07779749810345038,1518099.0,1382.1744413594658,1378.6404413594657,1519.7674413594657
78,49,19,m,1,1,70.0,32,1,low,5 + 1 + 1 + 6 + 1,14,16,14,13,1395.7277056999735,1397.7555748999584,1399.2708459999412,1404.2893302999437,1405.0049787999596,1405.004984900006,1406.5217191999543,1407.5385659999447,w,14,0.7156485000159591,1,+1,334,27.28825690324481,-0.4061213198139608,-0.08356674957515153,1394068.0,11.555154880240504,-1.0673012307515606,-0.18825900556818675,1397603.0,40.57595296115119,0.6163431170200147,-0.052467163773845193,1431724.0,1399.2714413594658,1395.7364413594657,1433.3924413594657
79,49,19,m,1,1,71.0,33,4,high,6 + 9 + 7 - 3 - 5,14,12,14,13,1409.0552073,1411.0830096999416,1412.5981198999798,1417.6169468999142,1418.476925099967,1418.4769307000097,1419.9935208999086,1421.01098989998,w,14,0.8599782000528648,1,+10,344,15.588283463960863,0.15462320494966253,-0.35449617914376885,1407396.0,1.923883932266584,-1.1675335322023201,0.08309899309255497,1410930.0,-34.34870422458992,0.3873681232475752,-0.03614849240188933,1571963.0,1412.5984413594658,1409.0644413594657,1573.6314413594657
80,49,19,m,1,1,72.0,34,1,low,2 + 9 + 1 + 1 + 1,14,12,13,14,1422.5277903999668,1424.5539362999843,1426.0689562999178,1431.087767499965,1431.8769331999356,1431.8769387999782,1433.3935599999968,1434.4105494999094,e,14,0.7891656999709085,1,+1,345,-5.041738277565088,0.4352201961649005,0.054910648066419876,1420867.0,6.724538765892195,-0.7433649648007865,0.08858082736313522,1424401.0,-6.818162355545159,-0.20220014070966652,-0.026786918340874655,1474619.0,1426.0694413594658,1422.5354413594657,1476.2874413594657
81,49,19,m,1,1,73.0,35,4,high,3 + 8 - 4 + 9 + 6,22,21,22,23,1435.927404899965,1437.955534699955,1439.4704943000106,1444.4884946999373,1447.9568341999548,1447.9568396999966,1449.4733880999263,1450.4912499999627,w,22,3.468339500017464,1,+10,355,6.830284207182243,0.907011207483297,-0.04772338285627442,1434268.0,-14.0752386894839,1.1042058276523736,0.13810283646047705,1437802.0,8.499770212184124,-0.1777912528132548,-0.1031421829757988,1585323.0,1439.4704413594657,1435.9364413594658,1586.9914413594659
82,49,19,m,1,1,74.0,36,4,low,8 + 4 + 7 - 5 - 6,8,8,9,6,1452.008039599983,1454.0339972999643,1455.549162399955,1460.5674537000014,1461.268789099995,1461.2687944999195,1462.785448999959,1463.802466299967,q,8,0.7013353999936953,1,+1,356,-18.265935182153385,-3.0829453095256447,-5.751736844732808,1450347.0,1.5713547521285314,-0.2046530446295014,-0.0020681567309221993,1453881.0,4.156483164644172,1.655872624504779,-2.849528981815462,1656739.0,1455.5494413594658,1452.0154413594657,1658.4074413594658
83,49,19,m,1,1,75.0,37,1,low,2 + 1 + 1 + 9 - 1,12,13,11,12,1465.318930599955,1467.344750899938,1468.860006499919,1473.8786082000006,1474.7727161999792,1474.7727218000218,1476.2892638000194,1477.3061804999595,e,12,0.894107999978587,1,+1,357,25.407090198028374,-0.06887359066629983,0.0189163242091277,1463658.0,-0.9910228180566563,0.9461806663044232,0.08046333937750316,1467191.0,11.733760288389645,-0.4886028308871806,0.14472270328966785,1545331.0,1468.8594413594658,1465.3264413594657,1546.9994413594657
84,49,19,m,1,2,76.0,0,3,low,8 + 3 + 1 - 7 + 9,14,14,15,12,1509.073907700018,1511.1014688999858,1512.616824299912,1517.6374409999698,1518.252646600013,1518.2526519999374,1519.7692564999452,1520.7861138000153,q,14,0.6152056000428274,1,+1,358,37.52807528755412,-0.23083565404897333,0.029029254482050515,1507414.0,10.086456936167586,0.9519594114041636,-0.001401453040981604,1510950.0,20.565109780982535,1.7076161768824099,0.04037911173785247,1611819.0,1512.6184413594658,1509.0824413594657,1613.4874413594657
85,49,19,m,1,2,77.0,1,2,low,3 + 9 + 1 - 5 + 1,9,8,9,7,1522.3033801999409,1524.3312368999468,1525.8464002999244,1530.8639812999172,1531.4046262999764,1531.404632300022,1532.9212959000142,1533.9379821999464,w,9,0.5406450000591576,1,+1,359,19.321040020657875,-0.09893971197762763,0.03581280004340037,1520644.0,-22.85441891470697,-0.07996543694606295,-0.05143391589444435,1524177.0,-1.7716249362603875,-0.321638695225996,0.09910157210857884,1749810.0,1525.8454413594657,1522.3124413594658,1751.4784413594657
86,49,19,m,1,2,78.0,2,1,high,4 + 7 + 1 - 1 - 1,10,11,9,10,1535.454673799919,1537.482944399933,1538.9981606999645,1544.0166091999272,1545.4846535999095,1545.4846589999506,1547.0010279999117,1548.0185339999152,e,10,1.4680443999823185,1,+10,369,-14.504369253479346,0.6872717350390909,-0.04321031448315216,1533796.0,15.027728209716356,0.4280701688022823,0.06393876181880209,1537329.0,7.07964972581688,-0.29626094669849223,0.13598973221766708,1598795.0,1538.9974413594657,1535.4644413594658,1600.4634413594658
87,49,19,m,1,2,79.0,3,4,high,5 + 8 - 6 + 7 + 4,18,19,17,18,1549.5352588999085,1551.5603998999577,1553.0756726999534,1558.09408239997,1558.6126939000096,1558.612699899939,1560.1295275000157,1561.1468696999364,w,17,0.5186115000396967,0,+0,369,10.8324120807666,0.0014623149872461383,-0.024685017312303215,1547873.0,-1.1087188342641099,0.4834885231969883,-0.06863848557478058,1551407.0,0.24354964396003265,-0.08286356010886031,-0.01966857999021321,1696643.0,1553.0754413594657,1549.5414413594658,1698.3114413594658
88,49,19,m,1,2,80.0,4,4,high,2 + 5 - 3 + 9 + 8,21,21,22,19,1562.6635157999117,1564.689213000005,1566.2042792999418,1571.222278699977,1572.1165862999624,1572.1165922000073,1573.63307719992,1574.650235399953,q,21,0.8943075999850407,1,+10,379,-37.20939793456881,0.8494835477543914,-1.316329776780219,1561001.0,32.94014445560089,0.022217868235131277,0.04344616777321986,1564535.0,-13.696252641101637,0.7784947623015501,0.05398411768440936,1765642.0,1566.2034413594658,1562.6694413594657,1767.3104413594658
89,49,19,m,1,2,81.0,5,4,low,8 + 3 - 4 + 5 + 9,21,21,23,22,1576.1670445000054,1578.1949579999782,1579.710137499962,1584.7283409999218,1585.4765187000155,1585.4765244999437,1586.9930982999504,1588.0098158000037,q,21,0.7481777000939474,1,+1,380,25.12417500201635,-0.6834989049143552,-0.1121406429253462,1574507.0,-14.270454085403168,-0.6412574568745084,-0.15213310098382404,1578042.0,8.419214868533457,1.0360015646165728,0.05286876914558203,1837114.0,1579.7104413594657,1576.1754413594658,1838.7824413594658
90,49,19,m,1,2,82.0,6,1,high,6 + 1 + 8 + 1 + 1,17,15,17,16,1589.5266243999358,1591.5521344000008,1593.0672105000122,1598.0864485999336,1598.9485376999946,1598.948543099919,1600.4650714999298,1601.4822712999303,w,17,0.8620891000609845,1,+10,390,-31.30945965234946,-0.6809499785203572,-0.1638167911618944,1587865.0,16.31326896662064,0.9874108201367751,0.03126377025642113,1591399.0,45.62458441689856,-1.3582443998288731,-0.011514290088893597,1723435.0,1593.0674413594656,1589.5334413594658,1725.1034413594657
91,49,19,m,1,2,83.0,7,3,high,8 + 6 - 7 + 1 - 4,4,5,4,3,1602.9986368999816,1605.0230588999111,1606.5380258000223,1611.5565405000234,1611.9725901000202,1611.9725956999464,1613.4891742999898,1614.506444699946,w,4,0.4160495999967679,1,+10,400,-2.9759094954211998,-0.051372766316445606,-0.006499254428752321,1601336.0,-1.5654643706349969,-0.09906987359685271,0.02190968342041133,1604869.0,0.8964030159828376,0.29359708793607187,0.13885695658485608,1627275.0,1606.5374413594657,1603.0044413594658,1628.9434413594659
92,49,19,m,1,2,84.0,8,3,high,3 - 7 + 5 + 1 + 9,11,12,13,11,1616.0233802999137,1618.049771699938,1619.5650738999248,1624.5833355999785,1627.4284615999786,1627.4284674000228,1628.9451169999084,1629.962318799924,e,11,2.845126000000164,1,+10,410,-4.399477881449696,-0.18962649579041901,-0.10498602188703354,1614362.0,-30.97272205168163,0.5853096122926074,0.027385284421829637,1617896.0,1.5340488552631797,0.7111298587944681,0.03337158716916955,1683218.0,1619.5644413594657,1616.0304413594658,1684.8864413594658
93,49,19,m,1,2,85.0,9,2,low,9 + 4 - 6 + 1 - 1,7,9,7,8,1631.479115299997,1633.5064144999487,1635.0216147999745,1640.039614600013,1643.7325566000072,1643.7325622999342,1645.24913859996,1646.2663853999693,e,8,3.6929419999942175,0,+0,410,1.0849914499565685,0.8642322335741959,-0.0015912275505263196,1629819.0,-0.11718300288183414,-0.8192030514292199,0.16014837585424813,1633352.0,-1.731314513344092,0.02857936773185621,0.10483377290147189,1778802.0,1635.0204413594658,1631.4874413594657,1780.4704413594657
94,49,19,m,1,2,86.0,10,4,high,3 + 9 - 5 + 8 - 7,8,8,9,7,1647.783149399911,1649.8125229999423,1651.3268801999511,1656.344901699922,1656.8924304000102,1656.892435799935,1658.408944799914,1659.4259752000216,q,8,0.5475287000881508,1,+10,420,-15.326555922151098,1.5733355832665206,-0.15107357989913872,1646125.0,-13.99806130995876,0.5582841128517542,-0.01910173077000432,1649658.0,30.3638254458798,-0.7775195764244023,0.014601028871464194,1878450.0,1651.3264413594657,1647.7934413594658,1880.1184413594658
95,49,19,m,1,2,87.0,11,3,high,5 + 6 - 4 - 1 + 7,13,15,13,14,1660.9430766999722,1662.9700885999482,1664.485252799932,1669.5035055999178,1670.1484998000087,1670.1485059999395,1671.6651909999782,1672.682524899952,q,15,0.6449942000908777,0,+0,420,-13.49807865367678,1.228035129940154,0.03254778583206508,1659283.0,4.437620486169742,1.402311441108183,0.002421828660614578,1662816.0,-17.014826400182862,0.5528673314511696,0.04483445463332325,1709890.0,1664.4844413594658,1660.9514413594657,1711.5584413594659
96,49,19,m,1,2,88.0,12,3,high,5 + 6 - 4 - 1 + 8,14,16,14,15,1674.1990525999572,1676.2237018999876,1677.739124399959,1682.7572442999808,1683.372394899954,1683.372400799999,1684.8888473999689,1685.9058621999577,w,14,0.6151505999732763,1,+10,430,8.286940249432025,-0.956257513956527,0.08211406930738385,1672536.0,-8.2090237425356,0.5235858740137358,-0.07064855573367268,1676070.0,5.819655150182012,1.4793740598146732,0.1689939390518278,1891682.0,1677.7384413594657,1674.2044413594658,1893.3504413594658
97,49,19,m,1,2,89.0,13,4,high,5 + 7 - 4 + 6 + 9,23,23,24,25,1687.4226509999717,1689.4491323999828,1690.9644240000052,1695.9829381000018,1696.7964299999876,1696.7964355999138,1698.3130309999688,1699.3302840999097,q,23,0.81349189998582,1,+10,440,6.466352733123005,-1.208254752213338,0.016232888510346877,1685761.0,9.906570280596736,0.8803168996766653,0.0286973252208913,1689295.0,4.466932967098193,-0.3540356704294796,-2.0628698305226125,1964337.0,1690.9634413594658,1687.4294413594657,1966.0054413594657
98,49,19,m,1,2,90.0,14,3,low,9 + 3 - 4 + 6 + 7,21,23,22,21,1700.8475064999657,1702.8731863999274,1704.3882455999264,1709.406575199915,1710.0443849000148,1710.0443910999456,1711.5611608999316,1712.5780528999169,e,21,0.6378097000997514,1,+1,441,-27.063222018433983,-0.5039562594558609,0.0758984073696618,1699186.0,-11.108688512784617,0.5504101843190572,-0.0225284666917811,1702719.0,8.13167505920914,0.7092272709893725,0.010804417338181826,1921826.0,1704.3874413594658,1700.8544413594657,1923.4944413594658
99,49,19,m,1,2,91.0,15,1,high,7 + 1 + 4 + 1 - 1,12,12,13,11,1714.094864899991,1716.1212840999942,1717.6364124999382,1722.654807999963,1723.5884090999607,1723.5884146000026,1725.1052724999608,1726.1228788999142,q,12,0.9336010999977588,1,+10,451,-0.47190805701791483,-1.1471610754155446,-0.2634134170314797,1712434.0,3.5986834072816056,0.1955729202169536,0.18121814354584376,1715967.0,-29.31364691070405,-0.2644196497396427,-0.0469536419771428,1792034.0,1717.6354413594659,1714.1024413594657,1793.7024413594659
100,49,19,m,1,2,92.0,16,2,high,5 - 1 + 1 + 8 + 9,22,23,21,22,1727.639784300001,1729.6673863999313,1731.1823006999912,1736.2009065999882,1736.7563253999688,1736.7563314000145,1738.2728971999604,1739.2901193000143,e,22,0.5554187999805436,1,+10,461,5.8099850565347975,-1.5140383426306139,0.0020609325041267557,1725980.0,-1.8746489358917504,0.8339851907039924,-0.1059190788727764,1729513.0,-4.381924256749514,0.3057367835148961,-0.026005205314417745,1809186.0,1731.1814413594657,1727.6484413594658,1810.8544413594657
101,49,19,m,1,2,93.0,17,2,low,5 - 8 + 7 + 1 + 1,6,8,6,7,1740.8068447000114,1742.834017099929,1744.349310199963,1749.3698695999335,1749.964321599924,1749.9643273999682,1751.4809784999816,1752.4982704999857,w,6,0.5944519999902695,1,+1,462,-27.394846595703363,0.5713867288518983,-0.015117103784664021,1739146.0,-30.11941048926429,0.01008382926257756,0.14038233167890501,1742682.0,14.194195479953995,0.9458168370499092,-0.035895263086046514,1865385.0,1744.3504413594658,1740.8144413594657,1867.0534413594658
102,49,19,m,1,2,94.0,18,4,high,4 + 8 + 9 - 3 + 7,25,24,26,25,1754.0147783999564,1756.0420502999332,1757.557051199954,1762.575769499992,1765.7963134999154,1765.796319099958,1767.3129129000008,1768.3301306000212,e,25,3.220543999923393,1,+10,472,-3.3909142057543535,-1.2588564619551539,0.0032171182336933057,1752354.0,7.084917700256563,0.7093776894250157,0.15161937259738756,1755888.0,2.1446182437663874,-0.6168227124443302,0.06677477869789894,1977682.0,1757.5564413594657,1754.0224413594658,1979.3504413594658
103,49,19,m,1,2,95.0,19,2,high,2 + 1 + 9 - 4 + 1,9,11,8,9,1769.8467089999467,1771.8731118999422,1773.3883933000034,1778.4057432999834,1778.956240999978,1778.95624650002,1780.4727324999403,1781.4899726000149,e,9,0.5504976999945939,1,+10,482,12.656891958799084,1.385364992861649,-0.009554201759685244,1768185.0,-13.212549200424455,-1.216525446307652,0.023392163260036902,1771719.0,-33.04747555332832,-0.7674737085762207,0.006904881996964596,1906529.0,1773.3874413594658,1769.8534413594657,1908.1974413594658
104,49,19,m,1,2,96.0,20,1,high,8 + 1 + 1 + 1 - 4,7,7,5,8,1783.006349699921,1785.0322816999396,1786.5476890999123,1791.566771899932,1792.1882598999655,1792.1882665000155,1793.7044981999788,1794.7221461000154,q,7,0.6214880000334233,1,+10,492,-5.4169558466187375,0.4194277083609492,0.12705826842683265,1781344.0,-17.71927104514065,0.14445735036957075,0.06481980397418474,1784879.0,-2.7700384771633777,-0.45970764346155324,-0.017513038223129218,1822442.0,1786.5474413594657,1783.0124413594658,1824.1104413594658
105,49,19,m,1,2,97.0,21,2,low,5 + 1 + 7 - 6 + 1,8,6,7,8,1796.238915599999,1798.2672483000206,1799.7824915000238,1804.801960999961,1809.3402311999816,1809.340237199911,1810.8568135999376,1811.873600999941,e,8,4.538270200020634,1,+1,493,-4.720785354422014,0.7115106658508275,0.05264182843340137,1794579.0,-13.51932118580642,0.029044347672763315,0.17309431407298792,1798113.0,-10.449875586962607,-0.36102170646695697,0.015276677827132934,1936570.0,1799.7814413594658,1796.2474413594657,1938.2384413594657
106,49,19,m,1,2,98.0,22,1,low,4 + 1 + 1 + 7 - 1,12,14,12,13,1813.3909345999127,1815.415231299936,1816.930724899983,1821.9489203999983,1822.5962078999728,1822.596213600016,1824.1128166000128,1825.13011909998,w,12,0.6472874999744818,1,+1,494,7.61910978877859,-0.36589111273124075,-0.126960043657516,1811727.0,44.30698113737885,-0.3649709103985064,0.11508075199233248,1815261.0,-33.833565193409854,0.6176093315620017,0.026276739145286276,1990809.0,1816.9294413594657,1813.3954413594658,1992.4774413594657
107,49,19,m,1,2,99.0,23,4,high,7 + 8 - 4 + 6 + 5,22,21,22,23,1826.6466320999896,1828.6744577999923,1830.1896707999983,1835.208144999924,1837.2680998999856,1837.2681052999103,1838.7849093999248,1839.8024047999645,w,22,2.059954900061712,1,+10,504,-1.0051051616586477,-0.818307165761885,-0.0993656962210474,1824986.0,0.3797198995327946,1.6055232859938933,0.09447514870474594,1828520.0,-5.727222339837752,0.23593992179388934,0.22558931803889748,2122337.0,1830.1884413594657,1826.6544413594659,2124.0054413594657
108,49,19,m,1,2,100.0,24,3,high,4 + 8 - 9 + 1 + 7,11,9,11,13,1841.3192793999333,1843.3421067999443,1844.8572998999152,1849.8756859999849,1852.30009299994,1852.3000988999847,1853.8161999000004,1854.833155100001,e,13,2.424406999954954,0,+0,504,-8.240385049887621,1.8809023842798025,0.024103054760926,1839654.0,-2.0346763874833442,0.5947634252535838,0.05265751416878972,1843188.0,0.5950042718831359,-0.24636265404192947,-0.0706309325970138,2005065.0,1844.8564413594659,1841.3224413594658,2006.7334413594658
109,49,19,m,1,2,101.0,25,2,high,5 + 8 + 1 - 1 + 9,22,23,22,21,1856.3499029999368,1858.3736700000009,1859.8889432,1864.9071328999707,1865.5401393999343,1865.540146299987,1867.056420399924,1868.073029399966,w,22,0.6330064999638125,1,+10,514,11.817576186920672,1.8327878198996164,-5.588582320419416,1854686.0,-1.8986375628779157,0.7485300785178346,-0.1776630678940223,1858219.0,16.57525681149316,0.5234379412563039,-0.11622903455735756,2066809.0,1859.8874413594658,1856.3544413594657,2068.477441359466
110,49,19,m,1,2,102.0,26,4,low,3 + 8 - 5 + 9 - 7,8,6,8,7,1869.589608500013,1871.6162256000096,1873.131441799924,1878.1498905000044,1878.604071900016,1878.604077899945,1880.1212725000223,1881.1383389999392,w,8,0.4541814000112936,1,+1,515,-7.028295080436955,0.3132499572093179,-0.05150197982442739,1867928.0,18.42570570460371,0.9900180305847623,0.046955658788471855,1871462.0,3.213715615962572,-0.40266168237484745,0.06335850953563282,2230200.0,1873.1304413594657,1869.5964413594659,2231.8684413594656
111,49,19,m,1,2,103.0,27,3,high,9 - 1 + 5 - 6 + 8,15,15,14,17,1882.6551123999525,1884.6830980000088,1886.1984339000192,1891.21759939997,1891.8360031999184,1891.8360083999576,1893.3525760999185,1894.3699064999817,q,15,0.6184037999482825,1,+10,525,-9.720175516525579,-0.42627214054188123,-0.1870403776616696,1880995.0,-5.798114328656465,0.2666986089097394,0.043932129730996694,1884529.0,5.195977667333226,0.5767504270352344,0.1545164171612159,2032489.0,1886.1974413594658,1882.6634413594657,2034.1574413594658
112,49,19,m,1,2,104.0,28,2,high,8 + 1 + 7 + 1 - 4,13,12,13,14,1895.8868038000076,1897.9138962000145,1899.4297397999328,1904.448453699937,1906.683997799992,1906.684003799921,1908.2002597999528,1909.2173107999845,w,13,2.23554410005454,1,+10,535,6.5785380753296305,-1.525979303782285,0.16816748021743888,1894226.0,-17.409247198745657,-0.6545553565282729,-0.05088529032207245,1897760.0,1.690504154270787,-0.5521890797036493,0.08364674929862659,2150248.0,1899.4284413594658,1895.8944413594659,2151.916441359466
113,49,19,m,1,2,105.0,29,3,high,7 + 1 + 9 + 5 - 6,16,15,16,14,1910.7341239999516,1912.761525799986,1914.276740100002,1919.2950156999289,1921.980031199986,1921.9800365999108,1923.4966746999417,1924.514421599917,w,16,2.6850155000574887,1,+10,545,-5.032404207761845,0.3231061954456296,-0.13211442813970953,1909074.0,-30.097434008404516,1.3192149625299514,0.27072451699532696,1912607.0,41.751630905862186,0.3614046864651188,0.5689428787562019,2137001.0,1914.2754413594657,1910.7424413594658,2138.669441359466
114,49,19,m,1,2,106.0,30,2,high,8 + 1 + 9 + 1 - 5,14,13,15,14,1926.0314057000212,1928.058822599938,1929.5741913999664,1934.5922391000204,1936.723998399917,1936.7240040999604,1938.2405759999529,1939.2578588000035,e,14,2.131759299896657,1,+10,555,6.859077891151106,-0.5710403108219859,0.07414688928561897,1924370.0,-4.264661041418943,0.1802303898034543,0.1263456850050988,1927904.0,-14.23057724192153,1.2662822937185698,0.26577395624323463,2203448.0,1929.5724413594658,1926.0384413594657,2205.1164413594656
115,49,19,m,1,2,107.0,31,3,high,2 - 4 + 9 + 7 + 1,15,13,16,15,1940.7746508999264,1942.8029189999213,1944.318320899969,1949.336779300007,1951.3799116999144,1951.3799171999565,1952.896302399924,1953.9133825999447,w,16,2.043132399907336,0,+0,555,5.556845554347654,-1.6354476291764133,0.04221531461321604,1939115.0,-19.06159685035722,-0.09890317062181264,0.06622502963374788,1942648.0,12.192998421574782,-0.23968420554845693,-0.0904032164199835,2176504.0,1944.3164413594657,1940.7834413594658,2178.1724413594657
116,49,19,m,1,2,108.0,32,4,low,8 + 4 - 5 + 7 - 6,8,7,8,6,1955.430234599975,1957.4563290999504,1958.9713508000127,1963.9899720000103,1964.4919252999823,1964.4919310999103,1966.008706799941,1967.0255521999209,w,8,0.5019532999722287,1,+1,556,-12.789232172586688,-1.5986686572512392,-0.12149380320612324,1953768.0,-9.524096897301405,0.9902131288633358,-0.04466375819266721,1957302.0,7.149548124730695,-0.8089876312151869,0.030211833211083228,2272584.0,1958.9704413594657,1955.4364413594658,2274.2524413594656
117,49,19,m,1,2,109.0,33,4,low,3 + 9 - 5 + 6 + 8,21,23,22,21,1968.5423543999204,1970.5670908999164,1972.082386299968,1977.1011451999657,1977.8359853000147,1977.835991299944,1979.3533562999216,1980.370554699912,e,21,0.7348401000490412,1,+1,557,24.000692770577444,0.7150647355722981,0.07146389562150524,1966879.0,10.759553992490881,0.6854999683111922,-0.05734558285179725,1970412.0,-27.53972346983899,-1.6643778732076893,0.10103371618710355,2408679.0,1972.0804413594658,1968.5474413594657,2410.347441359466
118,49,19,m,1,2,110.0,34,1,low,8 - 1 + 1 + 6 + 1,15,15,16,14,1981.8874594999943,1983.9159705999773,1985.4311184999533,1990.4491763999688,1990.963873200002,1990.963878899929,1992.480489699985,1993.49715369998,q,15,0.5146968000335619,1,+1,558,42.88059285973558,0.16045376813845724,0.05258283765224503,1980227.0,15.385523216579248,-0.5513926525239299,-0.08193639604214042,1983761.0,-2.7324514536883147,0.030701528130252065,0.17530241847459282,2080137.0,1985.4294413594657,1981.8954413594658,2081.805441359466
119,49,19,m,1,2,111.0,35,3,low,6 + 8 + 7 + 1 - 9,13,15,13,14,1995.0142407999372,1997.0414903999767,1998.5565972999905,2003.575040399912,2005.2197494999275,2005.219755499973,2006.7365402999567,2007.7533644000068,w,13,1.6447091000154614,1,+1,559,7.062090186966449,-0.4426056836314407,0.08087405177455387,1993353.0,1.5796123411088256,0.2036204828218766,-0.11006099835000183,1996887.0,-25.79898300239901,-0.09617191786002266,0.054057166429601455,2243488.0,1998.5554413594657,1995.0214413594658,2245.1564413594656
120,49,19,m,1,2,112.0,36,3,low,3 + 8 - 7 + 1 + 9,14,13,12,14,2009.2707705999487,2011.2949829999125,2012.810272899922,2017.828592099948,2019.2197921000188,2019.2197979999476,2020.736273300019,2021.7537080999464,w,12,1.3912000000709668,0,+0,559,8.334414168541013,0.04923131220027255,-0.00685529419650277,2007606.0,-7.991972679641874,0.9721888070810527,-0.04263617414019638,2011140.0,-3.8159522583516825,-0.9490992963386184,2.2947000299088334,2257552.0,2012.8084413594659,2009.2744413594658,2259.220441359466
121,49,19,m,1,2,113.0,37,3,low,5 - 1 - 4 + 6 + 7,13,14,13,15,2023.2705570999533,2025.2970291000088,2026.8120649999476,2031.830349399941,2032.6437535999576,2032.6437590999997,2034.16047839995,2035.1773267999524,w,13,0.8134042000165209,1,+1,560,10.148454742233538,-1.59724976722989,0.04283803802050956,2021608.0,-6.097333458254127,-0.29228249305684706,-4.297931067469712,2025142.0,18.905800033461976,0.06820032974021739,-0.09126948202993534,2285807.0,2026.8104413594658,2023.2764413594657,2287.4754413594655
122,49,19,m,1,3,114.0,0,2,high,6 + 1 + 1 + 7 - 9,6,6,4,8,2057.2872555999784,2059.31471419998,2060.830061899964,2065.850928999949,2066.9637882999377,2066.963794099982,2068.480499499943,2069.4979106999235,q,6,1.112859299988486,1,+10,570,-6.33292668365964,-0.7362706523139364,0.32776424084305633,2055626.0,-80.10191845332895,1.6555145181070046,0.047725990570657295,2059161.0,-2.9964070764343163,0.061926860937893125,0.01454352179444296,2216832.0,2060.829441359466,2057.294441359466,2218.5004413594656
123,49,19,m,1,3,115.0,1,1,high,4 + 9 + 1 - 1 - 1,12,13,11,12,2071.01441980002,2073.040590299992,2074.5559292999096,2079.574096599943,2080.291649999912,2080.291655399953,2081.808398299967,2082.825601699995,e,12,0.7175533999688923,1,+10,580,-1.0783273820308228,0.2780847135385227,-0.00887038745356783,2069352.0,7.058663039732105,0.025916588446268207,-0.06687379351613254,2072885.0,-41.659442698561435,0.4290962781486045,-0.044626465292589845,2163400.0,2074.553441359466,2071.0204413594656,2165.068441359466
124,49,19,m,1,3,116.0,2,4,low,2 + 9 - 4 + 8 + 7,22,22,23,21,2084.3422409999184,2086.3682113999967,2087.883381499909,2092.901846299996,2093.3075937000103,2093.307599199936,2094.8244213999715,2095.841653999989,w,23,0.4057474000146612,0,+0,580,1.6213645223874353,0.3295743520055576,0.09235097266211056,2082679.0,15.421218789868522,-0.22605038953258116,-0.01646198695533929,2086213.0,2.7325954001282287,0.12391737583271034,0.12211853141928986,2436679.0,2087.881441359466,2084.347441359466,2438.347441359466
125,49,19,m,1,3,117.0,3,4,high,8 + 5 - 4 + 7 + 9,25,26,25,24,2097.3587882999564,2099.38566489995,2100.900882599992,2105.9209252999863,2109.331668399973,2109.3316745000197,2110.848300399957,2111.8658052999526,q,26,3.4107430999865755,0,+0,580,4.240247877469988,-0.08674906983932074,-0.030378587631878506,2095697.0,-7.780426270438284,-0.1747915382360805,0.10419135907112165,2099232.0,23.349156907362204,0.7482885659762344,0.05747467698700115,2536224.0,2100.9004413594657,2097.365441359466,2537.892441359466
126,49,19,m,1,3,118.0,4,4,high,7 + 6 + 8 - 4 + 5,22,23,21,22,2113.382813500008,2115.40972310002,2116.9249836999224,2121.9429886,2122.491573999985,2122.4915794999106,2124.0081148999743,2125.0252687999746,e,22,0.5485853999853134,1,+10,590,0.5071076896664577,0.0157235830044109,0.00510266084438582,2111721.0,-10.518772733857556,1.0678825865944277,0.14282780852287535,2115254.0,5.7099751366940215,0.6500046984536922,0.0011204110202649442,2663949.0,2116.9224413594657,2113.3894413594658,2665.617441359466
127,49,19,m,1,3,119.0,5,3,low,3 + 8 - 7 - 1 + 9,12,14,12,13,2126.5428227999946,2128.569814299932,2130.0850029999856,2135.104012299911,2137.1556734999176,2137.1556790999603,2138.672890899936,2139.689815199934,w,12,2.0516612000064924,1,+1,591,-24.538280304074288,-0.1426095038430839,-0.18312704627481136,2124881.0,-1.5228580310181457,0.038333908309239106,0.0013682461286022018,2128415.0,-2.6229640171196102,-0.14471950811886014,-0.07508500811334096,2313248.0,2130.0834413594657,2126.5494413594656,2314.916441359466
128,49,19,m,1,3,120.0,6,2,high,3 - 1 + 9 - 5 + 1,7,7,5,6,2141.206540099927,2143.233733800007,2144.7488712000195,2149.767020499916,2150.4035344999284,2150.403543099994,2151.920021799975,2152.937024499988,q,7,0.6365140000125393,1,+10,601,-35.662300635506796,-0.025809388168196,1.1908036075337982,2139545.0,-8.776547847281895,1.7379358430897383,0.035672638571926374,2143078.0,1.5127940385594876,-0.3266153381166914,-0.0323701291230265,2298863.0,2144.7464413594657,2141.213441359466,2300.5314413594656
129,49,19,m,1,3,121.0,7,1,high,2 + 1 + 9 + 1 - 1,12,13,11,12,2154.45387019997,2156.4800770999864,2157.9953578999266,2163.014489599969,2163.555516799912,2163.5555222999537,2165.0715779999737,2166.0886290000053,e,12,0.5410271999426186,1,+10,611,-2.0882633583582626,-0.46956008981607855,0.13602595281725027,2152791.0,17.8324066014619,-0.6134761264448274,-0.07642223359416045,2156325.0,20.718484873190434,-0.24554500230918386,0.2399794403266784,2190304.0,2157.9934413594656,2154.459441359466,2191.972441359466
130,49,19,m,1,3,122.0,8,3,low,2 + 9 + 1 - 5 + 7,14,15,14,12,2167.605195399956,2169.62996619998,2171.14518839994,2176.163300300017,2176.6594864999643,2176.659492000006,2178.176083299913,2179.1931072999723,w,14,0.4961861999472603,1,+1,612,12.409384335915885,-0.7792280651399266,0.0857200316373099,2165941.0,3.681036911405746,0.6673191006954697,0.029039618849339366,2169474.0,16.419438860389306,0.7502212935301262,0.05335208487548582,2380983.0,2171.142441359466,2167.6094413594656,2382.651441359466
131,49,19,m,1,3,123.0,9,1,high,5 + 6 + 1 + 1 + 1,14,14,16,13,2180.7099630999146,2182.7374144999776,2184.2524188999087,2189.270155499922,2190.459502600017,2190.459508499945,2191.9761618999764,2192.993331099977,q,14,1.189347100094892,1,+10,622,11.636181251712724,0.7597987032566129,0.00717246322220122,2179048.0,-10.70130126350671,0.060233446070868446,0.15085813237862622,2182581.0,-50.46634298955802,-0.43469607821120704,-0.11371147438630347,2326792.0,2184.249441359466,2180.7164413594655,2328.4604413594657
132,49,19,m,1,3,124.0,10,2,high,7 + 5 + 1 + 9 + 1,23,21,23,22,2194.5106968999607,2196.538697400014,2198.053786900011,2203.0721672999207,2203.603501399979,2203.603507300024,2205.12010499998,2206.137328199926,w,23,0.5313341000583023,1,+10,632,-2.5485755017490277,0.7314320763072777,-0.10811504452795972,2192849.0,1.4464310890616723,-0.12272152917147672,0.02971350933292083,2196383.0,15.116490982747221,-0.2732798653153381,0.15330132883030867,2367823.0,2198.0514413594656,2194.517441359466,2369.4914413594656
133,49,19,m,1,3,125.0,11,2,high,4 + 9 + 1 - 7 - 1,6,5,6,8,2207.65344429994,2209.6765235000057,2211.1916851999704,2216.2095809999155,2216.98751659994,2216.9875280999117,2218.504059499945,2219.5213437000057,w,6,0.777935600024648,1,+10,642,3.4302484556668915,-1.4018875315771533,-0.26144793746510997,2205988.0,-10.120370217015562,-1.1390014346462607,0.0621094189424336,2209521.0,-13.439827197080565,-0.5684671400733654,0.011909582974946042,2395535.0,2211.189441359466,2207.6564413594656,2397.2034413594656
134,49,19,m,1,3,126.0,12,4,low,5 + 9 - 4 + 7 + 6,23,25,23,24,2221.038127499982,2223.0603361999383,2224.575609199936,2229.594123399933,2230.355531399953,2230.3555371999973,2231.8719098999863,2232.8887755000032,w,23,0.7614080000203103,1,+1,643,-44.46629763622863,0.6848110854781115,-0.04782398749706385,2219372.0,6.151464289348224,1.2051813408137053,0.13092336283864725,2222905.0,4.014649621290002,0.6089350039329693,-0.004141714590528922,2704758.0,2224.573441359466,2221.0404413594656,2706.4264413594656
135,49,19,m,1,3,127.0,13,3,low,6 - 1 + 7 - 8 + 9,13,11,12,13,2234.4056951999664,2236.4332798999967,2237.9483651999617,2242.96795630001,2243.643352199928,2243.6433581999736,2245.1599350000038,2246.176583799999,e,13,0.6753958999179304,1,+1,644,16.161108257179727,0.038820986868603136,0.03497974724588082,2232744.0,-2.3283986485094754,-0.2685359484305758,-0.125440187737605,2236278.0,-4.430788360703259,0.5331525950675795,0.07934053034116939,2490798.0,2237.9464413594656,2234.412441359466,2492.4664413594655
136,49,19,m,1,3,128.0,14,3,high,2 + 9 - 3 + 4 + 1,13,14,11,13,2247.693683599937,2249.717589100008,2251.232776199933,2256.251661599963,2257.7073875999777,2257.707393600024,2259.224032099941,2260.241810699925,e,13,1.4557260000146923,1,+10,654,-25.45990365258326,0.6132114225296084,-0.20325969124278265,2246028.0,12.963450037394786,-0.37934507339166856,0.05028032076966271,2249562.0,5.126039310140387,-0.38684582595946004,-0.3807410421967341,2606414.0,2251.2304413594657,2247.6964413594656,2608.082441359466
137,49,19,m,1,3,129.0,15,4,high,6 + 7 + 9 - 3 + 5,24,23,22,24,2261.7585804999107,2263.7861463999143,2265.3013562000124,2270.3201274999883,2272.739392999909,2272.7393985999515,2274.2560741999187,2275.274311000016,e,24,2.4192654999205843,1,+10,664,-12.600309529508197,0.8418082591114526,-0.5396982643561596,2260097.0,-43.071669384428326,-0.41967593020491645,0.044405587178624195,2263631.0,-2.6649959860858248,-0.8207420342855185,-0.03894482895438833,2812925.0,2265.2994413594656,2261.765441359466,2814.593441359466
138,49,19,m,1,3,130.0,16,3,high,7 + 5 + 9 + 1 - 6,16,14,15,16,2276.7915716000134,2278.818364399951,2280.333443899988,2285.3518567999126,2285.963349699974,2285.963355600019,2287.479369699955,2288.497265200014,e,16,0.6114929000614211,1,+10,674,10.259834447100571,0.4178092141730865,0.05012441386063449,2275129.0,9.884253060701216,-0.6116763914482402,-0.10325599493737236,2278663.0,28.130075437598855,-0.41025725188125595,-0.15298608768719935,2620782.0,2280.3314413594658,2276.7974413594657,2622.450441359466
139,49,19,m,1,3,131.0,17,2,low,5 + 7 - 8 + 1 + 1,6,6,8,7,2290.014079399989,2292.04048039997,2293.556129899924,2298.5740311999107,2299.0192264999496,2299.0192322999937,2300.535990200005,2301.5529086999595,q,6,0.4451953000389039,1,+1,675,8.006849342263418,-0.19074701250087056,0.05848447789200062,2288351.0,-4.952415099902945,-0.9361614318192562,0.11720524395180121,2291885.0,-10.43284327756982,-0.30257490922227337,-0.03606096194928088,2422871.0,2293.553441359466,2290.019441359466,2424.539441359466
140,49,19,m,1,3,132.0,18,3,high,9 - 5 - 1 - 6 + 8,5,7,4,5,2303.0696482999483,2305.0974844999146,2306.6126067999285,2311.630844899919,2313.403250399977,2313.403256999911,2314.919882499962,2315.937368899933,e,5,1.7724055000580847,1,+10,685,-2.321611272895691,-0.8695081959758131,-0.1268573922668903,2301408.0,11.333935245743907,0.5400018476622606,-0.06319565780213421,2304941.0,7.420908062363265,0.28808702047719237,-0.035228830088128715,2634511.0,2306.6094413594656,2303.0764413594657,2636.1794413594657
141,49,19,m,1,3,133.0,19,1,high,7 + 1 + 5 + 1 - 1,13,13,14,12,2317.4538557999767,2319.477480200003,2320.9925728000235,2326.0109311999986,2326.94724150002,2326.947247299948,2328.463889700012,2329.481389699969,q,13,0.9363103000214325,1,+10,695,29.91700364441631,-0.6437589815372151,0.0731501092745821,2315788.0,58.02106790695113,0.0400380252780419,0.19375997150005309,2319321.0,-10.552324850990694,0.011515905471946475,-0.02102331861963469,2340200.0,2320.9894413594657,2317.4564413594658,2341.8684413594656
142,49,19,m,1,3,134.0,20,1,high,3 + 1 + 8 + 1 + 1,14,13,14,12,2330.998161299969,2333.02090829995,2334.535795799922,2339.552995799924,2340.3552836999297,2340.355289399973,2341.872115099919,2342.8891081999755,w,14,0.8022879000054672,1,+10,705,18.512321691565845,0.17418423071791267,0.040756704485486184,2329331.0,-21.291301009884766,-0.41672702837406206,0.12442514283718609,2332864.0,-21.651765263141904,0.2807821875450349,0.006998752568095679,2354591.0,2334.532441359466,2330.999441359466,2356.2594413594657
143,49,19,m,1,3,135.0,21,1,high,7 - 1 + 9 + 1 - 1,15,15,14,13,2344.40580399998,2346.4321527999127,2347.947313499986,2352.9653903999133,2354.7474803000223,2354.7474859999493,2356.263704999932,2357.281575199915,q,15,1.7820899001089856,1,+10,715,14.461049947606105,0.7843278838846865,-0.118022981213729,2342743.0,-20.104432953188844,0.5247226261706057,-0.08876180947770473,2346276.0,-23.39219712005056,0.46095636801124495,0.0864818339437794,2477671.0,2347.9444413594656,2344.4114413594657,2479.3394413594656
144,49,19,m,1,3,136.0,22,2,low,8 + 1 + 9 + 1 - 4,15,14,16,15,2358.798505299957,2360.8267154999776,2362.3420623999555,2367.3609099999303,2367.97915499995,2367.979160399991,2369.495857900009,2370.512526299921,e,15,0.6182450000196695,1,+1,716,15.859567451304475,0.11601096190629878,0.02174630588818105,2357137.0,4.668238031611189,0.4580624495551513,-0.0549616881622399,2360671.0,3.4020318915029,-0.05709977032097502,0.0024774788592141217,2449959.0,2362.3394413594656,2358.805441359466,2451.6274413594656
145,49,19,m,1,3,137.0,23,3,high,6 - 1 + 7 - 8 + 9,13,13,11,12,2372.029231499997,2374.056685499964,2375.5717049000086,2380.5905110000167,2381.1391926999204,2381.139198699966,2382.6557632000186,2383.673311899998,q,13,0.5486816999036819,1,+10,726,22.880972627012007,0.540101248566148,0.020853862197668604,2370367.0,-8.332189028991198,-1.76685792091273,-0.1396551994852253,2373901.0,19.1301107589625,-0.07721486277591172,0.006231132974591214,2853437.0,2375.5694413594656,2372.035441359466,2855.1054413594657
146,49,19,m,1,3,138.0,24,2,high,4 + 9 - 7 + 1 - 1,6,5,6,8,2385.190973300021,2387.219116599997,2388.7347348999465,2393.753335000016,2395.691165199969,2395.691170800012,2397.207703599939,2398.225057399948,w,6,1.9378301999531689,1,+10,736,15.726050317854192,-0.35815530679163565,0.02550043169753935,2383529.0,-17.35915685347418,0.05797361555422498,0.05528343322344931,2387064.0,0.26671016385442314,0.9509462111896587,0.02912326358261641,2549719.0,2388.7324413594656,2385.1974413594658,2551.387441359466
147,49,19,m,1,3,139.0,25,4,high,8 + 4 + 7 - 5 - 6,8,6,9,8,2399.741710999981,2401.7695868000155,2403.2838372999104,2408.302340599941,2408.835052600014,2408.835058799945,2410.3515878999606,2411.369221900008,e,8,0.5327120000729337,1,+10,746,2.9935743177168987,-1.020552380267838,2.63744018509455,2398080.0,10.46985821651556,0.4512844649168626,0.09313848355242649,2401613.0,7.358124707312569,-0.14077157243984217,0.5060390996251409,3086684.0,2403.2814413594656,2399.7484413594657,3088.352441359466
148,49,19,m,1,3,140.0,26,2,low,4 + 9 - 7 + 1 - 1,6,8,6,5,2412.886026999913,2414.913082399988,2416.4283410999924,2421.44689199992,2423.026997999986,2423.027003399912,2424.543594499933,2425.5605431000004,w,6,1.5801060000667349,1,+1,747,-7.505695177499408,-0.16241398165154664,-0.193427774315714,2411223.0,6.9027362444948945,-0.18187641726527293,0.012451856056690858,2414757.0,-2.1260912428951872,1.8216800822517705,-1.7469331280607987,2576318.0,2416.425441359466,2412.8914413594657,2577.986441359466
149,49,19,m,1,3,141.0,27,4,high,3 + 8 - 4 + 9 + 7,23,23,22,24,2427.077955799992,2429.1049168999307,2430.620266299928,2435.638957999996,2436.8350049,2436.835010599927,2438.351907199947,2439.3697968999622,q,23,1.1960469000041485,1,+10,757,7.459119410821063,-0.2366788671886182,-0.13735232812451015,2425415.0,2.887791243533633,-0.9387161362711698,-0.017462106703774793,2428949.0,,,,,2430.617441359466,2427.0834413594657,
150,49,19,m,1,3,142.0,28,2,high,9 + 4 + 5 + 1 - 1,18,19,18,17,2440.8864736999385,2442.913076399942,2444.428093099966,2449.4464029999217,2450.1149387999903,2450.114944599918,2451.632185299997,2452.6493896999164,w,18,0.6685358000686392,1,+10,767,6.603185244720429,1.0706097870928817,-0.013772998607112896,2439223.0,-2.7636198237393463,0.3917664308625719,0.11678897128472321,2442756.0,3.2438535816762224,-0.34090323854689863,-0.18946193753712448,2745205.0,2444.4244413594656,2440.8914413594657,2746.8734413594657
151,49,19,m,1,3,143.0,29,1,low,6 + 1 + 1 + 7 - 1,14,14,12,13,2454.165738099953,2456.1935626999475,2457.708564199973,2462.726882699993,2464.7149755000137,2464.7149811999407,2466.231358899968,2467.248544699978,e,13,1.98809280002024,0,+0,767,7.489318366851968,-1.2019916193468188,-0.018214874504885126,2452504.0,-25.638832097873355,-0.678002935155849,0.624524496922499,2456037.0,-4.867019697139323,-0.27653315595752037,0.019213707907881572,2647686.0,2457.7054413594656,2454.1724413594657,2649.354441359466
152,49,19,m,1,3,144.0,30,1,low,3 + 1 + 8 + 1 + 1,14,13,14,16,2468.765449599945,2470.789328399929,2472.30463769997,2477.3230780999875,2477.8269940000027,2477.8269992999267,2479.344212799915,2480.361242200015,w,14,0.5039159000152722,1,+1,768,10.641410178057477,-0.09208170042924468,-0.22770717545012364,2467100.0,13.00110718829244,-0.3424603123589973,-0.036408982879313045,2470633.0,-3.1687980981085886,-0.43583016357075355,0.06709060541496337,2677278.0,2472.3014413594656,2468.7684413594657,2678.9464413594656
153,49,19,m,1,3,145.0,31,3,low,4 + 1 + 8 + 9 - 5,17,18,17,19,2481.877904299996,2483.9067073999904,2485.4219509999966,2490.439764700015,2490.954920099932,2490.9549256999744,2492.4711730999406,2493.488003999926,w,17,0.5151553999166936,1,+1,769,0.40946230654761795,0.8325273948234804,0.07191054696509291,2480217.0,14.675172145951468,5.095688558576228e-05,-0.07119146644550556,2483750.0,25.94247970590503,0.09096463444216218,0.21634983208901404,2866677.0,2485.4184413594658,2481.885441359466,2868.345441359466
154,49,19,m,1,3,146.0,32,4,low,4 + 7 - 8 + 9 - 4,8,7,9,8,2495.005004299921,2497.032263199915,2498.547209099983,2503.5653567999834,2507.51484790002,2507.514854699956,2509.031477099983,2510.048668399919,w,9,3.949491100036539,0,+0,769,10.61084434825184,-0.03235088759467697,-0.04487855707758137,2493342.0,25.02505757192045,0.2749844939726458,0.06094314974886217,2496876.0,,,,,2498.544441359466,2495.010441359466,
155,49,19,m,1,3,147.0,33,4,low,4 + 9 - 7 + 8 + 5,19,21,20,19,2511.5654641999863,2513.589989500004,2515.1049263000023,2520.1234374999767,2523.243015600019,2523.2430211999454,2524.759568599984,2525.777030600002,q,21,3.1195781000424176,0,+0,769,13.508419351853505,1.2551316309495908,0.014787034313277436,2509900.0,-1.8162159256939319,1.2238873995404465,0.1371515812642503,2513433.0,,,,,2515.1014413594658,2511.568441359466,
156,49,19,m,1,3,148.0,34,4,high,4 + 7 + 8 - 3 + 9,25,24,25,26,2527.293630099972,2529.320209399913,2530.8354021999985,2535.8555278999265,2536.378846099949,2536.378851799993,2537.896195499925,2538.9136915999698,w,25,0.5233182000229135,1,+10,779,-14.848507021881643,0.21598952094334045,-0.016476142549112893,2525630.0,1.7085686279395567,0.7617901491908379,0.07505461491383913,2529165.0,,,,,2530.8334413594657,2527.298441359466,
157,49,19,m,1,3,149.0,35,2,high,4 + 8 + 1 + 1 - 6,8,7,9,8,2540.430482900003,2542.457297599991,2543.972472099937,2548.990687599988,2549.874873099965,2549.874878900009,2551.391524799983,2552.408574400004,e,8,0.8841854999773204,1,+10,789,1.8956845279308059,0.8716605439479821,-0.13250152263494908,2538768.0,-8.957773267792325,0.8633672128655077,0.11334536460277134,2542301.0,10.80776910960137,0.17826197890024886,0.02769963304787315,2785301.0,2543.9694413594657,2540.436441359466,2786.9694413594657
158,49,19,m,1,3,150.0,36,4,low,5 + 8 - 4 - 6 + 9,12,12,13,14,2553.9253443999914,2555.949622799992,2557.464896399993,2562.4829147999408,2563.1467732000165,2563.1467788999435,2564.6632369,2565.6803101999685,e,14,0.6638584000756964,0,+0,789,11.71568727957036,-0.499911519028692,0.13070223871566777,2552260.0,-5.783315301833342,1.4849905342081176,0.03023766030413233,2555793.0,,,,,2557.461441359466,2553.928441359466,
159,49,19,m,1,3,151.0,37,2,low,6 + 8 + 1 + 1 - 7,9,11,9,8,2567.1969900999684,2569.224056400009,2570.7390454999404,2575.757346899947,2576.4748513000086,2576.474857399938,2577.991485800012,2579.0084398000035,w,9,0.7175044000614434,1,+1,790,0.07021786387053197,-1.348318988424555,-3.911731232972623,2565534.0,15.774820003943107,0.3272834464978489,-0.04517114518215504,2569067.0,3.005438638008333,-0.025466135056559924,0.17546058931929465,2879837.0,2570.7354413594658,2567.202441359466,2881.5054413594657
160,49,19,m,1,4,152.0,0,3,low,4 + 1 + 8 + 9 - 5,17,18,19,17,2597.430679399986,2599.45721709996,2600.972503399942,2605.9917970999377,2606.570723199984,2606.570728999912,2608.087301200023,2609.104125099955,e,17,0.5789261000463739,1,+1,791,-0.8191297833488917,0.43683244992774517,0.0937367833784406,2595767.0,14.331860936061972,0.3425785922969773,-0.050649609545929675,2599301.0,4.300244088424726,-0.06380671173626973,-0.09174905787397836,2893629.0,2600.9694413594657,2597.4354413594656,2895.2974413594657
161,49,19,m,1,4,153.0,1,3,high,6 + 7 + 8 + 1 - 9,13,15,13,14,2610.620589099941,2612.6441527999705,2614.1592885999708,2619.178590399912,2620.938825799967,2620.938831600012,2622.4554978000237,2623.4728474000003,w,13,1.7602354000555351,1,+10,801,-18.86273398685307,0.38352283002499377,0.13751869436089392,2608954.0,-10.964744972442663,-0.1895845038226316,-0.13305225368977203,2612488.0,12.08737105803765,0.005533638816872077,-0.010906242963784285,2919893.0,2614.1564413594656,2610.622441359466,2921.561441359466
162,49,19,m,1,4,154.0,2,3,high,4 + 5 - 3 + 7 - 1,12,11,12,13,2624.989540899988,2627.011852299911,2628.527123800013,2633.5457792999223,2634.666766199982,2634.6667752999347,2636.1834610999795,2637.2008813999128,w,12,1.1209869000595063,1,+10,811,-0.012305869129551006,0.2854074258153263,0.0961683731372256,2623322.0,-28.78162960654667,0.669915484849751,-0.00044586773946164726,2626855.0,-10.977586670322825,-0.07039155134096386,-0.11080710527618653,2974405.0,2628.523441359466,2624.990441359466,2976.073441359466
163,49,19,m,1,4,155.0,3,1,high,9 + 1 + 1 + 7 - 1,17,19,17,16,2638.7175551999826,2640.739718399942,2642.255373199936,2647.2737304000184,2647.842853699927,2647.8428590999683,2649.359276399948,2650.3765568999806,w,17,0.5691232999088243,1,+10,821,2.6773848999059826,0.9999456836885399,0.07585917738374737,2637050.0,12.046151720299726,-0.1727039110308164,-0.009184780961603023,2640583.0,3.3523635457456917,0.6455346840852503,-0.04741444836373021,2690550.0,2642.251441359466,2638.718441359466,2692.218441359466
164,49,19,m,1,4,156.0,4,4,low,9 + 7 - 5 + 8 + 6,25,27,24,25,2651.89324200002,2653.9200186999515,2655.435228899936,2660.453912599944,2664.1066760999383,2664.1066818999825,2665.622960799956,2666.6396832999308,e,25,3.652763499994762,1,+1,822,-10.352105071444251,-0.5482180616386332,-0.02574993621841748,2650229.0,3.1686156393697837,-0.9247319624048016,-0.10707877913728359,2653764.0,,,,,2655.432441359466,2651.8974413594656,
165,49,19,m,1,4,157.0,5,1,high,3 + 1 + 1 + 9 - 1,13,12,13,14,2668.15647669998,2670.184854699997,2671.700090499944,2676.718223199947,2677.434545599972,2677.4345512000145,2678.9510023000184,2679.9681954999687,w,13,0.7163224000250921,1,+10,832,-7.599014698909292,-0.2660957193738023,0.2786116301996111,2666494.0,-23.231434823212112,-0.9561499919306735,-1.1250237067561164,2670028.0,1.501287476628825,0.6386204222538145,0.08388549982100946,2718830.0,2671.6964413594656,2668.162441359466,2720.4984413594657
166,49,19,m,1,4,158.0,6,1,high,7 + 1 + 6 + 1 + 1,16,17,16,18,2681.499058099929,2683.526181699941,2685.0414391999366,2690.059362399974,2690.7066319999285,2690.7066377999727,2692.223192299949,2693.2404133999958,w,16,0.6472695999545977,1,+10,842,20.291589401342605,0.37445841349086795,0.08193126038909315,2679836.0,5.653732374452616,-0.7672989693400352,-0.011464965642876024,2683369.0,11.562964020393505,0.6190038949853056,-0.02463797168603188,2732069.0,2685.037441359466,2681.5044413594655,2733.7374413594657
167,49,19,m,1,4,159.0,7,4,low,2 + 9 - 3 + 5 + 8,21,22,21,23,2694.757365399972,2696.784844600013,2698.300133300014,2703.3194389999844,2704.914625799982,2704.9146319999127,2706.431325100013,2707.4481489999453,w,21,1.5951867999974638,1,+1,843,15.184424205696079,-0.689763034978041,-0.12381553938866086,2693094.0,14.033964055144647,1.2277140675243743,0.0838102378192167,2696629.0,,,,,2698.2974413594657,2694.762441359466,
168,49,19,m,1,4,160.0,8,1,high,3 + 1 + 9 + 1 - 1,13,12,13,14,2708.964985799976,2710.9928081999533,2712.508055499988,2717.5265059999656,2718.9864801999647,2718.9864862000104,2720.503322799923,2721.52061040001,w,13,1.4599741999991238,1,+10,853,12.419283605527491,1.2260063981027507,0.017966619547320484,2707302.0,-20.3208509134542,-0.386339738696571,-0.029523104823140578,2710836.0,-5.556007859624435,0.23602231849021837,-0.15581469681107474,2758654.0,2712.5044413594655,2708.970441359466,2760.3224413594658
169,49,19,m,1,4,161.0,9,1,low,7 + 1 + 4 + 1 - 1,12,13,11,12,2723.0374391999794,2725.0660102999536,2726.5808843999403,2731.599608600023,2732.2265334000112,2732.226538799936,2733.7431425999384,2734.7599573999178,e,12,0.6269247999880463,1,+1,854,-7.869652637166886,-0.18365754715075866,0.04014532527188308,2721375.0,-1.4603279813547179,-0.8304167270584619,-0.11651474436902509,2724909.0,8.10495097362246,0.4257470364527025,-0.34284987179970905,2772125.0,2726.577441359466,2723.0434413594658,2773.7934413594658
170,49,19,m,1,4,162.0,10,2,low,9 + 1 + 6 + 7 + 1,24,25,23,24,2736.277008599951,2738.303023900022,2739.8191372000147,2744.83738729998,2745.362476899987,2745.3624824999133,2746.8788725999184,2747.894709300017,e,24,0.5250896000070497,1,+1,855,-25.740276627722043,-0.8206628177241342,0.0008357813063486486,2734612.0,-5.796527513858705,-1.2850691160020942,0.116058137166412,2738147.0,3.537357384064469,0.44402478272459156,0.009914365675779191,2932996.0,2739.8154413594657,2736.280441359466,2934.664441359466
171,49,19,m,1,4,163.0,11,1,low,5 + 8 - 1 + 1 + 1,14,14,12,16,2749.411284199916,2751.439150499995,2752.9543407999445,2757.9728004999924,2758.810391900013,2758.810397699941,2760.3274466999574,2761.344346800004,q,14,0.8375914000207558,1,+1,856,33.17916339728489,0.3042890651489012,-0.012170398387829406,2747748.0,-10.403316629040196,-1.2718174507141589,-0.0800855709681334,2751282.0,7.1959462384643995,-0.12389428794679525,-0.09367913527566518,2798501.0,2752.950441359466,2749.416441359466,2800.169441359466
172,49,19,m,1,4,164.0,12,1,low,3 + 1 + 1 + 8 - 1,12,13,14,12,2762.861001399928,2764.8850354999304,2766.4001200000057,2771.4183605000144,2772.2823715999257,2772.2823774999706,2773.798996699974,2774.8158457999816,e,12,0.8640110999112949,1,+1,857,-11.780247204558934,0.1600581147921245,0.01526671247132394,2761194.0,8.606882049150732,0.4308314058856446,0.11157035320972519,2764728.0,16.576617155188504,0.28902396646059003,0.053285716902542246,2826157.0,2766.396441359466,2762.8624413594657,2827.825441359466
173,49,19,m,1,4,165.0,13,2,low,8 + 1 + 1 + 9 - 4,15,16,14,15,2776.3331162999384,2778.3608437000075,2779.875841600005,2784.894068299909,2785.4585051999893,2785.458511899924,2786.975242799963,2787.991785299964,e,15,0.5644369000801817,1,+1,858,-24.352715319084652,1.0803438383562605,-0.006335925292509259,2774670.0,-4.765998599049867,-0.26168847024903386,0.5062158935865257,2778203.0,-8.98914378677232,-0.0386461319548661,0.10326306852803513,2946213.0,2779.8714413594657,2776.338441359466,2947.881441359466
174,49,19,m,1,4,166.0,14,1,low,4 + 8 + 1 - 1 - 1,11,13,9,11,2789.508440100006,2791.5340168999974,2793.0492656999268,2798.0686915999977,2798.6583805999253,2798.658386199968,2800.1749473999957,2801.191944399965,e,11,0.5896889999276027,1,+1,859,-11.688964876320995,-0.193156862502863,-0.07843409571774651,2787843.0,9.619769258972788,-0.6167169450448444,-0.006120270782915327,2791378.0,-13.021895224802385,0.34652085000597377,0.12274475703962384,2839613.0,2793.046441359466,2789.5114413594656,2841.2814413594656
175,49,19,m,1,4,167.0,15,4,low,3 + 8 - 7 + 9 - 5,8,7,9,8,2802.7094276999123,2804.735745799961,2806.251312699984,2811.270698699984,2813.0823155000107,2813.082324499963,2814.598851399962,2815.615776199964,e,8,1.811616800026968,1,+1,860,-13.75762973585514,-0.3353609174951986,-0.010990791871996919,2801045.0,7.134848543578951,0.8725359392018142,0.006436571512839384,2804580.0,,,,,2806.2484413594657,2802.713441359466,
176,49,19,m,1,4,168.0,16,1,low,6 + 1 + 8 + 1 - 1,15,15,14,13,2817.132554200012,2819.1570929000154,2820.672397200018,2825.691892899922,2826.3144253999926,2826.314430899918,2827.8311602999456,2828.8480370999314,q,15,0.6225325000705197,1,+1,861,8.393038083325367,-0.0016229162019234522,-0.013121879337064879,2815466.0,0.7781806106982465,-0.03442619081403642,0.05582455233662853,2819001.0,14.46286251854083,-0.0650800485100238,-0.062154453111577856,3014461.0,2820.669441359466,2817.1344413594657,3016.1294413594655
177,49,19,m,1,4,169.0,17,1,low,6 + 9 + 1 + 1 - 1,16,16,15,14,2830.3653518999927,2832.387820299948,2833.902964900015,2838.921076299972,2839.770309599932,2839.770315099973,2841.286675899988,2842.3035532999784,q,16,0.849233299959451,1,+1,862,-23.19300734352152,0.42575397271697835,0.08152847057786095,2828696.0,18.90783599342346,-0.16114137246859794,-0.03717804610323405,2832230.0,6.84091403805417,0.07439127141950652,-0.21956537749960248,3028108.0,2833.898441359466,2830.3644413594657,3029.776441359466
178,49,19,m,1,4,170.0,18,3,high,8 + 4 + 1 - 7 + 9,15,13,15,16,2843.8201539999573,2845.8491348999087,2847.364364599925,2852.383521199925,2853.594206299982,2853.5942118999083,2855.110765199992,2856.128058900009,w,15,1.2106851000571623,1,+10,872,9.91144035763366,0.046288034439257775,0.2961134866155817,2842157.0,-2.2011416610375134,-0.05573600188632288,0.03867128457049329,2845692.0,,,,,2847.3604413594658,2843.825441359466,
179,49,19,m,1,4,171.0,19,3,low,4 + 7 + 1 + 9 - 5,16,18,16,17,2857.644886299968,2859.6693168999627,2861.1844644999364,2866.202642099932,2866.8342813999625,2866.834287100006,2868.3508269999875,2869.367633900023,w,16,0.6316393000306562,1,+1,873,-17.76581405354571,0.0639634360957515,-0.05362351507336682,2855978.0,-1.715605902622329,0.14668562250683492,0.04661765924129546,2859512.0,,,,,2861.180441359466,2857.646441359466,
180,49,19,m,1,4,172.0,20,2,low,6 + 1 + 7 - 8 - 1,5,5,4,7,2870.884362199926,2872.9116634000093,2874.4269139999524,2879.4457593999105,2879.994158799993,2879.994164399919,2881.5105492,2882.527433699928,q,5,0.5483994000824168,1,+1,874,9.940223719420494,-1.4730933793264778,-3.7444604109722546,2869221.0,-3.412427024547217,0.006546477427257447,-0.08698159271581529,2872755.0,13.834459891867507,-0.3058199092714595,-0.012861254291562263,2987812.0,2874.423441359466,2870.8894413594658,2989.4804413594657
181,49,19,m,1,4,173.0,21,3,low,3 + 1 + 6 - 8 + 9,11,13,12,11,2884.043943999917,2886.069674999919,2887.5849826999474,2892.604199699941,2893.786270999932,2893.7862768999767,2895.302922999952,2896.319118899992,e,11,1.182071299990639,1,+1,875,2.1762302236723325,-0.046048129904542545,0.12888583157285738,2882379.0,18.159383568549675,0.0004153332571013024,0.2072819702580413,2885913.0,,,,,2887.5814413594658,2884.0474413594657,
182,49,19,m,1,4,174.0,22,2,high,6 + 1 + 1 + 7 - 9,6,6,8,4,2897.835587400012,2899.8598042000085,2901.3751613999484,2906.395373699954,2906.922109499923,2906.9221147999638,2908.4386317000026,2909.455859299982,e,4,0.526735799969174,0,+0,875,26.61274744272627,0.11570556307695457,-0.14929287795152657,2896169.0,-12.131625461302178,-0.18200126474320077,-0.02984369990241409,2899704.0,21.31784731005106,0.24630469487774898,-0.06025007700255802,3001180.0,2901.372441359466,2897.8374413594656,3002.8484413594656
183,49,19,m,1,4,175.0,23,3,high,3 + 1 + 8 - 5 + 6,13,13,14,15,2910.973068699939,2913.0004855999723,2914.515580300009,2919.533863499993,2920.050182599924,2920.050187899964,2921.566584800021,2922.5837793999817,q,13,0.516319099930115,1,+10,885,-7.530896815506157,0.019502882877566297,0.10395883096040914,2909309.0,32.00046312612596,-0.3112269842867448,-0.7794087457084515,2912843.0,,,,,2914.5114413594656,2910.977441359466,
184,49,19,m,1,4,176.0,24,2,high,6 + 1 + 8 + 5 - 1,19,17,19,18,2924.1014175999444,2926.127566499985,2927.642721900018,2932.66085450002,2933.154130099924,2933.1541354999645,2934.6699315999867,2935.6869881999446,w,19,0.493275599903427,1,+10,895,21.369205743033554,3.5448908587405326,9.15764112051632,2922436.0,-16.207348906656456,0.02246694445458841,-0.20201551835278875,2925970.0,5.962478912693312,0.8209335759280303,0.07648072512913506,3041460.0,2927.6384413594656,2924.104441359466,3043.128441359466
185,49,19,m,1,4,177.0,25,2,high,2 + 1 + 9 - 4 + 1,9,8,9,11,2937.202779999934,2939.229823199916,2940.7452419999754,2945.763287600013,2946.370133199962,2946.3701388000045,2947.886782699963,2948.9036430999404,w,9,0.6068455999484286,1,+10,905,-16.779208262945158,0.007257785617619916,-0.029044181163403016,2935539.0,13.669178553945798,-0.9054100781605761,0.14251219099357315,2939072.0,-9.826281343915294,0.09033876700513743,-0.010478576479402424,3055012.0,2940.740441359466,2937.207441359466,3056.680441359466
186,49,19,m,1,4,178.0,26,2,low,5 + 9 - 8 + 1 + 1,8,8,9,7,2950.420555699966,2952.447548399912,2953.962896300014,2958.9811944999965,2961.5140480999835,2961.5140537999105,2963.030540699954,2964.0477157999994,e,7,2.5328535999869928,0,+0,905,-22.303916230356382,0.5785134949518671,1.9967834982403057,2948756.0,3.9342714935971053,-0.04257869990581331,-0.42947099797709254,2952290.0,,,,,2953.9584413594657,2950.4244413594656,
187,49,19,m,1,4,179.0,27,3,high,8 - 1 + 6 - 7 + 5,11,13,11,12,2965.5648178999545,2967.5925296000205,2969.107715399936,2974.1266165999696,2974.562109499937,2974.562114999979,2976.0786462000106,2977.096158399945,w,11,0.4354928999673575,1,+10,915,3.9111530928302214,-0.5137484556873537,0.05926579993513381,2963902.0,-20.717409419669703,-0.8642520099639981,0.05989730443280794,2967435.0,,,,,2969.1034413594657,2965.570441359466,
188,49,19,m,1,4,180.0,28,2,low,6 + 1 + 8 + 7 - 1,21,21,23,19,2978.612916299957,2980.6420546999434,2982.157347999979,2987.175960799912,2987.969999999972,2987.9700056000147,2989.485991399968,2990.50300529995,q,21,0.7940392000600696,1,+1,916,5.01123318665125,1.1087937183866527,6.712343849377678,2976951.0,3.4316054218057683,0.07071088613672138,-0.24880803702584542,2980485.0,,,,,2982.153441359466,2978.619441359466,
189,49,19,m,1,4,181.0,29,2,low,2 + 9 + 1 + 1 - 5,8,8,6,7,2992.0197023999644,2994.0450691999868,2995.560242299922,3000.5786896999925,3001.338000699994,3001.33800619992,3002.8540145999286,3003.870927199954,q,8,0.7593110000016168,1,+1,917,-15.59054854077786,0.030377956835451636,0.08487340225422813,2990354.0,-19.203807473843447,0.008651749028738998,0.1263557604744341,2993887.0,,,,,2995.555441359466,2992.0224413594656,
190,49,19,m,1,4,182.0,30,1,high,7 - 1 + 8 + 1 - 1,14,13,12,14,3005.387690100004,3007.4134032999864,3008.92882739997,3013.9476602999493,3014.6180054999422,3014.6180111999856,3016.13469560002,3017.152059199987,e,14,0.6703451999928802,1,+10,927,24.065684173720573,-0.38959711662869667,-0.09389368057803105,3003722.0,1.2809063791253976,-0.12919108635260934,-0.028507472822679514,3007257.0,-22.29590882061684,0.11969103520913049,0.008260468017711187,3071332.0,3008.925441359466,3005.390441359466,3073.0004413594656
191,49,19,m,1,4,183.0,31,1,low,5 + 9 - 1 + 1 + 1,15,17,15,13,3018.668980699964,3020.697370799957,3022.21359639999,3027.231523699942,3028.265990299988,3028.265996599919,3029.7826271000085,3030.80044729996,w,15,1.0344666000455618,1,+1,928,12.19314473353921,-0.00967416886765271,0.40867316280307353,3017006.0,8.67363623918775,0.003340416683415448,0.4042666066086258,3020540.0,1.6832352834359199,0.04883126738416976,0.19033369248907417,3114564.0,3022.2084413594657,3018.6744413594656,3116.2324413594656
192,49,19,m,1,4,184.0,32,2,low,3 + 8 + 1 - 5 + 1,8,6,8,9,3032.31764959998,3034.345389099908,3035.860633199918,3040.879352299962,3041.6180159000214,3041.618021399947,3043.134415599983,3044.151800599997,w,8,0.7386636000592262,1,+1,929,10.98032589982503,0.6367780971605239,2.989904154757512,3030654.0,7.50239171091577,0.12390535371996059,-0.12255987345264963,3034187.0,,,,,3035.8554413594657,3032.3224413594658,
193,49,19,m,1,4,185.0,33,2,low,9 + 6 + 1 + 7 + 1,24,23,25,24,3045.6686151999747,3047.6936282999814,3049.209083899972,3054.228108500014,3055.169903200004,3055.1699091999326,3056.686472799978,3057.7041396999266,e,24,0.9417946999892592,1,+1,930,-26.633174961910445,0.7678867177369999,0.04692550148925112,3044002.0,1.2838572804784327,-1.9854623664027775,0.17664021907526473,3047537.0,,,,,3049.2054413594656,3045.6704413594657,
194,49,19,m,1,4,186.0,34,1,low,7 - 1 + 1 + 9 - 1,15,14,13,15,3059.2218210999854,3061.246312999981,3062.76150839997,3067.779922900023,3071.489934399957,3071.4899399999995,3073.0068875999423,3074.0237952999305,e,15,3.7100114999338976,1,+1,931,-5.979059928460195,-0.08726860223880717,0.15058548872320565,3057555.0,11.26755785463472,-0.03838056155034031,-0.11118339646492248,3061089.0,24.627458339336634,-0.24436821674565268,0.11388788497808533,3154316.0,3062.7574413594657,3059.2234413594656,3155.9844413594656
195,49,19,m,1,4,187.0,35,4,low,6 + 9 + 7 - 3 - 5,14,13,15,14,3075.5403279999737,3077.565872099949,3079.081125199911,3084.101378699997,3086.841820499976,3086.841826400021,3088.358349999995,3089.37492089998,e,14,2.7404417999787256,1,+1,932,16.758283873682803,0.20576490392050384,-0.48379139120760417,3073875.0,0.4090875096358815,-0.8324405115289781,-0.6701417579482025,3077410.0,,,,,3079.0784413594656,3075.5434413594658,
196,49,19,m,1,4,188.0,36,4,low,7 + 6 - 9 + 8 - 3,9,8,9,7,3090.8913623999106,3092.915347900009,3094.431094700005,3099.449572199956,3101.345871599973,3101.345877200016,3102.8625513999723,3103.8797686999897,e,7,1.8962994000175968,0,+0,932,-28.130272453926544,-0.05736175983757974,-0.3225701240730685,3089224.0,3.2693395870958852,0.0025418207900123058,-0.08226573552243166,3092758.0,,,,,3094.4264413594656,3090.892441359466,
197,49,19,m,1,4,189.0,37,1,high,6 + 1 + 1 + 9 - 1,16,16,14,15,3105.396838699933,3107.423070400022,3108.9382330999942,3113.956036699936,3114.721792700002,3114.7217980999267,3116.2383616999723,3117.2564303999534,q,16,0.7657560000661761,1,+10,942,2.4213591331995428,0.10927280374221682,-0.12196747117426732,3103732.0,-4.9985791443105825,0.590195188923277,0.7106329186643867,3107265.0,31.88255282684064,0.04381084423675574,0.02857818756545427,3167635.0,3108.9334413594656,3105.4004413594657,3169.303441359466
198,49,19,m,1,5,190.0,0,1,low,9 + 8 + 1 + 1 - 1,18,17,18,19,3143.893491499941,3145.919709999929,3147.434976799996,3152.4542524999706,3154.4737163999816,3154.4737221999094,3155.990250499919,3157.007020600024,w,18,2.019463900011033,1,+1,943,9.872486425953358,-0.13242236841847044,0.1395575458853997,3142228.0,32.853256049939375,0.018362699324758314,-0.00267127430345937,3145763.0,,,,,3147.4314413594657,3143.896441359466,
199,49,19,m,1,5,191.0,1,1,low,8 + 1 + 4 + 1 + 1,15,15,16,14,3158.523890399956,3160.5482576999348,3162.0632171999896,3167.0844363999786,3167.7936865999363,3167.7936927999835,3169.3101937000174,3170.326332499972,q,15,0.7092501999577507,1,+1,944,-11.951666941173528,-0.052781416019783034,-0.007734633374559152,3156857.0,27.16734200414857,0.4016018063072937,-0.04775314868906699,3160393.0,,,,,3162.061441359466,3158.5254413594657,
