,id,age,sex,cued,block,trial,trialinblock,efflev,rewlev,calc,corAns,option1,option2,option3,tstart,ITI1Time,probTime,respTime,selectTime,ITI2Time,fbTime,ITI3Time,key_press,chosenAns,RT,acc,feedback,total_points,cuescr,cuecor,cuezyg,cuetime,probscr,probcor,probzyg,probtime,fbscr,fbcor,fbzyg,fbtime,probtime_c,cuetime_c,fbtime_c
0,4,21,f,0,Practice,,0,1,0,4 + 1 + 9 + 1 + 1,16,14,16,15,58.570556699996814,,58.570558800012805,63.76050590001978,65.8312569000409,65.83126300002914,67.34829880000325,68.36964290001197,w,16.0,2.0707510000211187,1,Correct,0,,,,,18.721744955869536,-0.3729710034443574,0.07192903185036004,13431.0,14.702460311243808,-0.11036584113644476,3.2100348393106253,22040.0,58.748888270522095,,67.3578882705221
1,4,21,f,0,Practice,,1,1,0,3 + 1 + 1 + 8 - 1,12,11,12,10,69.88677650003228,,69.88677959999768,74.90871220000554,79.87911590002477,79.87912190001225,81.39616080000997,82.41439059999539,w,12.0,4.970403700019233,1,Correct,0,,,,,-13.9237231973718,-1.0920365821576912,-0.025369103809778526,24579.0,18.043231778495553,-1.7790453992999735,1.177889081095747,36085.0,69.8968882705221,,81.4028882705221
2,4,21,f,0,Practice,,2,2,0,8 + 1 + 6 + 1 - 4,12,10,11,12,83.93230540002696,,83.93231110001216,88.95137970003998,90.45518129999982,90.45518750004705,91.9724511000095,92.98966360004852,e,12.0,1.5038015999598429,1,Correct,0,,,,,3.377549236156245,-0.14911012867996476,0.061824200234873894,38622.0,4.612477023451188,-0.3471111125061048,-0.13375766900945907,46660.0,83.93988827052209,,91.9778882705221
3,4,21,f,0,Practice,,3,2,0,9 + 4 - 6 + 1 - 1,7,7,6,5,94.50633160001598,,94.5063344000373,99.5253063000273,101.80711610004072,101.80712250003126,103.32326400000602,104.3405278000282,q,7.0,2.281809800013434,1,Correct,0,,,,,-57.391589802781006,-0.4019752935669354,0.7141403283145638,49196.0,-0.3671906586648763,0.45358362300209265,-0.18937517646899016,58011.0,94.5138882705221,,103.3288882705221
4,4,21,f,0,Practice,,4,3,0,9 + 3 - 5 + 6 + 7,20,22,21,20,105.85730750003133,,105.8573103999952,110.87678440002492,116.2391060999944,116.23911220004084,117.7557448000298,118.7739984000218,w,21.0,5.362321699969471,0,Incorrect,0,,,,,-42.578828699775855,0.5480919484549043,0.31860554323689594,60548.0,-15.234858690971075,-1.4928978128963433,-0.8245831119346843,72445.0,105.8658882705221,,117.7628882705221
5,4,21,f,0,Practice,,5,3,0,2 + 1 + 9 - 7 + 6,11,11,10,9,120.29174390004482,,120.29174770001556,125.3122016999987,127.4552217000164,127.4552279000054,128.9719745000475,129.9898167999927,q,11.0,2.1430200000177138,1,Correct,0,,,,,1.0928610366102252,0.21470506080050455,-1.6940577712210003,74982.0,29.35329287181203,0.32576512731943286,0.8870884774584695,83660.0,120.2998882705221,,128.9778882705221
6,4,21,f,0,Practice,,6,4,0,4 + 8 + 5 - 3 + 7,21,22,21,23,131.50654380000196,,131.50654660002328,136.52691320003942,146.61515120003605,146.61515710002277,148.13199300004635,149.15007130004233,w,21.0,10.088237999996636,1,Correct,0,,,,,-18.967396365532924,-0.36995519340436633,0.12427910076610793,86197.0,-4.384204829880581,-0.3216498991357737,-0.9790073910657373,102820.0,131.5148882705221,,148.1378882705221
7,4,21,f,0,Practice,,7,4,0,5 + 8 - 4 + 6 + 9,24,24,23,22,150.66733200004091,,150.6673349000048,155.68695860001026,160.65533520001918,160.65534100000514,162.17192680004518,163.18983330001356,e,22.0,4.968376600008924,0,Incorrect,0,,,,,-8.277251957497018,-0.06751618828685313,-1.7552848240059138,105357.0,-2.021398180401074,-6.493005871936601,8.970399881330074,116860.0,150.6748882705221,,162.1778882705221
8,4,21,f,1,0,0.0,0,4,low,7 + 6 - 9 + 8 - 3,9,8,7,9,295.4529666000162,297.4902477000141,299.00553660001606,304.0243361000321,309.0415145000443,309.0415171000059,310.5584314000444,311.5803974000155,,,,0,Too Slow!,0,-19.622365892669116,-0.5483346145092884,1.5753837858454403,250160.0,-9.347306797639233,-0.8790732238287653,-0.9630953516729712,253694.0,22.217935930899024,2.5666787400326827,-9.367479393126917,265250.0,299.0118882705221,295.4778882705221,310.5678882705221
9,4,21,f,1,0,1.0,1,1,high,5 + 8 - 1 + 1 + 1,14,16,14,12,313.09728610003367,315.1370526000392,316.6518141000415,321.6696003000252,322.8448446000112,322.8448494000477,324.36202659999253,325.37959480000427,w,14.0,1.175244299985934,1,+10,10,18.58653391751492,1.2112523583310169,4.67023347587804,267807.0,19.157144556214632,-4.131997223127275,-3.786996717369941,271339.0,63.02260831707282,0.007260469587727414,-0.6676948940516052,488074.0,316.6568882705221,313.1248882705221,533.3918882705221
10,4,21,f,1,0,2.0,2,3,low,8 + 3 + 1 - 7 + 9,14,12,15,14,326.8967279000208,328.92656610003905,330.4416820000042,335.4602439000155,339.5169525000383,339.51695760001894,341.03394320001826,342.0512168999994,q,12.0,4.05670860002283,0,+0,10,-13.115949861836262,0.21117732466896544,-0.5579242351330667,281596.0,-15.538731586606726,0.06312195816301358,-0.31807577975794166,285129.0,,,,,330.4468882705221,326.9138882705221,
11,4,21,f,1,0,3.0,3,4,high,4 + 8 + 9 - 3 + 7,25,25,26,24,343.5682169000502,345.60473720001755,347.1196961000096,352.1384537999984,355.0929310999927,355.09293600003,356.6097204000107,357.62686710001435,q,25.0,2.9544772999943234,1,+10,20,11.003677888011858,-4.6930077502502145,1.2055043021509606,298274.0,3.28438742315622,0.12028207309934169,-0.12605353799712748,301808.0,,,,,347.12588827052207,343.5918882705221,
12,4,21,f,1,0,4.0,4,2,high,2 + 1 + 9 - 4 + 1,9,9,11,8,359.14374880003743,361.1889297000016,362.7041240000399,367.7232527000015,371.5089232000173,371.5089279999957,373.02505470003234,374.0425563000026,q,9.0,3.78567050001584,1,+10,30,-5.54486653133077,-0.1041594289671659,-0.022589293782630637,313858.0,11.224336290550507,0.18833658875382442,-0.18356991406940537,317392.0,,,,,362.7098882705221,359.1758882705221,
13,4,21,f,1,0,5.0,5,2,low,6 + 1 + 8 + 5 - 1,19,19,17,18,375.5589651000337,377.6265598000027,379.1421112000244,384.1605521000456,385.35703060001833,385.3570355999982,386.8735317999963,387.8903218000196,q,19.0,1.1964784999727271,1,+1,31,-5.495668190947551,10.584204132424082,20.57553413648003,330296.0,7.820543135986684,-0.18132654614394372,-0.0019137433426936745,333830.0,,,,,379.14788827052206,375.61388827052207,
14,4,21,f,1,0,6.0,6,3,low,3 + 8 - 7 + 1 + 9,14,13,14,12,389.40702100005,391.43239880003966,392.94757390004816,397.96608320000814,402.58892490004655,402.5889303000295,404.1055348000373,405.12238600000273,w,14.0,4.622841700038407,1,+1,32,-28.74861607281663,-0.21448187363813664,-0.017079942340259446,344101.0,-40.15827575738921,0.05042385746833711,0.015682295965593784,347635.0,,,,,392.95288827052207,389.4188882705221,
15,4,21,f,1,0,7.0,7,4,high,4 + 7 - 8 + 9 - 3,9,11,9,8,406.638886300032,408.6636002000305,410.1789530999959,415.197613700002,419.3890264999936,419.38903160003247,420.90515080001205,421.9224921000423,e,8.0,4.191412799991667,0,+0,32,2.5321198284510533,-0.10383196630194336,0.05844711851562212,361333.0,28.527192207717295,-0.08189216220096718,0.03785899523546821,364866.0,,,,,410.18388827052206,406.6508882705221,
16,4,21,f,1,0,8.0,8,2,high,3 + 8 - 5 + 1 + 1,8,8,9,6,423.4395110000041,425.4655519000371,426.98071730002994,432.0006481000455,435.5570194000029,435.5570249000448,437.07356119999895,438.0902212000219,w,9.0,3.556371299957391,0,+0,32,0.9792465513481137,0.3080156322108256,0.020761619002160225,378134.0,-6.01354190723929,0.23314388084593185,-0.13863584885161884,381669.0,,,,,426.98688827052206,423.4518882705221,
17,4,21,f,1,0,9.0,9,4,high,7 + 6 - 9 + 8 - 3,9,7,9,8,439.606911400042,441.6345574000152,443.1497994000092,448.168426200049,452.9649710000376,452.964976200019,454.4815141000436,455.49839110003086,q,7.0,4.796544799988624,0,+0,32,5.949821332993647,-0.36855113495737735,-0.298803668752583,394303.0,-18.554258764336314,0.39947695818705586,-0.21965707119982802,397837.0,,,,,443.15488827052206,439.6208882705221,
18,4,21,f,1,0,10.0,10,1,high,9 + 7 + 1 + 1 + 1,19,18,19,20,457.015645800042,459.0383958000457,460.5542212,465.57234350004,466.75708350003697,466.7570887000184,468.2736065000063,469.2907426000456,w,19.0,1.184739999996964,1,+10,42,-0.28832572529219647,0.707050590944307,-1.6845714498413993,411707.0,25.443821514801847,0.20299177853781547,-6.59055246918133,415241.0,,,,,460.55888827052206,457.02488827052207,
19,4,21,f,1,0,11.0,11,4,high,4 + 7 - 8 + 9 - 4,8,8,7,9,470.80801820004126,472.82995949999895,474.34510790003696,479.3641449999996,482.68496899999445,482.6849742000341,484.201375500008,485.2185051999986,w,7.0,3.3208239999949,0,+0,42,-13.373947944008108,0.5036392769617417,-0.20167743467538513,425499.0,-42.707918318169966,-0.09210317751739616,-0.002668331723848727,429033.0,,,,,474.3508882705221,470.8168882705221,
20,4,21,f,1,0,12.0,12,3,low,4 + 5 - 3 + 7 - 1,12,12,11,13,486.73532209999394,488.7611397000146,490.2768524000421,495.29476499999873,498.50105990003794,498.5010649000178,500.01880000001984,501.03591780003626,e,13.0,3.206294900039211,0,+0,42,22.672552580533008,-0.12395904916692624,-0.41584883207864687,441430.0,-21.539165951644407,0.3221983678382796,-0.018504397566823094,444964.0,,,,,490.2818882705221,486.7478882705221,
21,4,21,f,1,0,13.0,13,4,low,6 + 9 - 7 + 8 - 5,11,13,11,12,502.5527253000182,504.5782533000456,506.0932744000456,511.1124737000209,514.2450026000151,514.2450077999965,515.7619775000494,516.7787845000275,w,11.0,3.132528899994213,1,+1,43,-1.8537235153805547,1.214332544667751,-1.3387626879800858,457247.0,-12.42909801377931,-0.049330800698271116,0.14970245135065108,460782.0,,,,,506.09988827052206,502.5648882705221,
22,4,21,f,1,0,14.0,14,2,high,6 + 8 + 1 + 1 - 7,9,9,8,11,518.2955346000381,520.3192910000216,521.8345987000503,526.853441400046,531.870370300021,531.8703727000393,533.3869483000017,534.4049011000316,,,,0,Too Slow!,43,7.418081171485395,3.674435602797879,6.517149141522271,472988.0,-3.4973995599606766,0.048796274957079167,-8.659413167267047,476522.0,,,,,521.8398882705221,518.3058882705221,
23,4,21,f,1,0,15.0,15,1,low,4 + 8 + 1 - 1 - 1,11,11,13,9,535.9217164000147,537.9482057000278,539.4632940000156,544.481742700038,545.813095999998,545.8131012000376,547.3296625000075,548.3463829000248,q,11.0,1.3313532999600284,1,+1,44,0.5939433792354865,-0.38634173060599375,-0.035083263593345126,490617.0,12.161250505954783,-0.012431635279379183,0.2456719948862287,494150.0,,,,,539.467888270522,535.9348882705222,
24,4,21,f,1,0,16.0,16,1,low,6 + 1 + 1 + 9 - 1,16,15,16,14,549.8630454000086,551.8864671000047,553.4016165999928,558.41997550003,559.6691060000448,559.6691111000255,561.1862216000445,562.2031751000322,w,16.0,1.2491305000148714,1,+1,45,20.14318039474888,-0.0949067903592864,-0.137558159964414,504555.0,25.843292091915668,0.2894445531303895,0.3169406650376243,508088.0,,,,,553.4058882705222,549.8728882705221,
25,4,21,f,1,0,17.0,17,1,low,7 + 1 + 4 + 1 - 1,12,11,12,13,563.7204280000296,565.7424697999959,567.2576201000484,572.2761034000432,572.8690981999971,572.8691032000352,574.3855028999969,575.4026527000242,w,12.0,0.5929947999538854,1,+1,46,3.684035688731221,-0.013151919181814353,5.213869811870268,518411.0,29.016180535455916,0.15551012149723586,-0.07109028735501322,521944.0,,,,,567.261888270522,563.728888270522,
26,4,21,f,1,0,18.0,18,3,low,4 + 7 - 3 + 5 - 1,12,12,11,13,576.9193921000115,578.946806300024,580.4621717000264,585.4811402000487,588.6931380000315,588.6931433000136,590.2097925000126,591.2264456000412,q,12.0,3.2119977999827825,1,+1,47,8.15396503676741,0.4913930936402231,-0.049269954753232925,531615.0,41.95082854324375,-0.1718538815329964,-0.08547482103850257,535149.0,,,,,580.4668882705221,576.9328882705221,
27,4,21,f,1,0,19.0,19,1,high,7 + 1 + 4 + 1 - 1,12,11,12,13,592.743065000046,594.7663995000185,596.2824496999965,601.3008993000258,601.9491023000446,601.9491073000245,603.4657404000172,604.4828901000437,w,12.0,0.6482030000188388,1,+10,57,-16.503729977999225,0.034426183619535866,0.8670446558029492,547434.0,8.78404664196381,0.1632868115008832,0.20274963518030376,550969.0,,,,,596.2868882705221,592.751888270522,
28,4,21,f,1,0,20.0,20,2,low,8 + 1 + 9 + 1 - 5,14,15,13,14,605.9997022000025,608.0241283000214,609.5391112000216,614.557072399999,615.2130501000211,615.2130551000009,616.7295671000029,617.7467815999989,e,14.0,0.6559777000220492,1,+1,58,20.638956573815676,-0.07308567024999801,4.777751835960278,560692.0,-6.954164248873322,0.59314775445548,0.8036585981851481,564225.0,,,,,609.5428882705221,606.0098882705221,
29,4,21,f,1,0,21.0,21,3,high,2 + 1 + 9 - 7 + 6,11,13,11,12,619.2633995999931,621.3475380000309,622.8627515000408,627.8811526999925,631.8450773000368,631.8450821000151,633.3614579000277,634.3786199000315,w,11.0,3.9639246000442654,1,+10,68,55.49301760245285,-0.33230423865134684,-0.05508414088437341,574015.0,-11.42149062517929,0.05482877027363653,-0.010801492965476722,577549.0,,,,,622.866888270522,619.3328882705221,
30,4,21,f,1,0,22.0,22,2,high,4 + 9 + 1 - 7 - 1,6,8,5,6,635.8955560000031,637.9202553000068,639.435421800008,644.4538832000108,645.1890882000444,645.1890931000235,646.7061859000241,647.7235853000311,e,6.0,0.7352050000336021,1,+10,78,-30.424961367561128,-0.07814856085749566,-0.016421917529932273,590588.0,-25.506734640716644,0.16021706999591068,0.13752006830527375,594122.0,,,,,639.439888270522,635.905888270522,
31,4,21,f,1,0,23.0,23,2,low,4 + 7 + 1 + 1 - 8,5,7,5,4,649.240277600009,651.2663963999948,652.7816233000485,657.7988192000194,661.5811697000172,661.5811771000153,663.098152999999,664.1147656000103,w,5.0,3.782350499997847,1,+1,79,3.0058523279327405,-8.021533553465314,-7.702172985730648,603934.0,5.728636649075639,0.39906972390461126,0.0005078919807783855,607468.0,,,,,652.785888270522,649.251888270522,
32,4,21,f,1,0,24.0,24,4,high,5 + 7 - 4 - 6 + 9,11,12,13,11,665.6314458000124,667.6574382000254,669.1722410999937,674.1906776000396,677.1972407000139,677.1972457999946,678.7137689000228,679.7311787999934,e,11.0,3.0065630999743007,1,+10,89,-35.50778368905586,0.05234319854375258,0.16835414979486174,620325.0,24.874814503672432,0.025648398074900047,0.05445550801143373,623858.0,,,,,669.175888270522,665.6428882705221,
33,4,21,f,1,0,25.0,25,4,low,9 + 8 - 5 - 7 + 6,11,13,10,11,681.2472697000485,683.2730097000021,684.7878915000474,689.8060777000501,693.6691600000486,693.6691653000307,695.1858701000456,696.2030513000209,q,13.0,3.863082299998496,0,+0,89,72.34035431007842,1.3344299102785864,12.183153313199051,635940.0,-19.400566349400997,0.4526774769935038,0.0797545352026432,639474.0,,,,,684.7918882705221,681.2578882705221,
34,4,21,f,1,0,26.0,26,4,high,7 + 8 - 4 + 6 - 5,12,12,11,13,697.7198176000384,699.7435778999934,701.2588087000186,706.2772204999928,709.069127499999,709.0691325000371,710.5857389000012,711.6025657000137,q,12.0,2.7919070000061765,1,+10,99,12.798923632534912,0.11811226630688854,-0.018007820720273182,652411.0,-3.938392704060856,-0.0011776502503257902,0.12303413732178092,655945.0,,,,,701.2628882705221,697.728888270522,
35,4,21,f,1,0,27.0,27,1,high,7 + 1 + 5 + 1 - 1,13,14,12,13,713.1189240000094,715.1444220000412,716.6593673000461,721.6774924000492,722.2771953000338,722.2772003000136,723.7938108000089,724.8112112000235,e,13.0,0.5997028999845497,1,+10,109,42.999214683897115,0.18112479774976142,0.22100166658074816,667812.0,1.7486985590827349,0.08514081471615853,0.07877073677168589,671345.0,,,,,716.6628882705221,713.1298882705221,
36,4,21,f,1,0,28.0,28,1,high,9 + 8 + 1 + 1 - 1,18,17,18,20,726.3276049999986,728.3529731000308,729.867887200031,734.8868705000496,735.5891524000326,735.5891573000117,737.1054676000495,738.1226493000286,w,18.0,0.7022818999830633,1,+10,119,-2.3221154501266668,0.15527561207070573,-0.07752255011202447,681020.0,-41.183837648235524,-0.8985286128306953,0.9409254404920682,684554.0,,,,,729.871888270522,726.3378882705221,
37,4,21,f,1,0,29.0,29,3,high,7 + 5 + 9 + 1 - 6,16,15,14,16,739.639444200031,741.6659547000309,743.1815982999979,748.1999322000192,750.7330946000293,750.7330995000084,752.2497834000387,753.267282899993,e,16.0,2.533162400010042,1,+10,129,-15.931506952912272,-0.19080031153053323,-0.32800396385930286,694333.0,-15.6931681293111,-0.01616649611740284,-1.858499555108112,697867.0,,,,,743.184888270522,739.650888270522,
38,4,21,f,1,0,30.0,30,2,high,9 + 6 + 1 + 7 + 1,24,24,23,25,754.7839750000276,756.810538300022,758.3257075000438,763.3437700000359,764.5252806000062,764.5252855000435,766.0417946000234,767.0583101999946,q,24.0,1.181510599970352,1,+10,139,6.8775298207095075,-0.14075009452334086,-10.407860005973577,709478.0,-7.292524663314355,0.23794388583680437,-0.1915271599643762,713011.0,,,,,758.328888270522,754.795888270522,
39,4,21,f,1,0,31.0,31,1,high,6 + 1 + 1 + 7 - 1,14,12,14,13,768.5749995000078,770.6031971000484,772.1181017000345,777.1381056000246,777.7091804000083,777.7091856000479,779.225521400047,780.2427671000478,w,14.0,0.5710747999837622,1,+10,149,-29.75484937203229,0.03493318015397673,-0.12542464495033157,723270.0,-28.8100127777235,-0.893013017859432,0.17360864491202244,726805.0,,,,,772.122888270522,768.5878882705221,
40,4,21,f,1,0,32.0,32,4,low,3 + 8 - 7 + 9 - 5,8,7,8,9,781.7589844000177,783.7868884000345,785.3020423999988,790.3203448000131,794.1972315000021,794.1972365000402,795.7137210000074,796.7307463000179,w,8.0,3.876886699988973,1,+1,150,-52.02579046563937,-0.41469165949189346,-0.6083131530573682,736454.0,11.861470697001081,-0.10231371263238076,0.1302785473630117,739988.0,,,,,785.3058882705221,781.771888270522,
41,4,21,f,1,0,33.0,33,2,high,5 + 7 - 8 + 1 + 1,6,6,7,8,798.2471280000173,800.2716154000373,801.7868547000107,806.8054407000309,807.8371980999946,807.8372028000304,809.3535033999942,810.3706946000457,q,6.0,1.0317573999636809,1,+10,160,16.438720297623046,-0.19411055470916683,-2.8330538545157613,752939.0,-11.889097510935535,0.18602369856043888,-0.07503881029332637,756472.0,,,,,801.789888270522,798.256888270522,
42,4,21,f,1,0,34.0,34,3,low,3 + 8 + 1 + 5 - 9,8,8,9,7,811.8873540000059,813.9133796000388,815.4285787999979,820.4464498000452,823.2691910000285,823.2691958000069,824.7859110000427,825.8025911000441,q,8.0,2.822741199983284,1,+1,161,21.769091483080174,0.4014590667084472,0.136736571912063,766580.0,-2.8393771430698234,0.3752502139760705,-0.10661244048121121,770113.0,,,,,815.4308882705221,811.8978882705221,
43,4,21,f,1,0,35.0,35,1,low,6 + 1 + 8 + 1 - 1,15,13,15,14,827.3192406000453,829.3464099999983,830.8616653000354,835.8803316000267,836.4292111000395,836.4292164000217,837.9455582000082,838.9623877000413,w,15.0,0.5488795000128448,1,+1,162,4.615196124896544,0.3874527050253054,0.17105444601895714,782014.0,29.254763961105617,0.236251804179604,0.057925538425912304,785547.0,,,,,830.8648882705221,827.3318882705221,
44,4,21,f,1,0,36.0,36,2,low,3 + 8 + 1 - 5 + 1,8,8,9,6,840.4790864000097,842.5069252999965,844.0221926000086,849.0405417000293,849.6772706000484,849.6772759000305,851.1938177000266,852.2105425000191,q,8.0,0.6367289000190794,1,+1,163,-6.779314581618081,-0.5700651930630838,0.01471763714739116,795173.0,6.386761521090994,0.2867143688170395,-5.805887713876916,798707.0,,,,,844.0248882705221,840.4908882705221,
45,4,21,f,1,0,37.0,37,4,high,5 + 9 - 4 + 7 + 6,23,23,25,24,853.7272662000032,855.7539059999981,857.2691963000107,862.2878579000244,865.5892842000467,865.5892893000273,867.1058750000084,868.1228855000227,e,24.0,3.301426300022285,0,+0,163,16.60588353665461,0.3418995251780932,0.3604288484686391,808420.0,19.948927459606093,0.20325378826287244,0.0334949335294934,811954.0,,,,,857.271888270522,853.737888270522,
46,4,21,f,1,1,38.0,0,4,low,8 + 3 - 4 + 5 + 9,21,22,23,21,903.8003365000476,905.8276113000466,907.342820800026,912.3623119000112,915.477216600033,915.4772217000136,916.994066400046,918.0120697999956,q,22.0,3.114904700021725,0,+0,163,-12.05281849253198,-1.0937918792401127,-0.2934595373858473,858494.0,1.4461774823761866,-0.059949736303985146,-1.2220112350596621,862029.0,,,,,907.3468882705221,903.8118882705221,
47,4,21,f,1,1,39.0,1,3,low,5 + 6 + 7 - 1 - 9,8,7,8,9,919.5288450000226,921.5547478999944,923.070082899998,928.0899535000208,928.6213177000172,928.6213226999972,930.1382981000352,931.155167000019,w,8.0,0.5313641999964602,1,+1,164,-18.925083090692098,0.5908881850489709,0.15178523740010652,874221.0,21.380078014815883,-0.054245161747706216,0.15351125339564176,877756.0,,,,,923.073888270522,919.5388882705221,
48,4,21,f,1,1,40.0,2,1,low,4 + 9 + 1 - 1 - 1,12,13,12,11,932.6725407000048,934.6992208000156,936.2143067000434,941.2325218000332,942.1173080000444,942.1173131000252,943.6338491000351,944.6508016000153,w,12.0,0.884786200011149,1,+1,165,-8.763866187343648,0.10094944681953644,0.2323276670148129,887365.0,-1.1650618182239718,0.016002674070994427,0.20340581236779598,890899.0,,,,,936.2168882705221,932.6828882705221,
49,4,21,f,1,1,41.0,3,2,low,8 + 1 + 1 + 9 - 4,15,14,16,15,946.1682017000276,948.1927394000232,949.7074789000326,954.7255163000082,957.5252255999948,957.5252308000344,959.0423385000322,960.0593103000429,e,15.0,2.7997092999867164,1,+1,166,20.451549544869398,-0.15510705292781868,2.149886200709719,900859.0,11.978555008140912,-0.18659850026637104,-0.13011477311219988,904392.0,,,,,949.7098882705221,946.1768882705221,
50,4,21,f,1,1,42.0,4,1,low,3 + 1 + 9 + 1 + 1,15,15,17,14,961.5758282000317,963.600735999993,965.1163751000422,970.1342224000256,970.8212656000396,970.821270400018,972.3375997000256,973.3547028000468,q,15.0,0.6870432000141591,1,+1,167,29.60143108449097,0.0690737194623825,-0.26714228830786,916268.0,0.5331780160179669,-0.06296420855073048,-0.028755748139140502,919801.0,,,,,965.1188882705221,961.5858882705221,
51,4,21,f,1,1,43.0,5,1,high,8 + 1 + 5 + 1 + 1,16,16,17,15,974.8713101000176,976.897454800026,978.4126498000114,983.4308244000422,984.1172762000352,984.1172810000136,985.633809400024,986.651024700026,q,16.0,0.6864517999929376,1,+10,177,11.781822029836043,0.11707436624695378,0.007402872605943411,929563.0,4.560329131750766,0.20769244263545872,0.1263234276207046,933097.0,,,,,978.414888270522,974.8808882705221,
52,4,21,f,1,1,44.0,6,3,low,6 + 8 + 7 + 1 - 9,13,13,14,15,988.1676039000158,990.190458099998,991.7053296000232,996.7237265000005,1000.4134128000004,1000.4134177000378,1001.9296769000356,1002.9465633000364,w,14.0,3.689686300000176,0,+0,177,-5.96886067151425,0.17959344881744244,-1.1975301505355551,942857.0,-8.423433734612718,0.21449426750296974,-0.1423133933961167,946390.0,,,,,991.7078882705221,988.174888270522,
53,4,21,f,1,1,45.0,7,1,low,5 + 1 + 1 + 6 + 1,14,16,13,14,1004.4631373000448,1006.488625500002,1008.0038288999932,1013.0223314000176,1013.5894103000172,1013.5894150999956,1015.106275600032,1016.122767199995,e,14.0,0.5670788999996148,1,+1,178,-26.455901134765497,0.27401410576756513,0.16645380154876643,959155.0,-19.35987989201331,0.07467856518934779,0.03269388210804047,962688.0,,,,,1008.0058882705221,1004.472888270522,
54,4,21,f,1,1,46.0,8,4,low,8 + 5 - 4 + 7 + 9,25,26,25,24,1017.6392064000248,1019.665877600026,1021.1811632000026,1026.1995404000045,1028.581318900047,1028.5813237000257,1030.0982678,1031.1148165000486,w,25.0,2.381778500042856,1,+1,179,27.469832409920222,0.05192193753785235,0.20505201177982135,972332.0,29.88553924017201,-0.009655398142391913,0.06971436706494427,975865.0,,,,,1021.1828882705221,1017.6498882705221,
55,4,21,f,1,1,47.0,9,3,high,2 + 1 + 9 - 4 + 6,14,15,14,16,1032.6315257000388,1034.6593090000097,1036.1744747000048,1041.192317500012,1041.7493259000476,1041.7493308000269,1043.2659813000355,1044.2829329000087,w,14.0,0.5570084000355564,1,+10,189,26.194086815473543,0.21298164836400968,-0.061733170100602974,987325.0,-4.517481598544995,-0.0019798980116023657,0.06541791673928943,990858.0,,,,,1036.1758882705221,1032.6428882705222,
56,4,21,f,1,1,48.0,10,2,high,4 + 8 + 1 + 1 - 5,9,8,9,11,1045.7997224000285,1047.828138300043,1049.3433773000145,1054.3613589000306,1054.9573300000047,1054.9573347000403,1056.473675700021,1057.4910703000496,w,9.0,0.5959710999741219,1,+10,199,21.915695827992437,-0.2039438774149751,-0.030354625471848973,1000493.0,-24.90457227754299,0.09966277562329173,0.21958013053279268,1004027.0,,,,,1049.3448882705222,1045.8108882705221,
57,4,21,f,1,1,49.0,11,1,high,5 + 6 + 1 + 1 + 1,14,14,15,16,1059.0077308000182,1061.0347060000058,1062.5498761000345,1067.567477500008,1068.1574332000455,1068.1574381000246,1069.673799500044,1070.6915888999938,q,14.0,0.5899557000375353,1,+10,209,19.12436907590271,0.10905407605406126,0.020872309689267343,1013701.0,4.206011756287248,-0.09031832279520602,0.09576493947300335,1017233.0,,,,,1062.5508882705221,1059.0188882705222,
58,4,21,f,1,1,50.0,12,3,high,4 + 7 + 1 + 9 - 5,16,17,18,16,1072.2083927000058,1074.2329605999985,1075.748635200027,1080.7671630000114,1081.461454400036,1081.4614592000144,1082.9779048000346,1083.995001400006,w,18.0,0.6942914000246674,0,+0,209,-28.089318675866192,0.13332339545945926,0.1253018476744856,1026899.0,-4.988352091790405,0.6068138819787054,-0.036035043422025126,1030433.0,,,,,1075.7508882705222,1072.216888270522,
59,4,21,f,1,1,51.0,13,1,high,7 + 1 + 4 + 1 - 1,12,12,14,13,1085.5114622000256,1087.5364255000022,1089.0516729000374,1094.07067440002,1094.661340999999,1094.6613457000349,1096.1774889000226,1097.194406500028,q,12.0,0.5906665999791585,1,+10,219,-11.738571455205635,0.36856444074424255,2.810225598459583,1040202.0,-3.197778855930966,-0.06389531965896333,3.281114669309815,1043736.0,,,,,1089.0538882705223,1085.5198882705222,
60,4,21,f,1,1,52.0,14,1,low,9 + 8 + 1 + 1 - 1,18,19,18,17,1098.7107119000284,1100.738554200041,1102.2537286000445,1107.2717127000217,1107.9013142000183,1107.9013186999946,1109.417260600021,1110.434108800022,w,18.0,0.6296014999970794,1,+1,220,25.136784175958034,0.0073358901982643054,0.025691544497085328,1053404.0,25.701048709577154,0.19170124553984058,0.01772521911363234,1056937.0,,,,,1102.254888270522,1098.7218882705222,
61,4,21,f,1,1,53.0,15,1,low,6 + 9 + 1 + 1 - 1,16,16,14,15,1111.9508626000024,1113.9739210000262,1115.4887518000323,1120.5068763000309,1121.0533502000037,1121.0533549000393,1122.5697228999925,1123.5860896999948,q,16.0,0.5464738999726251,1,+1,221,-6.580211969246854,0.15288565666252696,-0.013603405762464105,1066639.0,15.674874416212958,0.0849167867666103,-0.1230795876491626,1070172.0,,,,,1115.4898882705222,1111.956888270522,
62,4,21,f,1,1,54.0,16,4,high,4 + 7 + 9 - 5 + 7,22,24,23,22,1125.1027607000433,1127.1311255000182,1128.6468665000284,1133.6654729000293,1137.373320100014,1137.373325099994,1138.889859899995,1139.9067772999988,w,23.0,3.707847199984826,0,+0,221,40.73209512427519,-0.26541944377588633,-0.09649870394387672,1079797.0,-4.502557063860559,-0.23127788536922766,-0.029316896125887615,1083331.0,,,,,1128.648888270522,1125.1148882705222,
63,4,21,f,1,1,55.0,17,4,low,5 + 7 - 4 - 6 + 9,11,12,11,13,1141.4247259999977,1143.449276900035,1144.964551400044,1149.9841770000055,1150.4694730000338,1150.4694780000136,1151.9859626000398,1153.0026019000215,w,11.0,0.4852960000280291,1,+1,222,-13.341914662679663,0.07958577282440338,0.3201670508652572,1096114.0,26.966113019562325,0.17790067922793007,-0.1464300009828179,1099649.0,,,,,1144.966888270522,1141.4318882705222,
64,4,21,f,1,1,56.0,18,3,high,4 + 8 - 9 + 1 + 7,11,11,9,13,1154.518849300046,1156.5433285000036,1158.0585054000258,1163.078418200021,1163.5894143000478,1163.5894195000292,1165.10552750004,1166.1226556000183,q,11.0,0.5109961000271142,1,+10,232,17.945407787081272,0.017288856864747792,-0.02791525758497837,1109208.0,38.78819244281076,0.07785694066701732,-0.04439362906498823,1112744.0,,,,,1158.061888270522,1154.5258882705223,
65,4,21,f,1,1,57.0,19,4,high,6 + 5 - 7 + 8 - 9,3,4,3,5,1167.6387944000307,1169.663539500034,1171.1787844999926,1176.1976623000228,1178.5094451000332,1178.5094538000412,1180.025972500036,1181.043208700023,q,4.0,2.311782800010405,0,+0,232,-5.1339817827087115,-0.20571250224863213,-0.07719100220658581,1122329.0,-5.6747968856366295,0.24670427287424834,0.0954525482921329,1125862.0,,,,,1171.1798882705223,1167.6468882705221,
66,4,21,f,1,1,58.0,20,1,low,2 + 1 + 9 + 1 - 1,12,12,13,11,1182.559968300047,1184.5877570000011,1186.1027150000446,1191.1208174000494,1191.7814408999984,1191.7814464000403,1193.2978291000472,1194.314662699995,q,12.0,0.660623499948997,1,+1,233,17.386586531116702,-0.05187002155786535,-1.362516154018162,1137253.0,13.639156015191443,0.018705652457216004,0.24849667067682524,1140786.0,,,,,1186.1038882705222,1182.5708882705221,
67,4,21,f,1,1,59.0,21,3,low,3 + 1 + 8 - 5 + 6,13,13,15,14,1195.8309647000278,1197.8565244000056,1199.3714210000471,1204.3893470000476,1206.36546120001,1206.3654672999985,1207.8819134000223,1208.898777400027,q,13.0,1.976114199962467,1,+1,234,20.156470162643846,-0.42775367159392896,-2.127171870677904,1150522.0,-14.899944987355063,-0.3828677382778669,0.1502381028071771,1154054.0,,,,,1199.3718882705223,1195.8398882705221,
68,4,21,f,1,1,60.0,22,3,low,3 - 7 + 5 + 1 + 9,11,12,11,13,1210.4154213000438,1212.4391249000328,1213.9548743000487,1218.973475100007,1220.8614971000352,1220.8615023000166,1222.378583600046,1223.3959886000375,q,12.0,1.888022000028286,0,+0,234,-29.065840223564784,0.34769763771127016,0.010267256789614265,1165104.0,34.63415173015768,0.6250552584876727,0.013285407833526275,1168638.0,,,,,1213.955888270522,1210.4218882705222,
69,4,21,f,1,1,61.0,23,3,high,7 + 1 + 9 + 5 - 6,16,14,16,15,1224.9123516000109,1226.9366963000502,1228.451797000016,1233.4702096999972,1235.9334827000275,1235.9334876000066,1237.4501997000189,1238.4672495000414,e,15.0,2.4632730000303127,0,+0,234,2.1255275762420354,-0.0620546619114144,-0.12759155266143063,1179602.0,-9.960187150222698,-0.16698833699815507,0.0025100792539651806,1183135.0,,,,,1228.4528882705222,1224.9198882705223,
70,4,21,f,1,1,62.0,24,2,low,4 + 1 + 9 + 1 - 6,9,9,7,8,1239.9839928,1242.0116563000483,1243.52649020002,1248.544471500034,1249.2214522000286,1249.221457000007,1250.7377647000249,1251.7545417000074,q,9.0,0.6769806999946013,1,+1,235,5.657087279649296,0.49649932362263494,0.09970330548816309,1194676.0,-31.154016073387037,-0.10540617175195388,-0.03559241129492596,1198209.0,,,,,1243.5268882705222,1239.9938882705221,
71,4,21,f,1,1,63.0,25,1,high,8 + 1 + 1 - 1 - 4,5,3,5,6,1253.2709742000443,1255.2982148000156,1256.8135076000472,1261.8327743000118,1262.493399100029,1262.4934038000065,1264.0097155999974,1265.026942000026,w,5.0,0.6606248000171036,1,+10,245,14.461164617751876,2.317896322123758e-05,-1.0322379639559898,1207962.0,-4.600190877211972,0.35397825965182994,-0.4769140182447964,1211497.0,,,,,1256.8148882705223,1253.2798882705222,
72,4,21,f,1,1,64.0,26,1,high,3 + 1 + 1 + 9 - 1,13,14,13,12,1266.5437908000313,1268.5683716000058,1270.083503600035,1275.1011790000484,1275.5975724000018,1275.5975776000414,1277.1136800000097,1278.1308693000465,w,13.0,0.4963933999533765,1,+10,255,-22.491809216754618,-0.21814850210419134,-0.2541808609273437,1221233.0,22.05621396863566,-0.11442374019970858,0.07853995042703033,1224766.0,,,,,1270.0838882705223,1266.5508882705221,
73,4,21,f,1,1,65.0,27,4,high,7 + 8 - 4 + 6 + 5,22,22,23,21,1279.6475676000118,1281.673491500027,1283.188353900041,1288.2066500000074,1290.381603500049,1290.3816083000274,1291.898073600023,1292.915034900012,e,21.0,2.174953500041738,0,+0,255,7.512400249174943,-0.23095912534973628,-0.046832864839482236,1234338.0,-14.728621278820611,0.05383215144802067,0.013392013577333328,1237871.0,,,,,1283.1888882705223,1279.6558882705222,
74,4,21,f,1,1,66.0,28,1,high,7 - 1 + 1 + 9 - 1,15,14,15,13,1294.4325405000127,1296.459381600027,1297.9744236000115,1302.9927436000437,1306.5735292000463,1306.57353470003,1308.0899918000214,1309.1070728000486,q,14.0,3.580785600002855,0,+0,255,-9.095924375331425,-0.42354030971010426,-0.5929260449788085,1249124.0,16.67259217821315,0.17365336645195217,0.073912595721765,1252657.0,,,,,1297.9748882705221,1294.4418882705222,
75,4,21,f,1,1,67.0,29,2,low,2 + 9 - 4 + 1 + 1,9,9,11,8,1310.6238083000062,1312.6496260000276,1314.1649174000486,1319.1839237000097,1319.6855188000482,1319.6855237000273,1321.2019887000206,1322.2185798000428,q,9.0,0.5015951000386849,1,+1,256,15.83712846110496,-0.10454883283172833,-0.5022775315265267,1265314.0,11.676174907966704,0.0134883996017785,0.1586093862978184,1268848.0,,,,,1314.1658882705221,1310.6318882705223,
76,4,21,f,1,1,68.0,30,2,low,4 + 8 + 1 + 1 - 6,8,8,9,7,1323.7350580000202,1325.7605171000469,1327.2756892000325,1332.2940534999943,1332.981437700044,1332.981442600023,1334.4979540000204,1335.5147875000257,q,8.0,0.6873842000495642,1,+1,257,-7.5691405840139545,0.03151263853839481,0.6043295247935196,1278425.0,11.533043300740708,0.11181643825273735,-0.06588573240672924,1281958.0,,,,,1327.2758882705223,1323.7428882705221,
77,4,21,f,1,1,69.0,31,1,high,9 + 1 + 1 + 7 - 1,17,19,17,16,1337.0315229000407,1339.0571502000091,1340.572120900033,1345.5901008000365,1346.2454953000415,1346.24550010002,1347.7610519000443,1348.7783674999955,w,17.0,0.6553945000050589,1,+10,267,-19.35295095543527,-0.41836624986013815,-0.13500048812248489,1291721.0,-21.723378361072847,0.10184671370381304,0.15342822907864306,1295255.0,,,,,1340.5728882705223,1337.0388882705222,
78,4,21,f,1,1,70.0,32,3,high,9 - 1 + 5 - 6 + 8,15,17,15,14,1350.2949719000026,1352.3189278999926,1353.8340958000044,1358.8515739000286,1361.981525100011,1361.9815332000144,1363.4979829000076,1364.5151654999936,w,15.0,3.1299511999823157,1,+10,277,-10.389250080526068,-2.5946799002607044,-5.118962876656459,1304983.0,4.544636129967822,0.2065966282873548,-0.03794911601896045,1308516.0,,,,,1353.8338882705223,1350.3008882705221,
79,4,21,f,1,1,71.0,33,4,high,4 + 7 + 8 - 3 + 9,25,24,25,26,1366.0318882000283,1368.0570871999953,1369.572260200046,1374.592425800045,1376.6936149999965,1376.6936199000338,1378.2101655000006,1379.2275156000396,w,25.0,2.1011891999514773,1,+10,287,-0.9483979454153015,-0.042863511340222704,0.14399101543996018,1320721.0,13.719895279418516,6.143830892845127,1.9575789145060103,1324256.0,,,,,1369.5738882705223,1366.0388882705222,
80,4,21,f,1,1,72.0,34,4,high,3 + 8 - 4 + 9 + 7,23,22,24,23,1380.7442567000398,1382.7706070000422,1384.2852445000317,1389.3034658000106,1391.317534300033,1391.3175390000106,1392.8339075000258,1393.8510289000114,e,23.0,2.014068500022404,1,+10,297,2.0569541041474295,0.30981674319684815,2.154756500945174,1335435.0,5.125960561103778,0.5693396927220689,1.322494447697525,1338968.0,,,,,1384.2858882705223,1380.7528882705221,
81,4,21,f,1,1,73.0,35,2,high,7 + 6 + 1 - 1 - 8,5,3,5,4,1395.3678860000218,1397.3951320000342,1398.9106214000494,1403.9287963000245,1406.933543900028,1406.9335487000062,1408.4500035000383,1409.4672630000275,q,3.0,3.0047476000036117,0,+0,297,14.808761889251937,0.26694271632746913,0.20277088722072412,1350059.0,-2.236474274649117,-1.1871372534995999,-5.553088844555212,1353593.0,,,,,1398.9108882705223,1395.3768882705222,
82,4,21,f,1,1,74.0,36,2,low,2 + 9 + 1 + 1 - 5,8,7,6,8,1410.9838285000296,1413.0085216000443,1414.5241848000442,1419.5441376999952,1420.2535705000046,1420.2535755000426,1421.7693594000302,1422.7861398000389,e,8.0,0.709432800009381,1,+1,298,0.47812945419909525,0.5907558810557068,-1.6144969646685055,1365672.0,22.761054142776203,0.5543725780796009,0.4445981452968786,1369207.0,,,,,1414.5248882705223,1410.9898882705222,
83,4,21,f,1,1,75.0,37,3,low,2 - 4 + 9 + 7 + 1,15,13,16,15,1424.302678900014,1426.3279053000151,1427.843053699995,1432.8628776000114,1435.4696931000217,1435.4696982000023,1436.9860964000109,1438.0029919000226,e,15.0,2.60681550001027,1,+1,299,9.355864542916988,0.3397761997723068,0.08069209810232048,1378992.0,15.790159735989908,0.5014094452609075,0.19753995324997575,1382527.0,,,,,1427.8448882705222,1424.3098882705222,
84,4,21,f,1,2,76.0,0,2,low,5 - 1 + 1 + 8 + 9,22,22,21,23,1457.1853075000108,1459.2140223000315,1460.7299879000057,1465.7500499000307,1469.053569300042,1469.0535744000226,1470.5701199000468,1471.587334300042,w,21.0,3.3035194000112824,0,+0,299,14.223335307940651,0.8188800330418111,3.0360113864575675,1411878.0,43.35196108390282,0.12655248725677626,-0.5255035564825397,1415413.0,,,,,1460.7308882705222,1457.1958882705221,
85,4,21,f,1,2,77.0,1,3,high,7 - 1 + 9 - 5 + 4,14,15,14,13,1473.104013400036,1475.1313947000308,1476.646609699994,1481.6650161000434,1482.3256639000028,1482.325669700047,1483.8420795000277,1484.859222500003,w,14.0,0.6606477999594063,1,+10,309,-3.203648052748534,-0.7526898234295323,-6.587631374826261,1427794.0,10.744691197100389,-0.39965085156127955,-3.8545397139785056,1431329.0,,,,,1476.6468882705221,1473.1118882705223,
86,4,21,f,1,2,78.0,2,3,low,9 + 3 - 4 + 6 + 7,21,21,23,22,1486.3759647000115,1488.399917600036,1489.9148788000457,1494.9332204000093,1496.645645200042,1496.6456505000242,1498.161860399996,1499.178690700035,q,21.0,1.7124248000327498,1,+1,310,11.287664817023007,-5.796144761446905,-13.515235848087919,1441063.0,-31.813834378419628,-0.021573898992210072,0.12723558065598417,1444597.0,,,,,1489.9148882705222,1486.3808882705223,
87,4,21,f,1,2,79.0,3,4,low,8 + 4 + 7 - 5 - 6,8,8,9,6,1500.69560190005,1502.722603400005,1504.2376720000177,1509.2557424000115,1510.6135627000476,1510.6135680000298,1512.129983399995,1513.1470945000185,w,9.0,1.35782030003611,0,+0,310,-7.21410410644933,-0.06276197806413641,-1.9103577151021085,1455386.0,8.181824494925303,0.10235980597743577,0.14849906297298432,1458919.0,,,,,1504.2368882705223,1500.7038882705222,
88,4,21,f,1,2,80.0,4,4,high,6 + 9 + 7 - 3 - 5,14,13,14,12,1514.6637092000456,1516.691339300014,1518.20664270001,1523.2247734999985,1524.7259153000196,1524.7259214000078,1526.24299540004,1527.2602114000474,w,14.0,1.501141800021287,1,+10,320,-14.108728828420459,-0.008009228601649099,-0.015394712555267809,1469355.0,0.7070342731728747,-5.807495402848942,-10.649068849552386,1472888.0,,,,,1518.205888270522,1514.6728882705222,
89,4,21,f,1,2,81.0,5,2,low,7 + 8 + 1 + 9 + 1,26,25,24,26,1528.7769148999942,1530.8021313000354,1532.3172869000118,1537.3370039000292,1540.037667000026,1540.0376721000066,1541.554036000045,1542.5713802000391,q,25.0,2.7006630999967456,0,+0,320,9.203318542837286,0.34264315679847135,0.09566817902777158,1483465.0,-21.02362901999785,0.1471485542348856,0.1886607036044814,1487000.0,,,,,1532.3178882705222,1528.782888270522,
90,4,21,f,1,2,82.0,6,3,low,7 - 5 + 9 + 1 - 4,8,8,7,9,1544.087961000041,1546.1166260000318,1547.6318371000234,1552.6501502000028,1555.9656196000287,1555.9656251000124,1557.4819399000262,1558.4990481000275,w,7.0,3.315469400025904,0,+0,320,-4.884144173340957,0.11867589790082,-0.04030980927778538,1498779.0,7.619992772279962,0.13618076567787973,-0.553761298925421,1502313.0,,,,,1547.6308882705223,1544.0968882705222,
91,4,21,f,1,2,83.0,7,4,low,5 + 6 - 4 + 7 + 9,23,24,23,25,1560.0156881000148,1562.04281850002,1563.557919300045,1568.5758746000356,1570.8617009000154,1570.8617058999953,1572.37799920002,1573.394287400006,w,23.0,2.285826299979817,1,+1,321,11.971158694765133,0.0530839437281152,0.9331790949647494,1514706.0,-2.3501258610888307,1.4765279704259853,0.06619561018756315,1518239.0,,,,,1563.5568882705222,1560.023888270522,
92,4,21,f,1,2,84.0,8,4,low,3 + 8 - 5 + 9 - 7,8,8,6,7,1574.9110260000452,1576.9345918000326,1578.449420800025,1583.4677029000013,1586.3576545999967,1586.357659500034,1587.8742819000036,1588.8912732000465,w,6.0,2.889951699995436,0,+0,321,-31.84236291188735,-0.8245156787369838,-4.657958004663743,1529598.0,-13.617797393731838,0.4942076500266519,0.14934618995577487,1533131.0,,,,,1578.4488882705223,1574.9158882705221,
93,4,21,f,1,2,85.0,9,3,low,8 - 7 + 9 + 1 + 4,15,15,14,16,1590.4077505000168,1592.435534200049,1593.9507143000374,1598.9691515000304,1599.7256063999955,1599.7256112000323,1601.2414789000177,1602.2584173000068,q,15.0,0.7564548999653198,1,+1,322,5.3029679499370275,0.24639474077309753,0.32200759528139966,1545099.0,-43.750966964674745,0.23385279839211126,-0.12414315482634741,1548632.0,,,,,1593.9498882705223,1590.4168882705221,
94,4,21,f,1,2,86.0,10,1,low,3 + 1 + 8 - 1 + 1,12,12,10,13,1603.7749687000178,1605.8027159000048,1607.3176409000298,1612.3356349000242,1612.797687800019,1612.7976931000012,1614.3140016000252,1615.3305380000384,q,12.0,0.4620528999948874,1,+1,323,28.279916825931004,0.28491199785473276,0.04628198676865414,1558466.0,-29.94048457683702,-0.02681224833245377,0.5903983020477048,1561999.0,,,,,1607.3168882705222,1603.783888270522,
95,4,21,f,1,2,87.0,11,4,low,7 + 6 + 8 - 4 + 5,22,23,21,22,1616.847169100016,1618.8737140000449,1620.3889009000268,1625.4087364000152,1628.0936748000097,1628.093680000049,1629.610204800032,1630.626972900005,e,22.0,2.68493839999428,1,+1,324,0.10284862460072475,0.05475693252519287,0.09322929342648423,1571537.0,-6.957758198700521,-0.005516614301422695,-0.7775978644307506,1575072.0,,,,,1620.389888270522,1616.8548882705222,
96,4,21,f,1,2,88.0,12,3,high,4 + 1 + 8 + 9 - 5,17,19,18,17,1632.1436057999963,1634.1713776999968,1635.6858004000387,1640.7038915000155,1643.5257066000486,1643.5257117000292,1645.0421706000343,1646.0593524000142,e,17.0,2.821815100032836,1,+10,334,29.55554166515769,-0.6453546254197535,-0.1461266889560091,1586834.0,9.827448052746394,0.8513575334489936,-0.7278391222559284,1590367.0,,,,,1635.6848882705222,1632.1518882705222,
97,4,21,f,1,2,89.0,13,2,high,9 + 4 + 5 + 1 - 1,18,17,19,18,1647.57594770001,1649.6018559000222,1651.1167041000444,1656.135379000043,1656.6136383000412,1656.613642900018,1658.129860200046,1659.1466390000423,e,18.0,0.4782592999981716,1,+10,344,-33.657814193062094,-6.444406976936465,-8.591251878222725,1602264.0,13.032981895131101,0.14197712454422629,-0.10021008954672173,1605798.0,,,,,1651.1158882705222,1647.581888270522,
98,4,21,f,1,2,90.0,14,1,low,5 + 1 + 1 + 9 + 1,17,19,16,17,1660.6636595000164,1662.6907009000424,1664.2059504000354,1669.2236908000195,1669.837694899994,1669.8377000000328,1671.3542833999963,1672.3709985000314,e,17.0,0.6140040999744087,1,+1,345,17.865319613698233,-0.1718376781390778,-0.04326522930623122,1615354.0,-9.595401340431778,0.07834717708000927,0.16440216868016555,1618886.0,,,,,1664.2038882705222,1660.6718882705222,
99,4,21,f,1,2,91.0,15,1,high,6 + 9 + 1 + 1 - 1,16,14,15,16,1673.8876426000495,1675.9158501000493,1677.4307775000343,1682.448667000048,1683.0217460000422,1683.0217508000203,1684.5387743000174,1685.5561666000283,e,16.0,0.5730789999943227,1,+10,355,17.281559611316354,0.2292210083459958,-0.5008776580514196,1628578.0,-3.43998353463067,0.3773514770579487,0.35538152080407803,1632112.0,,,,,1677.4298882705223,1673.8958882705222,
100,4,21,f,1,2,92.0,16,4,high,3 + 9 - 5 + 8 - 7,8,9,8,7,1687.0725554000237,1689.0959575000452,1690.6111271000118,1695.629862300004,1697.4457174999989,1697.445722100034,1698.961939300003,1699.9791947000194,w,8.0,1.815855199994985,1,+10,365,-27.16042279090974,-0.17727447644378724,0.0007021297455178654,1641759.0,-22.386735380991652,0.056690238821643923,-0.42881379580954904,1645292.0,,,,,1690.609888270522,1687.0768882705222,
101,4,21,f,1,2,93.0,17,1,low,3 + 1 + 8 + 1 + 1,14,13,14,12,1701.4958952000015,1703.5219045000267,1705.0371075000148,1710.0551697000046,1710.6217196999933,1710.621724700031,1712.1381996000418,1713.1553914000397,w,14.0,0.5665499999886379,1,+1,366,-7.450195617138656,0.2983815494307893,-0.012280215328713373,1656185.0,-5.88488003554067,-0.06895886893374659,0.39877962236123143,1659718.0,,,,,1705.0358882705223,1701.5028882705221,
102,4,21,f,1,2,94.0,18,4,high,3 + 8 - 4 + 9 + 6,22,21,22,23,1714.6722603000237,1716.699147700041,1718.2142719000112,1723.2320576000493,1723.765804500028,1723.7658097000094,1725.28243880003,1726.2998159000415,w,22.0,0.5337468999787234,1,+10,376,0.5662519921231635,-0.1497885540537749,0.17774117709831927,1669362.0,16.10820161159246,0.3595639011753686,0.09593197128371767,1672895.0,,,,,1718.2128882705222,1714.6798882705223,
103,4,21,f,1,2,95.0,19,1,low,4 + 7 + 1 - 1 - 1,10,9,11,10,1727.8163743000478,1729.843738900032,1731.3589181000134,1736.3773619999993,1736.981742300035,1736.9817474000156,1738.4983464000395,1739.5151518000057,e,10.0,0.6043803000357002,1,+1,377,1.702437617108739,-0.11433002132267722,-0.012540991386340128,1682506.0,4.565083254783838,0.31279994365508834,-0.0052840371472917536,1686040.0,,,,,1731.3578882705222,1727.8238882705223,
104,4,21,f,1,2,96.0,20,4,low,2 + 5 - 3 + 9 + 8,21,19,21,22,1741.031678200001,1743.0581246000363,1744.572884000023,1749.591522600036,1750.40574680001,1750.4057518000482,1751.9220165000297,1752.9388808000367,w,21.0,0.8142241999739781,1,+1,378,-20.53933152375252,7.649693158750116,18.588921551302715,1695720.0,-14.742440724300277,0.41543463745932696,-0.5446268345496819,1699253.0,,,,,1744.5708882705221,1741.0378882705222,
105,4,21,f,1,2,97.0,21,3,low,3 + 1 + 8 - 5 + 9,16,16,15,17,1754.4557331000103,1756.481703700032,1757.9969363000127,1763.0149002000107,1763.541746700008,1763.5417512000422,1765.0576420000289,1766.074427900021,q,16.0,0.5268464999971911,1,+1,379,-14.597782689943799,-2.6077330035789714e-05,-0.2374520425429747,1709144.0,-9.257091621768982,0.1758365823429653,0.1424464265199752,1712677.0,,,,,1757.994888270522,1754.4618882705222,
106,4,21,f,1,2,98.0,22,3,low,9 - 5 - 1 - 6 + 8,5,5,7,4,1767.5911851000274,1769.616894900042,1771.1320816000225,1776.150125300046,1778.10177020001,1778.1017751000472,1779.6189431000385,1780.6355654000072,q,5.0,1.951644899963867,1,+1,380,-5.411652693610485,-0.19587423687960426,-1.3810804608236147,1722279.0,0.4422819330240735,0.263901169987689,-1.5066587185727216,1725812.0,,,,,1771.129888270522,1767.5968882705222,
107,4,21,f,1,2,99.0,23,2,low,5 + 1 + 7 - 6 + 1,8,8,7,6,1782.1521429000422,1784.1773632999975,1785.6924180000206,1790.7116102,1792.2219114000327,1792.2219164000126,1793.7379393000156,1794.7550214999935,w,7.0,1.5103012000327,0,+0,380,13.127802834861974,0.3136792889780158,0.22580615251810543,1736840.0,0.30228908708753366,-3.0066446559544833,-2.816614759611059,1740373.0,,,,,1785.6908882705222,1782.157888270522,
108,4,21,f,1,2,100.0,24,2,high,4 + 9 - 7 + 1 - 1,6,6,5,8,1796.2717968000215,1798.2990738000371,1799.81393210002,1804.8326152000227,1805.477847800008,1805.4778529000469,1806.994380200049,1808.0122883000292,q,6.0,0.6452325999853201,1,+10,390,11.523553196152248,-0.24915972168350642,0.16011015888397973,1750961.0,-25.361466373306623,10.33641603290515,12.043935076682075,1754495.0,,,,,1799.812888270522,1796.2788882705222,
109,4,21,f,1,2,101.0,25,2,low,5 + 9 - 8 + 1 + 1,8,8,7,9,1809.5289917000337,1811.558621500037,1813.074424899998,1818.0934476000257,1818.637836400012,1818.637841300049,1820.1543913000496,1821.171126400004,q,8.0,0.5443887999863364,1,+1,391,8.680751188561013,0.09463477759823569,2.436609901232321,1764220.0,-3.6768703930652533,-1.1848672904964443,0.19729369509267292,1767756.0,,,,,1813.0738882705223,1809.5378882705222,
110,4,21,f,1,2,102.0,26,2,low,8 + 1 + 9 + 1 - 4,15,16,15,14,1822.6881302000256,1824.712359199999,1826.2272731999983,1831.2453668999951,1831.7017807000084,1831.7017861000493,1833.2182637000224,1834.234921900032,w,15.0,0.4564138000132516,1,+1,392,2.009780044093487,0.015348824339083134,-0.3423188699430342,1777374.0,-9.27756121252249,0.5739139355561464,0.0812262097636598,1780907.0,,,,,1826.2248882705221,1822.6918882705222,
111,4,21,f,1,2,103.0,27,3,high,2 + 1 + 9 - 5 + 6,13,11,14,13,1835.751397000044,1837.776626900013,1839.2925717000037,1844.3101980999927,1846.4458018000005,1846.4458069000395,1847.9627730000063,1848.9796728999936,e,13.0,2.1356037000077777,1,+10,402,-44.69459410645916,0.16019363882742388,-0.22187684901074745,1790438.0,3.5538374665544534,0.049755638870470964,-0.45152516337750814,1793972.0,,,,,1839.2898882705222,1835.7558882705223,
112,4,21,f,1,2,104.0,28,4,low,9 + 4 - 6 + 8 + 7,22,24,21,22,1850.496368299995,1852.5246096000192,1854.03981430002,1859.0579944000349,1859.749869799998,1859.7498750000375,1861.266400100023,1862.283187700028,e,22.0,0.6918753999634646,1,+1,403,-33.14666903332257,-2.944801464244102,-14.089851801628729,1805186.0,46.07589400017119,-0.10767626377678363,0.22351927654931014,1808720.0,,,,,1854.0378882705222,1850.503888270522,
113,4,21,f,1,2,105.0,29,2,high,9 + 5 - 6 + 1 - 1,8,9,7,8,1863.7998160000425,1865.823814300005,1867.3389641999968,1872.3581335000345,1873.6458894000389,1873.6458944000187,1875.1623376000207,1876.1797520000252,e,8.0,1.287755900004413,1,+10,413,-50.65758644019217,-0.0162514182911333,0.2925684930660104,1818486.0,-7.185494721111045,-0.14512478065163537,0.49386310075298123,1822020.0,,,,,1867.3378882705222,1863.8038882705223,
114,4,21,f,1,2,106.0,30,4,high,7 + 6 - 4 + 9 - 5,13,12,13,14,1877.6962267000345,1879.7232615000105,1881.2383878999967,1886.2573788000157,1889.253906600003,1889.253912000044,1890.7705017999976,1891.7878855000015,w,13.0,2.996527799987234,1,+10,423,-0.9440775003785795,-0.44986018299396013,-0.025669601831836086,1832385.0,-11.912366788907498,0.04449517586985463,-0.6502047500122261,1835918.0,,,,,1881.235888270522,1877.7028882705222,
115,4,21,f,1,2,107.0,31,1,high,8 + 1 + 1 + 1 - 4,7,8,7,5,1893.3046153000323,1895.3288013000276,1896.8440451000351,1901.8621041000008,1904.3339284000103,1904.333933300048,1905.8504413000192,1906.8677029000248,w,7.0,2.4718243000097573,1,+10,433,-9.67007040949318,-0.10684794198169412,0.40155499602836864,1847991.0,-23.547698540453354,-0.14834298678464153,-0.40130917636117847,1851524.0,,,,,1896.841888270522,1893.3088882705222,
116,4,21,f,1,2,108.0,32,2,low,2 + 1 + 9 - 4 + 1,9,11,9,8,1908.3843545000416,1910.412879200012,1911.928151,1916.945976999996,1917.4779006000024,1917.47790550004,1918.9943939000368,1920.011027200031,w,9.0,0.5319236000068486,1,+1,434,-3.722896197333549,1.119696661529764,13.123479549992544,1863074.0,23.790157340183796,0.39722611504150285,0.23237601528053586,1866607.0,,,,,1911.9248882705222,1908.3918882705223,
117,4,21,f,1,2,109.0,33,2,high,6 + 1 + 1 + 7 - 9,6,4,8,6,1921.5274021000369,1923.555308800016,1925.070375200012,1930.0886522000076,1931.9339237000092,1931.933928900049,1933.4504043000047,1934.467559200013,e,6.0,1.8452715000021271,1,+10,444,-0.5172233298790374,0.1345820396228059,0.09909240444633438,1876217.0,6.06490330422759,0.39909495721532906,-0.1374249966844423,1879750.0,,,,,1925.0678882705222,1921.5348882705223,
118,4,21,f,1,2,110.0,34,2,high,5 - 8 + 7 + 1 + 1,6,6,7,8,1935.9844246000284,1938.0083533000436,1939.5232526000475,1944.5417770000056,1947.0617973000044,1947.0618022000417,1948.5782504000235,1949.5950275000068,e,8.0,2.5200202999985777,0,+0,444,21.846690199731082,-0.2119780114095544,-1.4382884211136604,1890670.0,1.9229165230831455,0.13967296129003337,-0.08798726287004843,1894203.0,,,,,1939.5208882705222,1935.9878882705223,
119,4,21,f,1,2,111.0,35,1,high,4 + 1 + 1 + 7 - 1,12,14,12,13,1951.1119342000457,1953.139046300028,1954.6541753000347,1959.672084500024,1960.3578509000365,1960.3578557000144,1961.8747971000264,1962.8918684000384,w,12.0,0.6857664000126533,1,+10,454,-3.4607846928741566,1.3528229861995693,7.489566109415572,1905800.0,4.755228322786589,0.14762947263117887,-0.07722445368990227,1909334.0,,,,,1954.6518882705222,1951.1178882705221,
120,4,21,f,1,2,112.0,36,2,high,6 + 1 + 7 + 5 - 1,18,18,17,16,1964.409506099997,1966.4375401000143,1967.95275300002,1972.9709672000024,1973.517859500018,1973.5178642999963,1975.034152700042,1976.050848700048,q,18.0,0.5468923000153154,1,+10,464,-23.579543671654548,0.21053524705194215,0.13510200668643169,1919099.0,-13.862587341033722,0.6404602061689504,-0.12078633062445121,1922632.0,,,,,1967.9498882705223,1964.4168882705221,
121,4,21,f,1,2,113.0,37,2,high,8 + 1 + 4 - 7 + 1,7,5,7,6,1977.567243300029,1979.5917996000496,1981.1066893000389,1986.1253828000044,1986.7098876000384,1986.709892600018,1988.2260840000235,1989.2431146000165,w,7.0,0.5845048000337556,1,+10,474,12.339184460180016,-0.21251888206327418,0.7962434738127464,1932253.0,-8.721652379741556,0.1593062529178355,-0.1637002315599596,1935786.0,,,,,1981.1038882705222,1977.5708882705221,
122,4,21,f,1,3,114.0,0,2,low,7 + 6 + 1 + 8 + 1,23,23,22,21,2007.4415153000157,2009.468063200009,2010.9829651000327,2016.0015893999955,2016.5499922000452,2016.549997300026,2018.066154500004,2019.0830334000057,q,23.0,0.5484028000500984,1,+1,475,-3.157264334325964,0.2804777404286929,-2.8710811818283477,1962129.0,17.607890949783524,-0.9129458702842448,-10.32546853895143,1965663.0,,,,,2010.9808882705222,2007.446888270522,
123,4,21,f,1,3,115.0,1,1,low,2 + 9 + 1 + 1 + 1,14,12,14,13,2020.6000020000504,2022.62727560004,2024.1422644000268,2029.160331299994,2029.789902000048,2029.7899067000253,2031.3063412000192,2032.323149200005,w,14.0,0.6295707000535913,1,+1,476,-24.273120973594665,-0.04213557836347892,-0.17017001423474354,1975288.0,-29.961482957231787,0.268002738727795,0.25439014595739784,1978821.0,,,,,2024.138888270522,2020.6058882705222,
124,4,21,f,1,3,116.0,2,3,low,7 - 1 + 8 - 6 + 4,12,13,11,12,2033.840206800029,2035.8676193000283,2037.3829410000471,2042.4017818000284,2043.621950700006,2043.6219558000448,2045.138631400012,2046.1553928000503,e,12.0,1.2201688999775795,1,+1,477,11.089831715108126,0.09154248309597168,-0.02240782045143286,1988528.0,3.511357237861949,-0.04077074524502633,0.3780360408219483,1992063.0,,,,,2037.3808882705223,2033.8458882705222,
125,4,21,f,1,3,117.0,3,2,low,3 + 9 - 1 - 5 + 1,7,5,6,7,2047.6720608000176,2049.698262799997,2051.2133755999967,2056.231609800016,2059.077907900035,2059.0779126000125,2060.594119800022,2061.611264400009,e,7.0,2.8462981000193395,1,+1,478,-3.9267370355968794,-0.21923419579825287,-0.019137242228521867,2002359.0,-19.33214173237473,-0.04288436641278892,0.15762113614525575,2005892.0,,,,,2051.2098882705222,2047.676888270522,
126,4,21,f,1,3,118.0,4,1,high,8 - 1 + 1 + 6 + 1,15,15,14,16,2063.1280546000344,2065.154063399997,2066.6694190000417,2071.6870303000323,2074.062027500011,2074.062032500049,2075.5784212000435,2076.5955880000256,w,14.0,2.3749971999786794,0,+0,478,6.437323204828939,-5.532966777134568,-6.677777183442035,2017815.0,15.279323000705519,0.14269095355755468,0.27613058175938976,2021348.0,,,,,2066.665888270522,2063.132888270522,
127,4,21,f,1,3,119.0,5,1,low,5 + 6 + 1 + 1 + 1,14,14,13,16,2078.112406900036,2080.1391385000315,2081.6548944000388,2086.672434100008,2087.3179070000187,2087.3179124000017,2088.834227300016,2089.851499900047,q,14.0,0.6454729000106454,1,+1,479,-3.402828539637343,-0.10192858894583345,0.3184726730528977,2032800.0,-6.915457882626948,0.026206743062223037,-0.051962040652873576,2036333.0,,,,,2081.650888270522,2078.117888270522,
128,4,21,f,1,3,120.0,6,4,low,5 + 7 - 4 + 6 + 9,23,24,25,23,2091.368101800035,2093.396351500007,2094.9114705999964,2099.9297985000303,2102.885931800003,2102.88593660004,2104.401883100043,2105.418479400046,e,23.0,2.956133299972862,1,+1,480,27.94236231692333,0.24634486362560937,-0.021439500770048525,2046057.0,-21.57170800633877,-0.679754035598652,-11.554106530162942,2049590.0,,,,,2094.907888270522,2091.374888270522,
129,4,21,f,1,3,121.0,7,4,high,2 + 9 - 3 + 5 + 8,21,23,22,21,2106.935518900049,2108.9614968000096,2110.476418700011,2115.49442860001,2116.1659332000418,2116.16593800002,2117.68232110003,2118.6995043000206,e,21.0,0.671504600031767,1,+10,490,-35.72917377103349,-0.27155312837958956,-4.179383226334034,2061622.0,-53.92132675444844,6.656489147159279,4.5922504393740375,2065155.0,,,,,2110.472888270522,2106.939888270522,
130,4,21,f,1,3,122.0,8,3,low,2 + 9 + 1 - 5 + 7,14,14,15,12,2120.216058299993,2122.2401733000297,2123.755317000032,2128.7734642000287,2129.8380819000304,2129.8380873000133,2131.3541490000207,2132.3702511000447,q,14.0,1.0646177000016903,1,+1,491,1.7253179568042052,0.28659076546393125,-3.9298227852033025,2074901.0,5.650306578254926,0.22044845665349477,-0.0441206580799296,2078434.0,,,,,2123.751888270522,2120.218888270522,
131,4,21,f,1,3,123.0,9,2,high,3 + 1 + 8 - 5 - 1,6,7,6,5,2133.8870425000205,2135.914314399997,2137.4295328000444,2142.4481402999954,2142.91001360002,2142.9100187000004,2144.4264990999945,2145.4437902999925,w,6.0,0.4618733000243082,1,+10,501,24.709685287126458,0.2540307663101129,-1.470950150339168,2088575.0,-3.848646827452793,-0.06659878676997444,0.02176963824778122,2092108.0,,,,,2137.425888270522,2133.892888270522,
132,4,21,f,1,3,124.0,10,3,high,5 + 7 + 1 - 4 + 6,15,13,17,15,2146.9602883000043,2148.9882804999943,2150.5029508000007,2155.521274700004,2159.4540661000065,2159.454072099994,2160.9709816999966,2161.988154400024,q,13.0,3.932791400002316,0,+0,501,-84.76337629117643,0.569422330252408,-0.37682017183082994,2101648.0,11.374144791330853,0.30271042879974,0.3353141306742087,2105182.0,,,,,2150.4998882705218,2146.965888270522,
133,4,21,f,1,3,125.0,11,4,low,9 + 3 - 5 + 8 + 6,21,21,23,19,2163.504928300041,2165.5297356999945,2167.044342100038,2172.0625675000483,2172.6619502000394,2172.6619559000246,2174.1783597000176,2175.1952103000367,q,21.0,0.5993826999911107,1,+1,502,42.188447557456975,1.1838505008173126,-6.540682667369924,2118190.0,6.7362240514903835,-0.7528282746892936,0.2985042732023411,2121723.0,,,,,2167.040888270522,2163.507888270522,
134,4,21,f,1,3,126.0,12,4,low,3 + 9 - 4 + 7 + 6,21,19,21,20,2176.711666000017,2178.736842200044,2180.2521755000344,2185.27050100005,2187.110029900039,2187.110035200021,2188.6268920000293,2189.643312600034,w,21.0,1.8395288999890909,1,+1,503,39.218164478087814,0.3726909839019794,-1.2008610777863358,2131396.0,12.86157441290213,7.880554176500361,9.702137163656078,2134931.0,,,,,2180.248888270522,2176.713888270522,
135,4,21,f,1,3,127.0,13,4,high,2 + 9 - 6 + 8 - 4,9,9,7,11,2191.159735399997,2193.1861399000045,2194.7012759000063,2199.720390600036,2202.285978900036,2202.2859840000165,2203.8022675000248,2204.8192338999943,q,9.0,2.565588299999945,1,+10,513,-19.523779612274172,8.114486263281776,14.822682286503401,2145845.0,-8.424162087097663,-0.17492648505894026,-0.0017607015182776742,2149381.0,,,,,2194.698888270522,2191.1628882705218,
136,4,21,f,1,3,128.0,14,2,low,8 + 1 + 7 + 1 - 4,13,14,13,12,2206.3359573000344,2208.362666800036,2209.877859500004,2214.896625399997,2215.9980190000497,2215.998023800028,2217.514316799992,2218.531054900028,w,13.0,1.1013936000526885,1,+1,514,-13.12352170677772,2.1661246604853837,3.790463934217972,2161023.0,-10.19707093810215,-2.258808102266307,0.11759475237902262,2164557.0,,,,,2209.8748882705218,2206.340888270522,
137,4,21,f,1,3,129.0,15,4,high,5 + 8 - 6 + 7 + 4,18,17,19,18,2220.048350700002,2222.0761341000325,2223.591944800049,2228.610383399995,2229.1660653,2229.166070200037,2230.6825754000456,2231.699791499996,e,18.0,0.5556819000048563,1,+10,524,-8.487885392803562,-0.313297660274483,-0.24102852439855038,2174736.0,-25.29617806940986,0.2383422706821805,0.2518116849840242,2178270.0,,,,,2223.587888270522,2220.053888270522,
138,4,21,f,1,3,130.0,16,4,high,5 + 8 - 4 - 6 + 9,12,13,14,12,2233.2163935000426,2235.2418591000023,2236.7568222000264,2241.774697500048,2242.4060837000143,2242.406088899996,2243.922479300003,2244.93961380003,e,12.0,0.631386199966073,1,+10,534,5.381246009389621,0.006710408963514158,-0.22885179183326176,2187902.0,17.25375344860978,0.39809487853113135,0.18231066659845618,2191435.0,,,,,2236.752888270522,2233.219888270522,
139,4,21,f,1,3,131.0,17,1,low,2 + 9 + 1 + 1 + 1,14,12,14,13,2246.4565649,2248.481738900009,2249.9968561000424,2255.014858700044,2255.846033500042,2255.8460382000194,2257.362359700026,2258.379649000009,w,14.0,0.8311747999978252,1,+1,535,-12.01645387196142,-0.08872859829965307,1.1058869725157776,2201142.0,-10.788918304639978,0.2570739698901692,-0.9358874435270792,2204675.0,,,,,2249.992888270522,2246.459888270522,
140,4,21,f,1,3,132.0,18,2,high,3 + 9 + 1 - 5 + 1,9,8,7,9,2259.8964171000407,2261.9236487000016,2263.4388713000226,2268.4567722000065,2268.958042400016,2268.958047399996,2270.474341700028,2271.491836800007,e,9.0,0.5012702000094578,1,+10,545,-4.102661285993989,-0.05650432542409689,0.3706610133709365,2214584.0,2.0049967733149714,0.1599830488145786,0.16544808705408576,2218117.0,,,,,2263.434888270522,2259.901888270522,
141,4,21,f,1,3,133.0,19,3,low,7 - 1 + 8 - 6 + 4,12,13,11,12,2273.00878090004,2275.0345821999945,2276.549497500004,2281.5680601000204,2282.406126500049,2282.4061318000317,2283.9218250000267,2284.9385457000462,e,12.0,0.8380664000287652,1,+1,546,28.835671043168837,6.384500060871089,11.435650468545372,2227694.0,16.46141276732915,-10.66956501349989,-24.349774974222935,2231228.0,,,,,2276.545888270522,2273.011888270522,
142,4,21,f,1,3,134.0,20,2,low,7 + 1 + 9 - 1 - 8,8,7,6,8,2286.455383700028,2288.481109000044,2289.996224500006,2295.014941500034,2296.030047600041,2296.03005250002,2297.546551400039,2298.5633329999982,e,8.0,1.0151061000069603,1,+1,547,46.68954372851202,-0.15982237808463706,-0.6638377985514685,2241141.0,-14.029763136400344,0.07002500463744799,0.2951555570201996,2244674.0,,,,,2289.991888270522,2286.458888270522,
143,4,21,f,1,3,135.0,21,3,high,8 + 6 - 7 + 1 - 4,4,3,5,4,2300.079876600008,2302.107457400009,2303.6226129000424,2308.640862900007,2311.9900735000265,2311.99007900001,2313.5066643000464,2314.523919900006,e,4.0,3.3492106000194326,1,+10,557,-13.325424222751842,-1.53333166536394,-1.6778902137396932,2254767.0,8.971813888329237,-0.24281576826933593,-0.08635343956566333,2258300.0,,,,,2303.617888270522,2300.084888270522,
144,4,21,f,1,3,136.0,22,4,low,6 + 7 + 9 - 3 + 5,24,22,24,23,2316.040491599997,2318.065355200029,2319.5803741000127,2324.5989401999977,2327.998215900036,2327.9982208000147,2329.5147879000288,2330.531880500028,e,23.0,3.3992757000378333,0,+0,557,-0.8754867924045513,0.2748472760688667,-0.8874137840784289,2270725.0,-8.43062693764373,-19.78523756098603,-22.417357313682057,2274258.0,,,,,2319.575888270522,2316.042888270522,
145,4,21,f,1,3,137.0,23,1,low,2 + 1 + 9 + 1 + 1,14,14,12,13,2332.0485809000093,2334.076725199993,2335.592177500017,2340.609942400013,2341.1820275000064,2341.182032400044,2342.6988259000354,2343.715630599996,q,14.0,0.5720850999932736,1,+1,558,16.438830732827398,-0.16270397372231926,-0.9252321125766767,2286736.0,2.0677398179222486,0.18953498216315223,0.2959211856730435,2290270.0,,,,,2335.587888270522,2332.053888270522,
146,4,21,f,1,3,138.0,24,4,low,6 + 9 + 7 - 3 - 5,14,15,14,13,2345.2328749000444,2347.257269900001,2348.7721421000315,2353.791328100022,2355.198154600046,2355.1981599000283,2356.7145798000274,2357.731324299996,w,14.0,1.4068265000241809,1,+1,559,-35.21408997117157,-0.546006623933792,0.18683726988890825,2299917.0,4.386688166201445,0.4439595512110457,0.006519562145183233,2303452.0,,,,,2348.769888270522,2345.234888270522,
147,4,21,f,1,3,139.0,25,4,low,9 + 7 - 5 + 8 + 6,25,25,24,27,2359.248289900017,2361.27108060004,2362.786146700033,2367.804937900044,2368.358036599995,2368.358041400032,2369.8745372000267,2370.891441100044,q,25.0,0.5530986999510787,1,+1,560,3.608382212803992,-0.3676690241201017,0.2123117392000231,2313930.0,0.2260571539517926,0.40700087722438383,5.35176180006696,2317464.0,,,,,2362.781888270522,2359.247888270522,
148,4,21,f,1,3,140.0,26,1,low,6 + 9 + 1 + 1 - 1,16,16,14,15,2372.408166700043,2374.434822200041,2375.949845199997,2380.966995500028,2381.478155700024,2381.4781602000003,2382.994431900035,2384.0114399000304,q,16.0,0.511160199996084,1,+1,561,-4.539882675927778,1.100402153683826,5.232655706591446,2327093.0,11.082454343226892,0.42051568428173036,0.6089954759490603,2330627.0,,,,,2375.944888270522,2372.410888270522,
149,4,21,f,1,3,141.0,27,4,high,5 + 7 - 4 + 8 + 6,22,24,22,23,2385.5760507000377,2387.604769700032,2389.119814200036,2394.1386706000194,2396.2621702000038,2396.2621763999923,2397.778554600023,2398.795446700009,e,23.0,2.123499599983916,0,+0,561,3.7382194011831267,-0.0917626163022014,0.1942335779944777,2340263.0,10.318685462699213,-0.07303690951082098,-0.41048851512533924,2343798.0,,,,,2389.1158882705217,2385.580888270522,
150,4,21,f,1,3,142.0,28,2,high,6 + 1 + 8 + 7 - 1,21,23,19,21,2400.3121487000026,2402.3394632000127,2403.854633800045,2408.872839800024,2411.846119499998,2411.846124600037,2413.3621913000243,2414.37933190004,e,21.0,2.973279699974228,1,+10,571,11.75056158328755,-8.427561234151772,-10.753688802075368,2354999.0,15.601658341458837,0.21877142714783648,-0.5803605240946847,2358532.0,,,,,2403.849888270522,2400.3168882705218,
151,4,21,f,1,3,143.0,29,3,high,3 + 1 + 6 - 8 + 9,11,11,13,12,2415.89658890001,2417.92264470004,2419.4378116000444,2424.4553803000017,2425.0061250000144,2425.006129899993,2426.522435199993,2427.5395621000207,q,11.0,0.5507447000127286,1,+10,581,-2.3214450292249875,-0.2940267264093199,-0.3861549755067042,2370582.0,1.798124691757228,-0.13341168079283428,-0.7138168820325603,2374115.0,,,,,2419.4328882705217,2415.899888270522,
152,4,21,f,1,3,144.0,30,1,high,2 + 1 + 9 + 1 - 1,12,11,13,12,2429.056317700015,2431.0804215000244,2432.595801200019,2437.613958100032,2438.222129300004,2438.2221341000404,2439.738798400038,2440.755975100037,e,12.0,0.6081711999722756,1,+10,591,-43.14018004513527,-0.036400632105063835,0.11595095919277254,2383740.0,12.005171053861215,-0.13613758388824726,0.16006058018591984,2387273.0,,,,,2432.590888270522,2429.0578882705217,
153,4,21,f,1,3,145.0,31,3,high,6 - 1 + 7 - 8 + 9,13,11,12,13,2442.272667200013,2444.2968035000376,2445.811881200003,2450.8302748000133,2454.054250300047,2454.05425570003,2455.5705717999954,2456.587797900021,e,13.0,3.2239755000337027,1,+10,601,-4.309935469432823,-0.45731056967141415,0.1521307717219318,2396956.0,68.32848920822701,0.17483074591908387,-0.23772505993289217,2400489.0,,,,,2445.806888270522,2442.273888270522,
154,4,21,f,1,3,146.0,32,2,high,7 + 5 + 1 - 1 - 8,4,4,2,3,2458.104549300042,2460.1306030999986,2461.6457693999982,2466.6656755000004,2467.806157600018,2467.806162699999,2469.3228766000248,2470.339989500004,q,4.0,1.1404821000178345,1,+10,611,-16.723910126759545,-0.1411859700564495,0.23265530374918564,2412789.0,9.720383938802447,0.49437238485767,0.10402534964654553,2416325.0,,,,,2461.642888270522,2458.106888270522,
155,4,21,f,1,3,147.0,33,3,high,5 + 6 - 4 - 1 + 7,13,14,13,15,2471.8568167000194,2473.883863400028,2475.399152100028,2480.41724650003,2480.9901025000145,2480.9901070000487,2482.506687999994,2483.5246012000134,w,13.0,0.5728559999843128,1,+10,621,5.3526215787974225,0.34493684018964554,1.302559366958833,2426543.0,73.80175393812698,0.3176729133999463,-0.026560277434530377,2430076.0,,,,,2475.393888270522,2471.860888270522,
156,4,21,f,1,3,148.0,34,2,high,5 + 8 + 1 - 1 + 9,22,23,21,22,2485.0409408000414,2487.067589000042,2488.582675200014,2493.601019599999,2497.1190699000144,2497.1190748999943,2498.6358456000453,2499.6528308000416,w,21.0,3.5180503000156023,0,+0,621,-31.178634531820762,-0.3360669770387896,0.28694932479994617,2439726.0,-25.80946466628826,0.28672196215666856,0.08061716612736847,2443260.0,,,,,2488.577888270522,2485.043888270522,
157,4,21,f,1,3,149.0,35,1,high,2 + 1 + 1 + 9 - 1,12,11,12,13,2501.169386300025,2503.193412700028,2504.708621400001,2509.726707199996,2510.2702644999954,2510.2702694000327,2511.7867293000454,2512.803873000026,w,12.0,0.5435572999995202,1,+10,631,-7.1636810389081695,-0.8392263696804214,0.8352921446949573,2455852.0,-21.2080819845938,-0.14115536209674406,0.43712437631889234,2459385.0,,,,,2504.702888270522,2501.169888270522,
158,4,21,f,1,3,150.0,36,3,high,4 + 1 + 8 + 9 - 5,17,18,19,17,2514.3207285000244,2516.3435795000405,2517.8587460000417,2522.8766403000336,2526.8782120000105,2526.87821720005,2528.394512400031,2529.411413800029,e,17.0,4.001571699976921,1,+10,641,-7.8508878832029865,0.13220164976980175,0.012648761950274867,2469002.0,-6.8642745099325,0.08559010821239443,0.18129667002745364,2472535.0,,,,,2517.852888270522,2514.319888270522,
159,4,21,f,1,3,151.0,37,1,high,7 + 1 + 6 + 1 + 1,16,18,16,17,2530.928351800016,2532.952044000034,2534.4672718000365,2539.485858900007,2540.390208400029,2540.39021350001,2541.9178962000296,2542.9353279999923,w,16.0,0.9043495000223628,1,+10,651,35.83795845199322,-2.563886831785256,-16.211084856399303,2485611.0,-6.006605795534844,0.24604119802700852,0.043050876746803635,2489145.0,,,,,2534.462888270522,2530.928888270522,
160,4,21,f,1,4,152.0,0,2,low,6 + 1 + 7 - 8 - 1,5,4,7,5,2554.4818785000243,2556.5080776000395,2558.023710200039,2563.043847199995,2563.6383153000497,2563.638320500031,2565.1549397000344,2566.1819015000365,e,5.0,0.5944681000546552,1,+1,652,-50.181552045887805,-0.38572949610746843,-0.9821019673534317,2509166.0,11.213684611616998,0.11428208124559269,0.05734719315415693,2512702.0,,,,,2558.019888270522,2554.483888270522,
161,4,21,f,1,4,153.0,1,4,high,4 + 7 + 8 - 3 + 9,25,24,25,26,2567.6982318999944,2569.724770700035,2571.240328500048,2576.260681900021,2579.0863477000385,2579.086353700026,2580.602497600019,2581.620077300002,w,25.0,2.8256658000173047,1,+10,662,-36.977918283630615,-0.12301076518838538,-3.4846430327437377,2522383.0,12.86810530982279,-0.480931338530203,-0.6095617030012077,2525919.0,,,,,2571.236888270522,2567.700888270522,
162,4,21,f,1,4,154.0,2,3,high,8 - 1 + 6 - 7 + 5,11,12,11,13,2583.1367544000386,2585.161690500041,2586.677307200036,2591.695215900021,2593.214182100026,2593.2141867000028,2594.730360000045,2595.746775100008,w,11.0,1.5189662000047974,1,+10,672,-9.927986139525137,-0.21734715626379986,-0.1588020325658881,2537820.0,4.972846223102413,0.0669161390852433,-0.029253061358561316,2541354.0,,,,,2586.671888270522,2583.137888270522,
163,4,21,f,1,4,155.0,3,4,low,2 + 9 - 4 + 8 + 7,22,23,22,21,2597.264073099999,2599.291113000014,2600.806239800004,2605.8244265000103,2609.4944057000102,2609.4944107000483,2611.010836200032,2612.027616700041,q,23.0,3.669979199999944,0,+0,672,31.43601833819294,0.21081267060133202,-1.0819428935426911,2551949.0,9.001135551371146,0.08015632682935703,0.1472553736677844,2555483.0,,,,,2600.800888270522,2597.266888270522,
164,4,21,f,1,4,156.0,4,2,high,9 + 1 + 6 + 7 + 1,24,23,25,24,2613.5439635000075,2615.56862570002,2617.0837207000004,2622.1015921999933,2625.062258500024,2625.062265400018,2626.5785543000093,2627.5956051000394,w,25.0,2.960666300030425,0,+0,672,12.315046158824476,0.0301407475642419,-2.3965601799565697,2568227.0,-0.8864517593034265,0.03875215898986051,-1.684178140467882,2571760.0,,,,,2617.077888270522,2613.544888270522,
165,4,21,f,1,4,157.0,5,3,low,3 + 8 - 7 - 1 + 9,12,13,14,12,2629.112250200007,2631.1380982000264,2632.6534283999936,2637.672337500029,2639.334320700029,2639.334325800009,2640.850519300031,2641.867383200035,e,12.0,1.6619831999996677,1,+1,673,72.44192562453931,-2.2831869324387055,1.555234400592008,2583796.0,-1.2578992437690069,-0.6393049837880445,0.08984111537859629,2587330.0,,,,,2632.647888270522,2629.113888270522,
166,4,21,f,1,4,158.0,6,2,high,6 + 1 + 1 + 7 - 9,6,6,4,8,2643.3838398000225,2645.410827600048,2646.9265372999944,2651.94498510001,2652.4782699000207,2652.4782745999983,2653.995064000017,2655.012530100008,q,6.0,0.5332848000107333,1,+10,683,3.609409272249977,0.29880773255396953,-0.12032228638590414,2598069.0,-0.9584656953484352,0.007117918650975774,0.07078580459372175,2601603.0,,,,,2646.920888270522,2643.386888270522,
167,4,21,f,1,4,159.0,7,4,high,8 + 4 + 7 - 5 - 6,8,9,8,7,2656.5290145000326,2658.5553426000406,2660.070568200026,2665.0889188,2667.9022784000263,2667.9022840000107,2669.418816899997,2670.435843200016,q,9.0,2.8133596000261605,0,+0,683,8.118619605327739,-0.504927012230485,-0.17443375681952578,2611213.0,-26.46382294493129,0.2510094165100085,-0.2258209919866072,2614747.0,,,,,2660.064888270522,2656.530888270522,
168,4,21,f,1,4,160.0,8,4,high,4 + 9 - 7 + 8 + 5,19,21,20,19,2671.9526589000016,2673.9789386000484,2675.4939824000467,2680.5123445999925,2683.2304073999985,2683.2304125000373,2684.74683280004,2685.7641452000244,e,19.0,2.7180628000060096,1,+10,693,6.649427141182674,-0.2014384923585224,-0.14056762876379736,2626637.0,-12.597926303057115,0.016600163988766514,-0.0022388061465141718,2630170.0,,,,,2675.487888270522,2671.954888270522,
169,4,21,f,1,4,161.0,9,2,high,9 + 4 - 6 + 1 - 1,7,8,9,7,2687.280634100025,2689.3086708000046,2690.8230683000293,2695.8416542000487,2696.470230200037,2696.470235100016,2697.986679100024,2699.0037103000213,e,7.0,0.628575999988243,1,+10,703,21.597276038504113,1.0905461570051282,-0.5694584775474629,2641966.0,-2.427033828150723,-5.54354911037441,-6.640685134178433,2645499.0,,,,,2690.8168882705218,2687.283888270522,
170,4,21,f,1,4,162.0,10,4,low,8 + 4 + 7 - 5 - 6,8,6,9,8,2700.520791999996,2702.5452674000408,2704.06044000003,2709.078661700012,2710.574287700001,2710.574293000041,2712.0908857000177,2713.10771880002,e,8.0,1.495625999988988,1,+1,704,12.504266458244697,0.34498294011160757,0.4052801188386743,2655203.0,-3.4688994440941325,0.06666738591065746,-0.0809794449858896,2658737.0,,,,,2704.054888270522,2700.520888270522,
171,4,21,f,1,4,163.0,11,3,high,8 + 4 + 1 - 7 + 9,15,16,15,13,2714.6242240000283,2716.649766300048,2718.1655540000065,2723.183540400001,2725.670400200004,2725.6704056000453,2727.1865581000457,2728.203730100009,w,15.0,2.4868598000030038,1,+10,714,-2.9286151013684334,-2.1743605013321843,-0.056102137788842654,2669307.0,12.496918944247877,-0.06965551675397608,-0.004941255561955682,2672841.0,,,,,2718.158888270522,2714.6248882705218,
172,4,21,f,1,4,164.0,12,1,low,3 + 1 + 9 + 1 - 1,13,13,14,12,2729.7204346000217,2731.748901300016,2733.263985000027,2738.281933700025,2738.8943094999995,2738.8943142000358,2740.410682799993,2741.4275709000067,q,13.0,0.612375799973961,1,+1,715,14.820846220903865,0.1841794106400818,0.5419113939326148,2684406.0,-18.0687409687088,-0.1251114355861036,0.14115559026033875,2687939.0,,,,,2733.256888270522,2729.723888270522,
173,4,21,f,1,4,165.0,13,2,low,6 + 1 + 1 + 8 - 9,7,7,5,9,2742.9441717000445,2744.9717254000134,2746.4870337000466,2751.5052989000105,2752.006345300004,2752.0063504000427,2753.522892900044,2754.539879799995,q,7.0,0.5010463999933563,1,+1,716,-65.483670307254,-6.8247160781965,-20.60512918405661,2697630.0,28.82732394846505,-0.003349417069572258,0.4962054343689042,2701163.0,,,,,2746.480888270522,2742.947888270522,
174,4,21,f,1,4,166.0,14,3,high,7 - 6 + 8 + 1 + 7,17,16,17,15,2756.057590900047,2758.0862325000344,2759.601779800025,2764.6204559000325,2765.1424710000283,2765.1424763000105,2766.6589167000493,2767.6764224999934,w,17.0,0.5220150999957696,1,+10,726,9.22932240846806,0.15832847713847276,-0.14726536079585495,2710743.0,23.013543823179383,0.2878550183354003,0.23545190789539294,2714278.0,,,,,2759.5958882705218,2756.060888270522,
175,4,21,f,1,4,167.0,15,1,high,3 + 1 + 1 + 8 - 1,12,14,13,12,2769.193464700016,2771.2175532000256,2772.731851599994,2777.749957300024,2778.2624566000304,2778.262461700011,2779.778437300003,2780.795256700017,e,12.0,0.5124993000063114,1,+10,736,0.9687043697692772,-0.11760185665277101,0.13314615280607267,2723875.0,-16.152753168045408,-0.2863422048420321,-0.2576261292359394,2727407.0,,,,,2772.724888270522,2769.192888270522,
176,4,21,f,1,4,168.0,16,4,low,8 + 4 - 5 + 7 - 6,8,8,6,7,2782.3399342000484,2784.3679404000286,2785.883663900022,2790.901673400018,2793.774495600024,2793.774501600012,2795.2910319000366,2796.307892200013,q,8.0,2.87282220000634,1,+1,737,-11.316829937823577,-2.0631885566802537,-1.0383828950134277,2737025.0,2.1601283122538355,-0.14176350029647633,-0.32031327465945436,2740559.0,,,,,2785.876888270522,2782.342888270522,
177,4,21,f,1,4,169.0,17,3,low,4 + 8 - 3 + 5 - 1,13,13,14,12,2797.8243958000094,2799.8517281000386,2801.3670982000185,2806.3855694000376,2806.870398900006,2806.8704038000437,2808.386642800004,2809.403475400002,q,13.0,0.4848294999683276,1,+1,738,27.698090096813374,0.7382962234456185,-0.05818844546439905,2752509.0,12.929598530924101,0.4465046275723332,-0.22745985779678524,2756043.0,,,,,2801.360888270522,2797.826888270522,
178,4,21,f,1,4,170.0,18,1,low,3 + 1 + 8 + 1 + 1,14,14,13,16,2810.91977940005,2812.946873400011,2814.461803400016,2819.4811912000296,2820.0464790000115,2820.0464843999944,2821.5624239000026,2822.579025300045,q,14.0,0.5652877999818884,1,+1,739,23.314207040054598,-0.05835715915711326,0.36481778521509156,2765604.0,4.908056265955871,0.022174142357814564,0.1967939893696955,2769138.0,,,,,2814.455888270522,2810.921888270522,
179,4,21,f,1,4,171.0,19,2,high,9 + 6 + 1 + 7 + 1,24,25,24,23,2824.095703400031,2826.1235715000075,2827.6387441999977,2832.6564836000325,2833.9744659000426,2833.9744709000224,2835.490959500021,2836.5080711000483,w,24.0,1.317982300010044,1,+10,749,5.633875234091968,0.019320632362518797,0.3559745750208845,2778781.0,-6.706141925467895,-0.08765127751001645,-0.1902796879274895,2782314.0,,,,,2827.631888270522,2824.098888270522,
180,4,21,f,1,4,172.0,20,4,low,3 + 9 - 5 + 6 + 8,21,21,23,22,2838.0246704000165,2840.0481276999926,2841.5628485000343,2846.580280299997,2850.4145153000136,2850.414520299993,2851.930862200039,2852.94760340004,q,21.0,3.8342350000166334,1,+1,750,-9.183463610621057,0.14093376267560886,-0.4045991821606032,2792705.0,15.407430375522283,-0.058434431456232616,-0.3507567175223891,2796238.0,,,,,2841.555888270522,2838.022888270522,
181,4,21,f,1,4,173.0,21,2,low,3 - 1 + 9 - 5 + 1,7,6,5,7,2854.4639903000207,2856.491756100033,2858.006779999996,2863.025160700025,2865.030475000036,2865.030480300018,2866.547322700033,2867.56364030001,e,7.0,2.005314300011378,1,+1,751,-6.115965029925814,-11.728638190226935,-26.719956411353,2809149.0,21.828060979060822,-0.031745475713231386,0.16522149656563911,2812682.0,,,,,2857.9998882705218,2854.466888270522,
182,4,21,f,1,4,174.0,22,2,low,4 + 9 - 7 + 1 - 1,6,6,5,8,2869.0804877000046,2871.10612880002,2872.620789500012,2877.638538900006,2878.9584426000365,2878.9584479000187,2880.4756015000166,2881.4919084000285,q,6.0,1.3199037000304088,1,+1,752,9.679703303820755,0.048626691076002704,-0.07197390139909121,2823762.0,-10.836055243350994,-0.03627380010447867,0.4706603944985899,2827296.0,,,,,2872.613888270522,2869.079888270522,
183,4,21,f,1,4,175.0,23,1,low,6 + 1 + 8 + 1 + 1,17,17,16,15,2883.0084676000406,2885.0365423000185,2886.5523508000188,2891.570910000009,2892.5424454000317,2892.5424516000203,2894.058858500037,2895.0762507000472,q,17.0,0.9715354000218211,1,+1,753,47.57496818349635,0.1502036827226787,0.7650815643907278,2837694.0,3.7222143512319015,-0.15272747505743345,-0.5762448457852201,2841227.0,,,,,2886.544888270522,2883.011888270522,
184,4,21,f,1,4,176.0,24,1,high,8 + 1 + 4 + 1 + 1,15,15,14,16,2896.5928661000216,2898.6207659000065,2900.135527700011,2905.1531977000413,2905.6784596000216,2905.6784644,2907.1947478000075,2908.211891700048,q,15.0,0.5252618999802507,1,+10,763,4.780447133080447,-0.010852133566750854,-0.6896831841222877,2851278.0,12.214275231462988,-0.05765009882157113,-0.18979441835290967,2854810.0,,,,,2900.127888270522,2896.5958882705218,
185,4,21,f,1,4,177.0,25,3,high,5 - 1 - 4 + 6 + 7,13,15,14,13,2909.7285828000167,2911.753160800028,2913.26827890001,2918.287271500041,2919.814491600031,2919.8144968000124,2921.330465200008,2922.347667000024,e,13.0,1.5272200999897905,1,+10,773,7.298860478883984,0.016120148805397694,-0.036885540446307985,2864410.0,8.763643109666273,-0.0801490217641172,-0.25747804800102925,2867944.0,,,,,2913.261888270522,2909.727888270522,
186,4,21,f,1,4,178.0,26,2,low,7 + 5 + 1 + 9 + 1,23,23,21,22,2923.8641401000204,2925.8900593,2927.404934399994,2932.422625700012,2933.0703628000338,2933.070367500012,2934.58672750002,2935.6036173000466,e,22.0,0.6477371000219136,0,+0,773,71.2220944188979,2.9180799636359285,4.835607789566115,2878547.0,-11.42833467956996,2.6199735677828726,5.692118893081899,2882079.0,,,,,2927.396888270522,2923.864888270522,
187,4,21,f,1,4,179.0,27,1,low,5 + 9 - 1 + 1 + 1,15,13,17,15,2937.1209764000378,2939.1457688999944,2940.660987900046,2945.6789995,2946.334599599999,2946.3346049000397,2947.8506099000224,2948.8673544000485,e,15.0,0.6556000999989919,1,+1,774,-18.55237415105711,0.37994603735381594,0.013615862965634218,2891803.0,-13.854310851534583,0.07123921055720439,0.7456908530802544,2895335.0,,,,,2940.652888270522,2937.120888270522,
188,4,21,f,1,4,180.0,28,3,high,8 + 5 + 1 - 7 + 9,16,17,14,16,2950.384176200023,2952.410259200027,2953.925123699999,2958.9434485000093,2961.2385117000085,2961.238517199992,2962.7549641000223,2963.771847600001,e,16.0,2.2950631999992765,1,+10,784,-17.18243286634205,2.546962223804912,-1.9077093071200135,2905067.0,-10.079567993840406,5.470066035860854,7.0160240954713755,2908600.0,,,,,2953.917888270522,2950.384888270522,
189,4,21,f,1,4,181.0,29,1,low,7 - 1 + 8 + 1 - 1,14,14,13,12,2965.28796830005,2967.31459720002,2968.829654900008,2973.8477545000496,2974.3264135000063,2974.3264180000406,2975.8426287000184,2976.860012500023,e,12.0,0.4786589999566786,0,+0,784,7.778945426743553,-0.9639568732116417,-1.0618701058622086,2919971.0,8.868577196036753,-0.17495934823026005,-0.040932266352912805,2923505.0,,,,,2968.822888270522,2965.288888270522,
190,4,21,f,1,4,182.0,30,4,low,8 + 7 - 4 + 5 + 9,25,26,24,25,2978.377010199998,2980.402836100024,2981.91811030003,2986.936197000032,2988.1265649000416,2988.126570100023,2989.6428917000303,2990.659517800028,e,25.0,1.1903679000097327,1,+1,785,-4.571372421424655,0.22390594973006817,0.3330395999985325,2933059.0,7.908774030504299,0.307652490353592,0.32872676692493474,2936593.0,,,,,2981.910888270522,2978.376888270522,
191,4,21,f,1,4,183.0,31,3,high,5 + 6 - 4 - 1 + 8,14,16,14,15,2992.1759345000028,2994.203663900029,2995.718820400012,3000.736980100046,3002.350509000011,3002.350513900048,3003.8671407999936,3004.884348399996,w,14.0,1.6135288999648765,1,+10,795,-23.439108654240272,0.26339306691668085,-0.06667717495299552,2946860.0,-11.363504053323886,0.050465700994857254,0.48089641487311896,2950393.0,,,,,2995.710888270522,2992.177888270522,
192,4,21,f,1,4,184.0,32,1,high,7 - 1 + 9 + 1 - 1,15,14,15,13,3006.4010898999986,3008.4245561000425,3009.939692899992,3014.9580197000178,3015.5265393000445,3015.526544500026,3017.04304020002,3018.0610930999974,w,15.0,0.5685196000267752,1,+10,805,5.211663199093719,-0.36220311747793943,-0.012073756468799601,2961081.0,12.379774037588625,-0.06253554076454781,0.24928678044913077,2964614.0,,,,,3009.931888270522,3006.398888270522,
193,4,21,f,1,4,185.0,33,3,high,6 + 7 + 8 + 1 - 9,13,15,13,14,3019.578125800006,3021.6046058000065,3023.1199660000275,3028.138118700008,3031.142511700047,3031.142517500033,3032.6584556000307,3033.675091900048,w,13.0,3.004393000039272,1,+10,815,11.619467037178818,0.06334830897180588,-0.3231105979843967,2974261.0,5.7641930843301346,0.41372931528304413,0.3150743470252124,2977795.0,,,,,3023.112888270522,3019.578888270522,
194,4,21,f,1,4,186.0,34,3,low,5 + 1 + 7 - 8 + 6,11,9,13,11,3035.1917527000187,3037.217896700022,3038.733102800033,3043.751440700027,3044.4384936999995,3044.4384987000376,3045.955033300037,3046.9717631000094,e,11.0,0.6870529999723658,1,+1,816,-1.9377706068404237,3.4530334468844224,3.881434543339765,2989874.0,-12.467991490151196,0.8752975074985114,1.1641762333390595,2993408.0,,,,,3038.725888270522,3035.1918882705218,
195,4,21,f,1,4,187.0,35,3,low,6 - 1 + 7 - 8 + 9,13,12,13,11,3048.488163700036,3050.5139109000447,3052.028824100038,3057.047473100014,3060.110587400035,3060.110592500016,3061.626861000026,3062.643712100049,w,13.0,3.0631143000209704,1,+1,817,-15.307314104451498,3.5119186548507826,4.201226300145127,3003171.0,4.6053739199177155,-0.11166656746456916,-0.0027577272006884535,3006703.0,,,,,3052.020888270522,3048.488888270522,
196,4,21,f,1,4,188.0,36,3,low,2 + 9 - 3 + 4 + 1,13,14,13,11,3064.1605033000237,3066.1857523000217,3067.700886700012,3072.72002030001,3073.279413600045,3073.279418900027,3074.795686800033,3075.812556900026,w,13.0,0.5593933000345714,1,+1,818,4.993084290968271,-2.9628363712830716,-4.773829944904636,3018842.0,9.181193244902545,-0.2002546717120013,0.01615586698303373,3022375.0,,,,,3067.692888270522,3064.159888270522,
197,4,21,f,1,4,189.0,37,3,high,6 + 1 + 8 + 7 - 9,13,13,14,15,3077.329146800039,3079.3540390999988,3080.869053000002,3085.8874769000104,3089.622630800004,3089.622636000044,3091.139550300024,3092.1567481000093,w,14.0,3.735153899993748,0,+0,818,-12.796369335698037,-2.112420429091433,-3.443253507081306,3032010.0,-22.89146943824363,-0.11186091525628727,0.23654074937292258,3035544.0,,,,,3080.861888270522,3077.327888270522,
198,4,21,f,1,5,190.0,0,3,low,6 - 1 + 7 - 8 + 9,13,12,13,11,3105.538915800047,3107.5640371000045,3109.0789219000144,3114.09875330003,3115.942597400048,3115.9426025000284,3117.459235600021,3118.476153000025,w,13.0,1.843844100018032,1,+1,819,-14.87891132208266,0.05855863621566382,11.510663097237808,3060220.0,21.7362771776835,-1.5464205642402895,-1.734764446889634,3063755.0,,,,,3109.072888270522,3105.5378882705218,
199,4,21,f,1,5,191.0,1,1,high,8 + 1 + 1 + 1 - 3,8,8,9,6,3119.99267430004,3122.017927900015,3123.533248200023,3128.5512539000483,3129.0065688000177,3129.0065741,3130.5228860000498,3131.540121500031,q,8.0,0.4553148999693803,1,+10,829,5.187649014787233,0.04680894443819916,0.013591618461438637,3074674.0,10.750365011415454,0.02275217471020019,0.2511525375858277,3078207.0,,,,,3123.524888270522,3119.991888270522,
