,id,age,sex,cued,block,trial,trialinblock,efflev,rewlev,calc,corAns,option1,option2,option3,tstart,ITI1Time,probTime,respTime,selectTime,ITI2Time,fbTime,ITI3Time,key_press,chosenAns,RT,acc,feedback,total_points,cuescr,cuecor,cuezyg,cuetime,probscr,probcor,probzyg,probtime,fbscr,fbcor,fbzyg,fbtime,probtime_c,cuetime_c,fbtime_c
0,50,21,f,0,Practice,,0,1,0,4 + 1 + 9 + 1 + 1,16,16,14,15,31.082606099997065,,31.082608299999265,36.15830319999077,36.99896019999869,36.99896630000149,38.5160584999976,39.537823199993,q,16,0.8406570000079228,1,Correct,0,,,,,14.8032219048305,0.4123306739442829,0.08181176779389521,29370.0,9.695622368913359,-1.736769153680538,0.6351355002734342,36750.0,31.142838358496753,,38.52283835849675
1,50,21,f,0,Practice,,1,1,0,3 + 1 + 1 + 8 - 1,12,11,12,10,41.054656099993736,,41.05465939998976,46.07638899999438,46.72707829999854,46.72708430000057,48.24418120000337,49.26207489999069,w,12,0.65068930000416,1,Correct,0,,,,,14.00434814346713,0.12695595640181523,0.7250778825292152,39288.0,30.7374860810621,0.3951418527529247,0.12836178823796596,46474.0,41.060838358496746,,48.246838358496746
2,50,21,f,0,Practice,,2,2,0,8 + 1 + 6 + 1 - 4,12,12,11,10,50.779422499996144,,50.77942939999048,55.79898249999678,56.446784999992815,56.44679109999561,57.96371860000363,58.98182739999902,q,12,0.6478024999960326,1,Correct,0,,,,,8.434766110959483,0.5765086650435194,-1.3192376417847451,49011.0,10.590897659201545,0.20480291277978413,0.26323200341355957,56194.0,50.78383835849675,,57.96683835849675
3,50,21,f,0,Practice,,3,2,0,9 + 4 - 6 + 1 - 1,7,6,7,5,60.49949750000087,,60.49950069999613,65.51953029999277,67.28678559999389,67.28679109999212,68.80350539999199,69.82056079999893,w,7,1.7672553000011249,1,Correct,0,,,,,15.182769970217217,-0.2661543767390344,0.18260742449437561,58731.0,-6.562024325657932,0.7371817218007211,-1.8576425590070267,67033.0,60.50383835849675,,68.80583835849676
4,50,21,f,0,Practice,,4,3,0,9 + 3 - 5 + 6 + 7,20,22,21,20,71.33737929999188,,71.33738240000093,76.35690539999632,78.73478400000022,78.73478980000073,80.25117249999312,81.28077840000333,q,22,2.3778786000038963,0,Incorrect,0,,,,,-43.47383878607034,0.09204237808450833,-1.789350531898811,69568.0,-18.039118428492646,0.42778276270152227,12.516262883021632,78493.0,71.34083835849675,,80.26583835849675
5,50,21,f,0,Practice,,5,3,0,2 + 1 + 9 - 7 + 6,11,9,11,10,82.79773079999723,,82.79773399999249,87.81722569999692,88.63091880000138,88.63092470000265,90.14798929999232,91.1663389000023,e,10,0.8136931000044569,0,Incorrect,0,,,,,5.052707898782107,0.17073815939388903,-2.790623398894798,81028.0,9.58191616922948,-0.2448120858563274,1.1689248348937697,88378.0,82.80083835849676,,90.15083835849676
6,50,21,f,0,Practice,,6,4,0,4 + 8 + 5 - 3 + 7,21,21,22,23,92.6835917999997,,92.6835948999942,97.7038648000016,101.0629029999982,101.06290889999946,102.5800933999999,103.59823160000089,w,22,3.359038199996576,0,Incorrect,0,,,,,6.947634832699009,0.3905049116733663,-0.8062546483330006,90916.0,29.17725621762446,0.7797368899822437,16.577394465253185,100810.0,92.68883835849675,,102.58283835849676
7,50,21,f,0,Practice,,7,4,0,5 + 8 - 4 + 6 + 9,24,22,24,23,105.11553619999904,,105.11553959999584,110.13563720000091,112.87094069999876,112.87094710000385,114.38807780000208,115.40627739999036,w,24,2.7353034999978263,1,Correct,0,,,,,-1.8522067831063325,0.5139448202346137,-5.80174499712183,103347.0,-10.244473169836425,0.631236649478724,-1.1352657508334456,112618.0,105.11983835849675,,114.39083835849675
8,50,21,f,1,0,0.0,0,1,low,2 + 1 + 9 + 1 - 1,12,11,12,13,176.95633689999522,178.98238269999274,180.49766329998965,185.51596449999488,186.14026309999463,186.1402681999898,187.65690799998995,188.6740415999957,w,12,0.6242985999997472,1,+1,1,4.973069316475789,0.570892834489062,-7.63851437667593,175194.0,-25.332033865980286,0.29380070309318285,-16.16011979747218,178727.0,-22.797886016457902,0.5994403909657322,-0.9588598552550618,185885.0,180.49983835849676,176.96683835849674,187.65783835849675
9,50,21,f,1,0,1.0,1,1,high,7 + 1 + 5 + 1 - 1,13,14,13,12,190.19158250000328,192.25715799999307,193.7723174999992,198.79050730000017,199.79631869999864,199.7963244999992,201.312981199997,202.33059949999733,w,13,1.0058113999984926,1,+10,11,-1.1302452496896502,0.11211240284065438,-0.4049710719172941,188469.0,6.578640061715649,0.20707160946641467,0.4110187803973204,192002.0,-32.64603361259121,-0.5575728399537883,-3.4130655517891384,199542.0,193.77483835849677,190.24183835849675,201.31483835849676
10,50,21,f,1,0,2.0,2,2,high,4 + 8 + 1 + 1 - 5,9,11,9,8,203.84714030000032,205.89646879999785,207.4118216999923,212.42998200000147,212.9642540999921,212.96425959999036,214.4808961999952,215.4981528999924,w,9,0.5342720999906305,1,+10,21,-5.175963250098231,0.33346744593216715,-3.3648564883506076,202108.0,16.326885580959132,0.4288728566631008,-0.08560089158580464,205641.0,26.50305466121173,0.10315635296992953,1.091748072320243,212710.0,207.41383835849675,203.88083835849676,214.48283835849676
11,50,21,f,1,0,3.0,3,2,high,9 + 6 + 1 + 7 + 1,24,24,23,25,217.0148369999952,219.0389060000016,220.55429059999005,225.57304499999736,227.8923560999974,227.8923617999972,229.4089647999936,230.42650069999215,q,24,2.31931110000005,1,+10,31,-16.397883512395612,0.07472152920426645,-0.5709456367152974,215250.0,-2.050644753250671,0.15576572107746722,-0.6374641584431187,218784.0,-12.716031181811548,0.2585827844357098,0.09209308858810683,227638.0,220.55683835849675,217.02283835849676,229.41083835849676
12,50,21,f,1,0,4.0,4,1,low,8 + 1 + 1 + 1 - 4,7,8,5,7,231.9432834000036,233.96979920000007,235.4845692999952,240.50281829999585,241.8362491000007,241.8362549000012,243.3528920999961,244.36975879999227,e,7,1.3334308000048622,1,+1,32,29.335249824825503,0.24034742130153042,-1.2526239752587278,230182.0,-12.780022523077447,-0.062388595774533595,-1.024077623659481,233714.0,5.531187744273306,0.21680853785841547,-0.30105452983123193,241581.0,235.48683835849675,231.95483835849674,243.35383835849674
13,50,21,f,1,0,5.0,5,1,high,7 - 1 + 9 + 1 - 1,15,13,15,14,245.8868555999943,247.9153243999899,249.43031250000055,254.44883670000127,255.3001699000015,255.3001753999997,256.8168816999969,257.8342379999958,w,15,0.8513332000002265,1,+10,42,-5.273301343743217,0.30460961709373535,0.7225467721639074,244126.0,-17.908184205412148,0.38292117731932107,-0.35596347645751614,247660.0,8.751678628447781,-0.12079188464118218,-0.37992287685592885,255045.0,249.43283835849675,245.89883835849676,256.8178383584967
14,50,21,f,1,0,6.0,6,1,high,7 + 1 + 6 + 1 + 1,16,17,16,18,259.35146059999533,261.3757439000037,262.89170949999243,267.9111647999962,268.4202140999987,268.4202195999969,269.93688139998994,270.9543590999965,w,16,0.5090493000025162,1,+10,52,4.146541432057312,0.6678361486172348,1.2698090797776844,257587.0,39.963818435128154,-0.21234355786925985,-0.33488620725012463,261122.0,8.144657284453427,0.1201660088927885,-0.6415122273511091,268166.0,262.89483835849677,259.35983835849675,269.93883835849675
15,50,21,f,1,0,7.0,7,4,high,5 + 7 - 4 - 6 + 9,11,13,12,11,272.47094339999603,274.5446888000006,276.05991070000164,281.0787680999929,283.6441194999934,283.6441250999924,285.1608025000023,286.1780897999997,e,11,2.565351400000509,1,+10,62,28.440413075520457,0.37121363739376,0.582413078135442,270756.0,23.853079505608807,-0.058037988883637315,-0.886277760235787,274290.0,19.714904647876054,0.11525338380331096,-0.12989259071788872,283389.0,276.0628383584968,272.5288383584967,285.16183835849677
16,50,21,f,1,0,8.0,8,3,high,3 + 1 + 8 - 5 + 6,13,14,13,15,287.6949716999952,289.7236686999968,291.2390058000019,296.25727459999325,297.22010949999094,297.2201148000022,298.7367493999918,299.7540980999911,w,13,0.962834899997688,1,+10,72,-43.843893838295116,-0.03578100952073271,1.019345398303721,285935.0,-43.35172566565156,0.1983238417927482,-0.6111527551714282,289469.0,-0.19739231002593627,0.22851811884098083,0.34114750555819207,296965.0,291.24183835849675,287.70783835849676,298.73783835849673
17,50,21,f,1,0,9.0,9,3,high,8 + 3 + 1 - 7 + 9,14,15,12,14,301.2709659999964,303.29323339999246,304.8085105999926,309.8276232999924,311.85209600000235,311.8521138999931,313.3687515999918,314.38661899999715,e,14,2.0244727000099374,1,+10,82,-3.99883150719731,0.059941168037187964,0.16154802723993544,299505.0,9.604370075333792,0.29123252546974454,-0.1488041014827619,303039.0,8.087632330603807,-0.085487016401248,-0.8491075357217288,311597.0,304.81183835849674,301.27783835849675,313.36983835849674
18,50,21,f,1,0,10.0,10,3,low,5 + 6 - 4 - 1 + 7,13,13,14,15,315.90344809999806,317.9436041000008,319.4596001000027,324.47834950000106,325.3400699999911,325.34007510000083,326.85654290000093,327.87336489999143,q,13,0.8617204999900423,1,+1,83,6.537020569677807,0.38205472597905876,0.29715749747140086,314155.0,-12.268110084361929,0.3517052162760317,0.020851047312550275,317689.0,-87.37701489775571,-0.18798004952119474,0.5397680801255751,325084.0,319.4618383584968,315.92783835849673,326.85683835849676
19,50,21,f,1,0,11.0,11,1,high,2 + 1 + 9 + 1 - 1,12,11,13,12,329.3901477999898,331.413129099994,332.928396599993,337.94731659999525,338.89210689999163,338.8921127999929,340.40905029998976,341.4269060999941,e,12,0.9447902999963844,1,+10,93,-99.50487466633484,0.10419833720948724,0.18795137898515346,327624.0,-2.139081988685008,0.4187945446227297,-1.76095813270888,331158.0,24.667650751598032,-0.16637808893253547,0.2593266033364996,338637.0,332.93083835849677,329.3968383584968,340.40983835849676
20,50,21,f,1,0,12.0,12,1,high,4 + 8 + 1 - 1 - 1,11,9,11,13,342.94360079999024,344.9662377999921,346.4811680999992,351.5000597999897,353.74005469999975,353.7400602999988,355.2566827999981,356.27395350000006,e,13,2.2399949000100605,0,+0,93,0.699244751472369,0.09620007646805284,0.6915028088384929,341178.0,20.009136116520644,0.40793502794946024,0.46532014648668607,344711.0,-10.644726255588724,-0.036487637685111096,-0.4647240512567654,366884.0,346.48383835849677,342.95083835849675,368.65683835849677
21,50,21,f,1,0,13.0,13,1,low,6 + 9 + 1 + 1 - 1,16,16,15,14,357.7908585999976,359.8145055999921,361.3297569999995,366.3479549999902,367.14016149999225,367.14016699999047,368.65620070000296,369.6731756999943,q,16,0.7922065000020666,1,+1,94,7.122188620509698,0.39545035502699744,-0.6090997493884514,356026.0,19.945517891997607,-0.07609637049196927,0.5811829828028459,359559.0,-9.620146885612884,0.2950415671426745,0.40535764779403216,393468.0,361.3318383584968,357.79883835849677,395.2408383584968
22,50,21,f,1,0,14.0,14,1,low,3 + 1 + 1 + 8 - 1,12,13,14,12,371.1900682999985,373.2121785999916,374.72748799998953,379.7456302999926,380.4280351999914,380.4280406999897,381.9447233999963,382.9615996999928,q,13,0.6824048999988008,0,+0,94,49.892202715650185,0.09573201255320507,0.7184840431784396,369423.0,-1.0927429659490304,0.2682486158510331,0.6932113393834656,372957.0,36.03077290402436,0.06767678212677186,-0.33408474738756855,420477.0,374.72983835849675,371.19583835849676,422.24983835849673
23,50,21,f,1,0,15.0,15,1,low,6 + 1 + 1 + 9 - 1,16,14,16,15,384.4783823000034,386.5004226000019,388.0157409999956,393.0347397000005,393.7239704999956,393.7239754999901,395.2405033999967,396.2575109000026,w,16,0.6892307999951299,1,+1,95,2.4244302617432325,0.334108274168083,-0.33371893045711065,382712.0,1.304053374345159,0.1796019238091553,-0.006908780207270482,386246.0,17.958448390020596,0.45566467563191093,-3.0733269278540325,461332.0,388.01883835849674,384.48483835849675,463.10483835849675
24,50,21,f,1,0,16.0,16,2,low,2 + 9 + 1 + 1 - 5,8,7,6,8,397.7743152000039,399.8538230999984,401.36892959999386,406.38724869998987,407.4999963000009,407.5000018999999,409.0165319999942,410.03345789999,e,8,1.112747600011062,1,+1,96,-46.00578354114777,0.34272268769762526,0.3702670090342304,396065.0,0.43646130768624936,0.12916261346462177,-0.29187041743452724,399598.0,14.62909070705454,0.03324405932031915,-0.34775777400399877,407244.0,401.37083835849677,397.83783835849675,409.0168383584968
25,50,21,f,1,0,17.0,17,1,high,8 + 1 + 5 + 1 + 1,16,17,16,15,411.5504887999996,413.57835660000273,415.09348450000107,420.11196909999126,420.7319818999968,420.7319870999927,422.2485936000012,423.26577289999113,w,16,0.6200128000054974,1,+10,106,-4.37121103836521,0.016240830495035663,-0.38539626926098514,409789.0,5.041344443067054,0.3420664997523257,0.20651812538483805,413323.0,6.165339337709529,0.6938874050113584,-0.48996921539319205,571812.0,415.09583835849674,411.56183835849674,573.5848383584968
26,50,21,f,1,0,18.0,18,2,low,9 + 4 - 6 + 1 - 1,7,7,8,9,424.7827454999933,426.80920059999335,428.3246371999994,433.3440947999916,435.0279950999975,435.0280007999973,436.5444640999922,437.5621533999947,e,9,1.6839003000059165,0,+0,106,-0.03659648725525955,0.15928382197190372,1.520465322716436,423020.0,-6.324424849030198,0.6916986518876151,0.16629654283702244,426555.0,0.4519041117396103,-0.146947660598713,0.1711048978557228,502628.0,428.32783835849676,424.79283835849674,504.40083835849674
27,50,21,f,1,0,19.0,19,4,high,5 + 8 - 6 + 7 + 4,18,18,17,19,439.0788695999945,441.10709479999787,442.6222736999917,447.6407799000008,448.26785499999824,448.2678602999949,449.7848221000022,450.80230409999785,q,18,0.6270750999974553,1,+10,116,-8.31246883643686,0.0769519497641582,0.37619809798162507,437318.0,-1.9392457981658016,0.07038156599333556,0.6396088129471287,440852.0,-0.8839736987222189,0.330120629153269,0.3701013586119166,448013.0,442.62483835849673,439.09083835849674,449.78583835849673
28,50,21,f,1,0,20.0,20,1,low,3 + 1 + 8 - 1 + 1,12,13,12,10,452.319653700004,454.34552339999937,455.86087039999256,460.88019349999377,461.5879487999919,461.5879547999939,463.1041643999925,464.12038649999886,w,12,0.707755299998098,1,+1,117,6.867149654925544,-0.012808171360114695,-0.15397678204299803,450557.0,22.63034081552813,0.3613518927314452,-0.24289118249060548,454091.0,31.709879756522444,0.2516985041809878,-0.9760279222404034,613652.0,455.86383835849676,452.3298383584968,615.4248383584968
29,50,21,f,1,0,21.0,21,3,high,7 - 1 + 8 - 6 + 4,12,11,12,13,465.637587899997,467.6643458999897,469.1796881999908,474.1986565999978,476.4039882999932,476.4039935999899,477.9206367000006,478.9379883999936,q,11,2.2053316999954404,0,+0,117,14.784808796416542,0.20021976743352,0.10283891382790245,463875.0,18.89342750968197,0.33475758718789983,0.11998296572811196,467409.0,-12.523950840643282,-0.13027220607222478,-0.16031275740599238,489461.0,469.18183835849675,465.64783835849676,491.23383835849677
30,50,21,f,1,0,22.0,22,3,low,2 + 1 + 9 - 5 + 6,13,14,11,13,480.4547297999961,482.4786431999965,483.9939665999991,489.0125924000022,489.7158461999934,489.7158522999962,491.2330673999968,492.25013220000255,e,13,0.7032537999912165,1,+1,118,14.217499060712191,0.2166483609529224,-0.7704206487157448,478689.0,23.73935091834226,-0.04883117406598725,-0.6601480057477884,482223.0,2.8622989052017402,-0.29755452018319994,3.060587007389156,530780.0,483.99583835849677,480.4618383584968,532.5528383584967
31,50,21,f,1,0,23.0,23,2,low,6 + 1 + 8 + 5 - 1,19,19,18,17,493.76752329999,495.7922952999943,497.3069796999917,502.3264291999949,502.8838709999982,502.8838761999941,504.4003020999953,505.4169268999976,q,19,0.5574418000032892,1,+1,119,-21.012051675261798,0.15826775139460736,-1.2689591534888125,492003.0,-1.9719644144828443,-0.09778318577586331,-0.15565446384009274,495537.0,25.18614871767615,0.1397620659811145,-0.026370164707161692,545244.0,497.30983835849673,493.77583835849674,547.0168383584968
32,50,21,f,1,0,24.0,24,3,low,9 + 3 - 4 + 6 + 7,21,23,22,21,506.933686999997,508.9606072000024,510.4762976999919,515.4949233999941,517.5637629999983,517.563768299995,519.0807171999913,520.0979411000008,w,22,2.06883960000414,0,+0,119,9.006156899908163,0.13221532783154544,0.6520741869486333,505171.0,23.413325463219497,0.3859035015674306,-0.7819620345766038,508706.0,-1.8488891812370252,0.16713056723647535,-1.5539071972147154,558484.0,510.4788383584968,506.94383835849675,560.2568383584968
33,50,21,f,1,0,25.0,25,3,high,9 - 1 + 5 - 6 + 8,15,14,17,15,521.614653800003,523.6387123000022,525.1539200999978,530.1718374999909,531.0358522000024,531.0358578000014,532.5524306000007,533.5693659999961,e,15,0.8640147000114666,1,+10,129,2.081627430734275,-0.057304055626163475,-0.05532487736199787,519849.0,-14.803614725070425,-0.07711173264613969,0.3801390920632777,523383.0,22.84442375044463,0.2404889058796691,-0.15833083966923267,701379.0,525.1558383584968,521.6218383584968,703.1518383584968
34,50,21,f,1,0,26.0,26,2,high,6 + 1 + 1 + 8 - 9,7,9,7,5,535.0862353999983,537.1130416999949,538.6283078999986,543.6463235999981,545.4997542999918,545.4997594000015,547.016535799994,548.033729200004,w,7,1.8534306999936236,1,+10,139,2.8147271532261993,1.3211481984953415,0.37703941325021617,533323.0,15.632587305477113,-0.11973022102392417,-0.3998534673270542,536857.0,9.456410891458695,-0.1973733101584223,-0.1608089238660444,629428.0,538.6298383584967,535.0958383584967,631.2008383584968
35,50,21,f,1,0,27.0,27,3,low,8 - 1 + 6 - 7 + 5,11,13,12,11,549.5499263999955,551.5770494000026,553.0924284999928,558.1110491,558.7397318000003,558.7397372999985,560.2563187999913,561.2739769999898,e,11,0.6286827000003541,1,+1,140,-33.62680239915431,0.5770436378616277,0.5480369794505697,547787.0,9.046410689143112,-0.2659188165979449,-0.36013640557004045,551322.0,14.7377744882719,-0.13729007392260728,-0.1609036727363442,801491.0,553.0948383584968,549.5598383584968,803.2638383584967
36,50,21,f,1,0,28.0,28,1,low,4 + 7 + 1 - 1 - 1,10,11,9,10,562.790390299997,564.8168157999899,566.3318750000035,571.3504291999998,572.0678173999913,572.0678229999903,573.5843316999963,574.6011923999904,e,10,0.7173881999915466,1,+1,141,-74.64732831396898,0.14201624538380786,0.18146034803034716,561027.0,15.96034680030364,-0.5218564766673128,0.6233746561402476,564561.0,3.7706302251853074,-0.19878246661243493,-0.4721310220849295,658220.0,566.3338383584968,562.7998383584968,659.9928383584968
37,50,21,f,1,0,29.0,29,2,low,4 + 9 + 1 - 7 - 1,6,5,8,6,576.1179637000023,578.1449248999998,579.6598928000021,584.6787526999979,585.603781999991,585.6037874000031,587.1211658999964,588.1385302999988,w,8,0.9250292999931844,0,+0,141,-24.155572349499472,-0.2222568335675681,0.32281130119057,574355.0,-87.03866570661211,0.10956532008017517,0.16171218819749233,577889.0,8.73572172104868,0.20372488430517377,0.04540094787404669,730957.0,579.6618383584968,576.1278383584968,732.7298383584967
38,50,21,f,1,0,30.0,30,4,low,9 + 7 - 5 + 8 + 6,25,27,24,25,589.6553131999972,591.7365755999926,593.2519008999952,598.2704716000007,600.5716504000011,600.5716558999993,602.0881845999975,603.1052357000008,w,24,2.3011788000003435,0,+0,141,-45.21495155751224,0.2941990792070879,0.118138386861395,587947.0,-4.972890143333735,-0.11114809481148358,-0.07015653975085545,591481.0,3.4306440986044198,0.5516929918935305,1.093829589586523,644972.0,593.2538383584968,589.7198383584968,646.7448383584967
39,50,21,f,1,0,31.0,31,1,high,2 + 1 + 1 + 9 - 1,12,12,11,13,604.6220186999999,606.6494911999907,608.1649096000037,613.1829379999981,613.9076352999982,613.9076404999942,615.4241488999978,616.4412741999986,q,12,0.7246973000001162,1,+10,151,7.029554756115194,0.1857852187433795,0.5121628253876498,602860.0,5.086858640931297,-0.31389157303630055,0.036141303053869756,606393.0,4.501572745461752,0.270678322487258,-0.3847255029029335,828067.0,608.1658383584968,604.6328383584968,829.8398383584968
40,50,21,f,1,0,32.0,32,2,low,7 + 8 + 1 + 9 + 1,26,26,24,25,617.9585301999905,619.9863840000035,621.5016409999953,626.5199665999971,629.6836878000031,629.6836932000006,631.2005161999987,632.2167665000015,q,26,3.1637212000059662,1,+1,152,-14.155578135186534,-0.2183323995312345,0.27040582996232176,616197.0,4.926225441281346,-0.6466454103807373,-0.10932795951618512,619730.0,-11.275653944109035,-0.3737894984032426,1.0406552372307032,744244.0,621.5028383584968,617.9698383584968,746.0168383584968
41,50,21,f,1,0,33.0,33,4,low,3 + 9 - 4 + 7 + 6,21,20,19,21,633.7336533999915,635.7570531999954,637.2721622999961,642.2907600999897,645.2276864000014,645.227693199995,646.7444793000031,647.7615101999982,e,21,2.936926300011692,1,+1,153,-26.543120133659258,-0.35333411186042163,-0.3903336535758557,631967.0,-23.473746920549946,-0.32602165861978083,-0.07112735764307176,635501.0,30.483779287331174,-0.336014806201411,0.6530511126494845,672940.0,637.2738383584967,633.7398383584967,674.7128383584968
42,50,21,f,1,0,34.0,34,1,low,8 + 1 + 1 - 1 - 4,5,6,5,3,649.2783430999989,651.3061983999942,652.8216308999981,657.8398929999967,658.4755632000015,658.4755681999959,659.9926120000018,661.0100094999943,w,5,0.6356702000048244,1,+1,154,-15.421541914904083,0.10327439557635332,-0.16299686486398102,647516.0,11.489901875819644,0.16373308049638746,-0.43401020318686,651050.0,22.100443388310424,0.5516197772160241,0.1022120977882226,911139.0,652.8228383584967,649.2888383584967,912.9118383584968
43,50,21,f,1,0,35.0,35,4,high,5 + 7 - 4 - 6 + 9,11,11,13,12,662.5267319999984,664.5533528999949,666.0688203000027,671.0891567999934,673.1956020999933,673.195607799993,674.7121689999913,675.729550899996,q,11,2.106445299999905,1,+10,164,-27.041336761883564,0.07754356100302262,-1.3697379629605142,660763.0,5.405449137381652,-0.03814439271349901,-1.162180981202963,664299.0,-5.898099276696001,0.40033098581455606,-0.016881062561567628,788315.0,666.0718383584967,662.5358383584968,790.0878383584968
44,50,21,f,1,0,36.0,36,4,low,2 + 9 - 3 + 5 + 8,21,21,22,23,677.2466669999994,679.2728067999997,680.7877963999927,685.8056776000012,688.3795794999896,688.3795849000016,689.896356600002,690.913441800003,w,22,2.573901899988414,0,+0,164,6.236608621188008,-0.04675804854174492,0.8757825914429791,675483.0,-15.034538764062997,-0.2260963573155652,-0.38966062520643163,679016.0,-14.429380355552846,0.29045958329421007,-0.19132244421745526,843203.0,680.7888383584967,677.2558383584967,844.9758383584967
45,50,21,f,1,0,37.0,37,3,low,7 - 1 + 9 - 5 + 4,14,13,15,14,692.4302707000024,694.4556833999959,695.9707080999942,700.9908146999951,701.6355419000029,701.6355473000003,703.1519877999963,704.1695820000023,e,14,0.6447272000077646,1,+1,165,15.240261289149194,0.5012647278000193,0.020238509645190916,690666.0,-4.560593511626928,-0.8714171769706653,-0.4900852159809972,694201.0,27.808141084873817,-0.09660837154396873,-0.18221284069376886,937930.0,695.9738383584968,692.4388383584968,939.7028383584967
46,50,21,f,1,1,38.0,0,2,high,5 + 1 + 7 - 6 + 1,8,7,6,8,721.8480626999954,723.8753480000014,725.3909911999945,730.4109486999951,731.2115088999999,731.2115143999981,732.7284903999971,733.7466811999911,e,8,0.8005602000048384,1,+10,175,-7.72494264869249,-0.4689279084245084,-45.43868591308115,720085.0,12.793731776783268,1.226533792385994,1.4847721250549242,723621.0,37.829013516504446,0.004683839716544291,0.433684311357323,757484.0,725.3938383584967,721.8578383584968,759.2568383584968
47,50,21,f,1,1,39.0,1,2,high,5 + 7 - 8 + 1 + 1,6,7,8,6,735.2639573999913,737.286804000003,738.8020858999953,743.8216374999902,744.4994466999924,744.4994517000014,746.0163364999898,747.0335064999963,e,6,0.6778092000022298,1,+10,185,46.38865722811641,1.457928025036395,-0.35597505487216274,733496.0,-26.06485559260442,0.03607969860553917,0.9485455151775923,737032.0,-12.254028002699485,-0.5177373759716377,-0.7494354996072174,814772.0,738.8048383584968,735.2688383584967,816.5448383584968
48,50,21,f,1,1,40.0,2,2,high,7 + 1 + 9 - 1 - 8,8,7,6,8,748.5502190999978,750.5714856999984,752.0867590999987,757.1052038999915,757.739407400004,757.7394132999907,759.2561721999955,760.2736856999982,e,8,0.6342035000125179,1,+10,195,-0.02128261536033449,0.5553651066864589,-0.0747729995171551,746782.0,-8.265183735666922,-0.2247038202092284,0.2905708502121045,750315.0,13.294243150039135,0.1905591717079984,0.2441358242659164,856379.0,752.0878383584968,748.5548383584968,858.1518383584968
49,50,21,f,1,1,41.0,3,4,low,7 + 6 + 8 - 4 + 5,22,21,23,22,761.7912434000027,763.8130646999925,765.328359399995,770.346899199998,775.3233965999971,775.3234016999922,776.8399605000013,777.8571290999971,w,23,4.976497399999062,0,+0,195,11.152487815988156,-0.21161056006512569,-0.3776219582378326,760023.0,-16.904990605727015,0.08567122571085806,0.24847943510292225,763557.0,-24.600966347762576,0.05379749778173526,-0.3791527906473977,1047066.0,765.3298383584968,761.7958383584968,1048.8388383584968
50,50,21,f,1,1,42.0,4,4,low,4 + 7 - 8 + 9 - 3,9,9,8,11,779.3739719000005,781.3975531000033,782.9128783999913,787.9328719999903,788.5714283999987,788.5714377999975,790.0877676999953,791.1047610999958,q,9,0.6385564000083832,1,+1,196,14.684946271006773,0.02320898136367644,-0.06090175464396719,777608.0,16.289894000255103,0.1766003219670238,-0.03442295129097417,781143.0,2.528095448484831,0.08686154668491142,-0.12091087059100136,1103025.0,782.9158383584968,779.3808383584967,1104.7978383584968
51,50,21,f,1,1,43.0,5,3,high,4 + 7 + 1 + 9 - 5,16,16,18,17,792.621579899991,794.6486573000002,796.1640975999908,801.1821736999991,801.7473622999969,801.7473675999936,803.2636906999978,804.2812646999955,q,16,0.5651885999977821,1,+10,206,15.04339845069801,0.32765787963387494,-0.06281824723990015,790858.0,-3.196897932251238,0.4227730592590784,0.1251956195035393,794392.0,-4.339165194146027,0.0935087280780138,-0.7109831244985614,1089194.0,796.1648383584968,792.6308383584967,1090.9668383584967
52,50,21,f,1,1,44.0,6,2,high,7 + 5 + 1 + 9 + 1,23,21,22,23,805.7982220999984,807.8257126999961,809.3409163999895,814.3588317999966,815.0274599999975,815.0274655999965,816.5446293999994,817.5618697000027,e,23,0.6686282000009669,1,+10,216,22.135290668202977,0.039302615656557016,-0.08426345880792097,804036.0,16.845039129562952,-0.011858221848490835,-0.14539271603725368,807569.0,8.852274600743646,0.19454827426376475,0.03194176315569974,870106.0,809.3418383584967,805.8088383584967,871.8788383584968
53,50,21,f,1,1,45.0,7,1,high,6 + 1 + 1 + 7 - 1,14,13,12,14,819.0780865999986,821.1040568000026,822.6193050000002,827.6391825000028,828.323389600002,828.323395200001,829.8397437999956,830.8570473,e,14,0.6842070999991847,1,+10,226,-0.9385128752592333,0.2961302632747249,0.17710130244001743,817314.0,-21.726038779101096,-0.04983110675253366,-0.26393043136266625,820849.0,-26.100595658345476,0.021429659954780078,-0.285339430403067,924506.0,822.6218383584968,819.0868383584967,926.2788383584967
54,50,21,f,1,1,46.0,8,4,low,4 + 7 + 8 - 3 + 9,25,26,25,24,832.3744036999997,834.401921800003,835.9172308999987,840.9368442999985,843.4592732000019,843.4592787000001,844.9760463999992,845.9934606000024,w,25,2.522428900003433,1,+1,227,9.563840869724366,0.27456321802076866,-0.22446328803919124,830611.0,7.957569196589839,-0.14403016186741535,0.01892112517715283,834146.0,-3.8241401054920487,0.3336577279718984,-0.036788696152930456,1175722.0,835.9188383584967,832.3838383584967,1177.4948383584967
55,50,21,f,1,1,47.0,9,2,low,3 + 9 + 1 - 5 + 1,9,8,7,9,847.5105329999933,849.5370593999978,851.0522573999915,856.070158699993,856.635268500002,856.6352738999994,858.1520897000009,859.1685653000022,e,9,0.5651098000089405,1,+1,228,-5.163038519364315,0.2136309879210212,0.17113474997888423,845746.0,21.879677146167616,0.15557290405870106,0.3005150159152663,849280.0,16.61064688140458,0.315094964776252,-0.05953576484001388,884787.0,851.0528383584967,847.5188383584967,886.5598383584968
56,50,21,f,1,1,48.0,10,2,low,9 + 6 + 1 + 7 + 1,24,23,25,24,860.6852686999919,862.708687099992,864.2240151000005,869.2420879999991,870.3632027999993,870.363208499999,871.8796111999982,872.8963213999959,e,24,1.121114800000214,1,+1,229,-9.270667795024753,0.3958382627375139,-0.09085605671404773,858918.0,-8.283527212118175,0.1677921871780219,-0.0616554809313441,862452.0,0.5632545461434746,-0.020998497121987647,-0.2726265951893554,897956.0,864.2248383584968,860.6908383584968,899.7288383584968
57,50,21,f,1,1,49.0,11,2,high,3 - 1 + 9 - 5 + 1,7,7,5,6,874.4132785999973,876.4402130999952,877.9555418999953,882.9742257000034,885.0432153000002,885.0432205999969,886.5601248000021,887.5773988000001,q,7,2.068989599996712,1,+10,239,3.4809903504814876,0.45160679377359747,-0.03652695753611357,872650.0,0.6119078149348778,0.0589166890098225,-0.050833057148500504,876183.0,-16.67496736919145,0.22944031225566297,-0.2770544977873175,951170.0,877.9558383584967,874.4228383584967,952.9428383584967
58,50,21,f,1,1,50.0,12,2,high,8 + 1 + 7 + 1 - 4,13,12,14,13,889.094213999997,891.1189543999935,892.6332847000012,897.6516241999925,898.2112393999996,898.2112452000001,899.7288452999928,900.7461101999944,e,13,0.5596152000071015,1,+10,249,5.41661439378278,0.2886234987540015,-0.07327510850376995,887328.0,-6.068907983926104,0.05303270746891808,-0.00382395160185256,890861.0,-6.3526855827453454,0.3283490479641471,0.7155151324246329,1116314.0,892.6338383584967,889.1008383584967,1118.0868383584968
59,50,21,f,1,1,51.0,13,1,high,9 + 8 + 1 + 1 - 1,18,18,20,17,902.2629624999972,904.2890787999931,905.8044296000008,910.8234131999924,911.395315300004,911.3953207000012,912.9117843999992,913.929627599995,q,18,0.5719021000113571,1,+10,259,5.7610939404846,0.12233102491507486,0.017981591018964682,900498.0,1.9281617044721742,-0.15326886674348428,-0.3527310327777293,904033.0,-1.3015659503381176,-0.39604762013964434,4.696506897244088,978107.0,905.8058383584968,902.2708383584968,979.8798383584967
60,50,21,f,1,1,52.0,14,1,low,5 + 1 + 1 + 6 + 1,14,14,13,16,915.446339000002,917.4732671999956,918.9884893999988,924.006342599998,924.7630940999952,924.7630992999912,926.2797677999916,927.2974996999984,q,14,0.7567514999973355,1,+1,260,29.091689117948977,-0.5867077362124622,-0.48067472471747763,913683.0,20.892775717511384,0.29698482131879,-0.13281680053909728,917216.0,7.799391742508121,0.135870324319193,0.0677793262036106,991258.0,918.9888383584968,915.4558383584967,993.0308383584968
61,50,21,f,1,1,53.0,15,3,high,7 + 5 + 9 + 1 - 6,16,15,16,14,928.814302999992,930.8416192000004,932.3575950999948,937.3757186000004,938.1871473999928,938.18715279999,939.7032848999952,940.7208305999956,w,16,0.8114287999924272,1,+10,270,13.21010267883208,0.24671620513213188,0.07810062731153344,927051.0,-1.6403808823287038,0.1229960839866795,0.05742830935522192,930585.0,9.889874999831061,0.015556694485153066,0.1579179445026886,1389425.0,932.3578383584968,928.8238383584968,1391.1978383584967
62,50,21,f,1,1,54.0,16,2,high,7 + 5 + 1 - 1 - 8,4,3,4,2,942.2375299999984,944.2646084000008,945.7795934000025,950.7981826000032,951.4271314999932,951.42713679999,952.9436136000004,953.9609468999988,w,4,0.6289488999900641,1,+10,280,21.88623170303766,-0.08142321935815788,0.030680073877645597,940474.0,-25.544022304856327,0.5272445968970954,-0.241740597516384,944008.0,-31.25450009795382,0.3290864069024031,0.15157540556333604,1148514.0,945.7808383584968,942.2468383584968,1150.2868383584967
63,50,21,f,1,1,55.0,17,2,high,9 + 5 - 6 + 1 - 1,8,7,8,9,955.4781395000028,957.5027770000016,959.0181699999956,964.0366884999968,965.0991438999918,965.0991495999916,966.6161536,967.6330413999968,e,9,1.0624553999950876,0,+0,280,3.9207389264180206,0.5271699437047328,0.02294387146843868,953712.0,-5.011323239791187,-0.6466968756567977,0.11520623931409002,957246.0,-8.422962295602908,0.6542463657213724,0.019184195160362183,1249161.0,959.0188383584967,955.4848383584967,1250.9338383584968
64,50,21,f,1,1,56.0,18,1,high,3 + 1 + 9 + 1 - 1,13,14,13,12,969.1498580999904,971.1773071999924,972.692545500002,977.7103375000006,978.3630780999956,978.36308309999,979.8796792999927,980.8973205999936,w,13,0.6527405999950133,1,+10,290,-3.243511690496276,-0.7755712191153088,-3.419990307706499,967387.0,6.889484808933612,2.3111165075350346,-4.320514124264614,970920.0,4.527759291167623,0.4151916020148154,-0.568087567530366,1004482.0,972.6928383584967,969.1598383584967,1006.2548383584967
65,50,21,f,1,1,57.0,19,1,high,4 + 9 + 1 - 1 - 1,12,11,12,13,982.414088999998,984.437870099995,985.9531615000014,990.9711594999972,991.5150621999928,991.5150674999896,993.0310589,994.0493181999918,w,12,0.5439026999956695,1,+10,300,14.456869235338063,0.21435139350922716,-3.1264192841520533,980647.0,-12.651305984087452,-0.2181259517439358,0.4175235001963147,984181.0,9.837317628666709,0.027400335504617956,0.2095631052542526,1017738.0,985.9538383584968,982.4198383584968,1019.5108383584968
66,50,21,f,1,1,58.0,20,1,high,7 - 1 + 1 + 9 - 1,15,14,13,15,995.566294899996,997.5935172000028,999.108838500004,1004.128330099993,1004.7390921999904,1004.7390979999908,1006.255656399997,1007.27300809999,e,15,0.6107620999973733,1,+10,310,11.664318795510457,0.13306067414411826,-0.37978406284467514,993803.0,8.650492402427156,0.14885308542262843,-0.33163895782797415,997338.0,-13.220538105416901,-0.04338363442465587,1.0298680156886402,1161713.0,999.1108383584967,995.5758383584968,1163.4858383584967
67,50,21,f,1,1,59.0,21,1,low,6 + 9 + 1 + 1 - 1,16,16,14,15,1008.790273599996,1010.8168642999954,1012.331865500004,1017.3499367999902,1017.9949605000002,1017.994965699996,1019.5114555000036,1020.5283033000014,q,16,0.645023700009915,1,+1,311,37.36701731625442,0.09368509235233446,-0.3143023742882125,1007026.0,42.864795076426766,0.20007160767330712,-0.4241143001647787,1010559.0,-6.167585468564314,0.22113153482241232,0.9219189025466483,1332577.0,1012.3318383584967,1008.7988383584967,1334.3498383584968
68,50,21,f,1,1,60.0,22,3,high,2 + 1 + 9 - 7 + 6,11,11,12,13,1022.0450633,1024.0705080999903,1025.5864266999995,1030.6065877999936,1032.7069973999896,1032.7070023999986,1034.2237814999971,1035.2408511999963,w,12,2.1004095999960555,0,+0,311,23.57115109634082,0.20549624749544515,-0.3518234232467998,1020280.0,1.8465517633663548,-0.4716129468146999,0.3094591212323943,1023816.0,-6.000247808661577,0.13875139561544003,-0.08451732733253392,1431441.0,1025.5888383584968,1022.0528383584967,1433.2138383584968
69,50,21,f,1,1,61.0,23,4,high,6 + 7 + 9 - 3 + 5,24,23,22,24,1036.7572064999986,1038.7815773000038,1040.2967986000003,1045.3153309999907,1047.3230870999978,1047.3230924999953,1048.839773300002,1049.8569741999963,e,24,2.0077561000071,1,+10,321,2.6133034539059423,0.4287517180642868,-0.18914851299221702,1034991.0,4.093133718530428,0.24262304242062127,-0.6289041682336718,1038524.0,5.785068500045954,0.5878054660224454,-0.027793937398473467,1190881.0,1040.2968383584966,1036.7638383584967,1192.6538383584968
70,50,21,f,1,1,62.0,24,3,low,9 - 5 - 1 - 6 + 8,5,7,4,5,1051.3743426,1053.4000919999962,1054.914492099997,1059.9328275000007,1063.21899329999,1063.2189989999897,1064.7356653000024,1065.7520195999969,w,4,3.2861657999892486,0,+0,321,21.154022659177496,0.11879665476108281,-0.625778597002105,1049609.0,11.214622903094941,0.13212657096009472,-0.1860461974483405,1053142.0,-21.36530797158677,-0.06718205887487105,0.08823207526663723,1546807.0,1054.9148383584968,1051.3818383584967,1548.5798383584968
71,50,21,f,1,1,63.0,25,3,high,7 - 6 + 8 + 1 + 7,17,16,15,17,1067.2686927000032,1069.2934099999984,1070.8086161999963,1075.8289615999963,1076.3548582999938,1076.3548634000035,1077.871386400002,1078.8886730999948,w,15,0.5258966999972472,0,+0,321,17.97536065882636,0.06560899339540427,-0.9366310906626376,1065503.0,-19.63585644058309,-0.2983247664923643,0.10044580916271162,1069038.0,3.03089967076496,0.2768872388006427,0.026864305571628444,1613488.0,1070.8108383584968,1067.2758383584967,1615.2608383584968
72,50,21,f,1,1,64.0,26,3,high,2 - 4 + 9 + 7 + 1,15,16,13,15,1080.4055112999922,1082.4304408000023,1083.9457479999985,1088.9639297999963,1089.4509426000004,1089.450948400001,1090.967535799995,1091.9850276999932,e,15,0.4870128000038676,1,+10,331,16.98165374627816,0.07441465808069525,0.821876370742121,1078639.0,-5.169625519201704,-0.36840702158048266,0.7664912210332857,1082173.0,-14.014702786140848,-0.057532955497376026,-0.05093426816664137,1669711.0,1083.9458383584968,1080.4118383584967,1671.4838383584968
73,50,21,f,1,1,65.0,27,4,low,9 + 8 - 5 - 7 + 6,11,10,11,13,1093.501726699993,1095.5310163999966,1097.0460934000002,1102.0647307999898,1103.2829218999975,1103.2829272999952,1104.7995322999925,1105.8164013999922,w,11,1.2181911000079708,1,+1,332,-30.93448968786146,-0.10429712873746055,-1.4158028663072075,1091739.0,-6.953648928852501,0.06987687588645564,0.6011934886153707,1095274.0,9.571405557000354,0.27881454047831067,0.033743680956336064,1206113.0,1097.0468383584966,1093.5118383584968,1207.8858383584968
74,50,21,f,1,1,66.0,28,2,low,3 + 1 + 8 - 5 - 1,6,5,7,6,1107.333150599996,1109.3586308999948,1110.8738592000009,1115.8929075999913,1116.5708022999895,1116.5708075000002,1118.0878000999946,1119.104413299996,e,6,0.6778946999984328,1,+1,333,-19.087544636611156,0.22230953445297885,0.3889017663675274,1105568.0,3.6975736890485864,0.04073083222105289,-0.438473941920245,1109102.0,-5.581996444665615,0.09049495302468102,0.009780409847565341,1474537.0,1110.8748383584968,1107.3408383584967,1476.3098383584968
75,50,21,f,1,1,67.0,29,3,low,6 + 8 + 7 + 1 - 9,13,15,13,14,1120.6213295999914,1122.6477667,1124.1631338000009,1129.1835664999962,1132.44286499999,1132.4428705000028,1133.959828799998,1134.977229600001,e,14,3.259298499993747,0,+0,333,22.895177551746947,-0.19161029578583033,0.07607074507217693,1118857.0,-6.011758955235587,0.46620553588847136,0.5888891683315549,1122392.0,-6.861784139703368,0.6922244325009141,0.0993394198318307,1700967.0,1124.1648383584968,1120.6298383584967,1702.7398383584969
76,50,21,f,1,1,68.0,30,2,high,3 + 8 + 1 - 5 + 1,8,6,9,8,1136.4941641999903,1138.517431500004,1140.0326901999942,1145.0515442000033,1148.770840199999,1148.7708465000032,1150.2876908999897,1151.304525200001,e,8,3.7192959999956656,1,+10,343,0.4032073509116074,0.09866413398529383,0.15761233373550798,1134726.0,6.668341037737704,0.10215435748242241,0.6043991689288237,1138260.0,-0.6780414394091849,-0.7554643383023008,-0.02350501226226065,1502160.0,1140.0328383584967,1136.4988383584969,1503.9328383584968
77,50,21,f,1,1,69.0,31,1,high,3 + 1 + 9 + 1 + 1,15,15,14,17,1152.8212086999993,1154.8495770000009,1156.3647323999903,1161.383547199992,1161.970801799995,1161.9708069999906,1163.4873063999985,1164.5046417999984,q,15,0.5872546000027796,1,+10,353,33.48579862034213,0.1014092968335798,0.49602146806451053,1151058.0,-13.094438129883134,-0.009093276850585141,0.35132625604399426,1154592.0,-15.273398516835172,-0.008752928755848988,-0.32185536154239847,1345689.0,1156.3648383584969,1152.8308383584967,1347.4618383584968
78,50,21,f,1,1,70.0,32,4,high,3 + 9 - 5 + 8 - 7,8,9,8,7,1166.0214563999907,1168.0447929999937,1169.5601097000035,1174.5795380999916,1175.9787953999912,1175.978800500001,1177.4961136999918,1178.5133494000038,w,8,1.39925729999959,1,+10,363,-22.45207416998839,-0.23472430545969258,0.3408419872043824,1164254.0,9.419925364662799,-0.23345399069284234,0.1396167545453162,1167788.0,-9.207266657159625,0.011657718192160438,0.4879687547543061,1236025.0,1169.5608383584968,1166.0268383584967,1237.7978383584968
79,50,21,f,1,1,71.0,33,4,low,7 + 8 - 4 + 6 + 5,22,22,21,23,1180.030549999996,1182.0575769999996,1183.572453899993,1188.5909798999928,1191.138757099994,1191.1387629999954,1192.6553951999958,1193.672369699998,q,22,2.547777200001292,1,+1,364,-4.946188636214433,-0.0423296842957841,0.5264500378297274,1178266.0,-1.2757200072889514,-0.15317611871603765,-0.13121068479628129,1181800.0,-2.896844046757966,0.0478042645954071,0.10896623976982722,1319353.0,1183.5728383584967,1180.0388383584968,1321.1258383584968
80,50,21,f,1,1,72.0,34,4,high,8 + 4 + 7 - 5 - 6,8,6,8,9,1195.1889545000013,1197.216644,1198.7317318999994,1203.750399800003,1206.3708324000036,1206.3708379000018,1207.887148099995,1208.904452200004,w,8,2.6204326000006404,1,+10,374,5.838556518204209,-7.79758060511094,-7.792931118079098,1193425.0,7.835649405256673,-0.4280533833814557,-0.5194953666207613,1196959.0,31.487678933975488,0.1824502392365419,0.01907227444363846,1361680.0,1198.7318383584968,1195.1978383584967,1363.4528383584968
81,50,21,f,1,1,73.0,35,2,high,4 + 9 - 7 + 1 - 1,6,5,6,8,1210.4213414999977,1212.4484041999967,1213.9635651999995,1218.9822297999926,1222.186770699991,1222.1867764999915,1223.703512699998,1224.720948999995,e,8,3.204540899998392,0,+0,374,8.533203425563837,0.36540066118075254,0.7277064472511605,1208657.0,2.1441708850569263,-0.658196089269365,-0.4849261069088846,1212191.0,-19.082407384783718,0.22412625619633886,0.14822530423542668,1573176.0,1213.9638383584968,1210.4298383584967,1574.9488383584967
82,50,21,f,1,1,74.0,36,4,low,4 + 9 - 7 + 8 + 5,19,20,21,19,1226.2379637999984,1228.2643499999976,1229.7797850999923,1234.798430099996,1236.282643700004,1236.282649000001,1237.7991637999949,1238.8160971000034,e,19,1.4842136000079336,1,+1,375,26.428446942960694,0.18384409564726356,-0.19697828510060722,1224473.0,12.014725950212874,0.36920242168856277,-0.569971582738865,1228007.0,-0.3256347863389131,0.47694188397241266,0.21094145232194705,1376057.0,1229.7798383584968,1226.2458383584967,1377.8298383584968
83,50,21,f,1,1,75.0,37,2,high,2 + 1 + 9 - 4 + 1,9,8,9,11,1240.3330141999904,1242.3589990000037,1243.8742247999908,1248.8923217999982,1249.4186706000037,1249.4186757999996,1250.935161100002,1251.9523102999956,w,9,0.5263488000055077,1,+10,385,3.9595923468557626,0.5690349812782713,-0.08573258786448701,1238568.0,11.335475577820024,-0.060194567658691245,0.0930606203694011,1242101.0,10.386320840456172,0.08548555507929345,-0.08354945549314774,1586335.0,1243.8738383584969,1240.3408383584967,1588.1078383584968
84,50,21,f,1,2,76.0,0,2,high,6 + 1 + 1 + 7 - 9,6,6,4,8,1295.774942499993,1297.799647199994,1299.3149102000025,1304.3344695999986,1305.970517099995,1305.970522299991,1307.487191399996,1308.5040443999897,e,8,1.6360474999964936,0,+0,385,20.587946243319905,-5.611528420241223,-5.029266187529319,1294008.0,6.3334961961254805,-0.21913222746361516,1.45989604341215,1297543.0,-23.711345172054557,0.24918793068006329,-0.037261791275488454,1599807.0,1299.3158383584966,1295.7808383584968,1601.5798383584968
85,50,21,f,1,2,77.0,1,4,low,5 + 9 - 4 + 7 + 6,23,25,24,23,1310.020850999994,1312.0473397000023,1313.5625722999976,1318.58112599999,1319.610614899997,1319.610620099993,1321.1272160999945,1322.1438958999934,e,23,1.0294889000069816,1,+1,386,-3.1205676184412257,3.8052982152141595,3.7750717745540285,1308256.0,-15.044285002868286,0.04885458752673255,0.05005649253926725,1311790.0,-11.050144560094331,-0.11436030255376384,0.09364669187546748,1418281.0,1313.5628383584967,1310.0288383584968,1420.0538383584967
86,50,21,f,1,2,78.0,2,1,high,9 + 1 + 1 + 7 - 1,17,16,19,17,1323.660655300002,1325.687744499999,1327.2027403999964,1332.2210175999935,1332.8346031999972,1332.834608499994,1334.35109679999,1335.368223700003,e,17,0.6135856000037165,1,+10,396,17.3909712258249,-0.15018242060605935,0.8138818821961307,1321896.0,-1.4048577499152213,0.23429069502608835,-0.48167662114081233,1325430.0,6.462389615991485,0.22478314810855693,0.043620626634501836,1402914.0,1327.2028383584968,1323.6688383584967,1404.6868383584967
87,50,21,f,1,2,79.0,3,1,high,8 - 1 + 1 + 6 + 1,15,16,15,14,1336.8850060999976,1338.908188100002,1340.4236127999902,1345.4418804000015,1345.946471299991,1345.9464770999912,1347.462925300002,1348.4801376999967,w,15,0.5045908999891253,1,+10,406,4.226109441696943,-0.1414376753795139,-0.9466384557770091,1335116.0,0.06067181049512138,0.220604723358794,-0.5662125574199219,1338650.0,19.100280299190132,-0.2786107639705273,-0.010585941226951112,1487992.0,1340.4228383584968,1336.8888383584967,1489.7648383584967
88,50,21,f,1,2,80.0,4,4,low,2 + 9 - 4 + 8 + 7,22,22,23,21,1349.9969370000035,1352.020399999994,1353.535307400001,1358.5545890999929,1361.938532500004,1361.9385379000014,1363.4549853999924,1364.4719471999997,q,22,3.3839434000110487,1,+1,407,3.4542876107607086,0.2102917468613179,0.17791365878138832,1348229.0,16.68200894093142,0.1642500636454578,0.10803179922566031,1351763.0,-21.452335653347447,0.09051077926045803,0.04990164417498333,1516784.0,1353.5358383584967,1350.0018383584968,1518.5568383584969
89,50,21,f,1,2,81.0,5,4,high,6 + 9 + 7 - 3 - 5,14,12,14,13,1365.9887950999982,1368.0169271999912,1369.53223479999,1374.551226399999,1376.3144631000032,1376.3144684,1377.8310731999954,1378.8483583999914,w,14,1.7632367000041995,1,+10,417,9.729704701236741,0.22385648393338453,-0.04277686316027274,1364225.0,-10.552767879039148,-0.015834430662937216,-0.029547797349230187,1367760.0,-8.915971162144437,-0.08928753159522573,0.027764871506009703,1656447.0,1369.5328383584967,1365.9978383584967,1658.2198383584966
90,50,21,f,1,2,82.0,6,3,high,4 + 7 - 3 + 5 - 1,12,11,12,13,1380.36518529999,1382.389390700002,1383.904713099997,1388.9246451999934,1389.6824859999906,1389.682491899992,1391.1993749999965,1392.2165864999988,w,12,0.7578407999972114,1,+10,427,9.816685948060536,0.07770765775140331,0.07997261359054608,1378598.0,2.59975936951175,0.21833538959494625,0.10503539379572158,1382133.0,4.011006298346755,-0.0008516085545378083,0.15507945948738766,1714495.0,1383.9058383584968,1380.3708383584967,1716.2678383584966
91,50,21,f,1,2,83.0,7,1,high,8 + 1 + 1 + 1 - 3,8,8,6,9,1393.733305200003,1395.7598341999983,1397.2750928000023,1402.2936457000033,1403.1704116000035,1403.1704169000004,1404.6878953999983,1405.7054929000003,q,8,0.8767659000004642,1,+10,437,-15.35142915624073,0.5382020868625004,0.11722156822669816,1391968.0,18.387736496885303,0.011325258547260741,0.09316389328420804,1395502.0,-8.249995079586188,0.44936859016539277,0.10508239153890875,1560080.0,1397.2748383584967,1393.7408383584968,1561.8528383584967
92,50,21,f,1,2,84.0,8,4,high,8 + 4 + 7 - 5 - 6,8,7,9,8,1407.2219363999902,1409.248307499991,1410.7635642999958,1415.7820102999976,1418.5384294999967,1418.5384351999965,1420.0551135999997,1421.072924299995,e,8,2.7564191999990726,1,+10,447,-18.690015549047516,-0.18782385378541644,0.013130754044603066,1405457.0,-12.797390655470814,0.2777538892964193,-0.04135525700607667,1408990.0,5.497660401168027,-2.0427993293467077,0.02598972614927808,1684879.0,1410.7628383584968,1407.2298383584969,1686.6518383584967
93,50,21,f,1,2,85.0,9,3,high,4 + 8 - 3 + 5 - 1,13,12,14,13,1422.5896646000035,1424.6160000999953,1426.1313939999964,1431.1499271999928,1431.6984013000038,1431.6984069000027,1433.214882100001,1434.2322423000005,e,13,0.5484741000109352,1,+10,457,7.062204203971753,0.053305915873383736,0.052531556374946,1420825.0,4.018553913513681,-0.173634231905186,-0.02633926388247798,1424358.0,26.103246430300906,0.0286158054613721,0.05541206243095065,1755543.0,1426.1308383584967,1422.5978383584968,1757.3158383584966
94,50,21,f,1,2,86.0,10,3,high,8 + 5 + 1 - 7 + 9,16,16,17,14,1435.74929539999,1437.775746600004,1439.290724999999,1444.3088953999977,1446.6424112999955,1446.6424168999947,1448.1591466999962,1449.176598399994,e,14,2.3335158999980194,0,+0,457,11.754336582914322,0.1425273247140777,-0.006000514361592879,1433984.0,-0.07436085529067782,-0.003781505404644836,-0.049302168516981215,1437517.0,-20.60324380195786,-0.0978747680525589,0.11704882561746399,1810999.0,1439.2898383584968,1435.7568383584967,1812.7718383584968
95,50,21,f,1,2,87.0,11,4,high,5 + 6 - 4 + 7 + 9,23,25,24,23,1450.6934265000018,1452.7201951000025,1454.2354798000017,1459.2539649999962,1461.6024278999976,1461.6024338999996,1463.1191846000002,1464.1364017000014,q,25,2.348462900001323,0,+0,457,-8.424387910778727,-0.14190361529730477,0.02816978567920625,1448928.0,12.080820463388784,0.1775309543414343,0.08388256720820308,1452462.0,-3.8300920247482235,-0.023633205437090687,-0.09267435140631242,1741856.0,1454.2348383584967,1450.7008383584969,1743.6288383584968
96,50,21,f,1,2,88.0,12,2,high,6 + 1 + 7 + 5 - 1,18,18,17,16,1465.6533168000024,1467.6800703999909,1469.1946367999917,1474.213241299993,1474.7943701999902,1474.79437589999,1476.3110964999942,1477.327657499991,q,18,0.5811288999975659,1,+10,467,21.103123459263166,0.2512858620744849,0.07642539694068762,1463888.0,4.887344583139918,-0.09368175418662128,0.023960781146414645,1467422.0,1.9645736776417877,0.38957360982509925,0.14677739704743686,1626591.0,1469.1948383584968,1465.6608383584967,1628.3638383584967
97,50,21,f,1,2,89.0,13,1,low,3 + 1 + 1 + 9 - 1,13,13,12,14,1478.8444702999986,1480.8712451000029,1482.3866437999968,1487.4057064999945,1488.250285699993,1488.2502912999917,1489.7673856000038,1490.7839994999958,q,13,0.8445791999984067,1,+1,468,9.615442159134185,0.07610190683208673,0.07613412896175964,1477080.0,-18.492156617580974,0.11124073553319391,0.16119059073629227,1480614.0,3.8408294318589054,0.024516301114865247,-0.06910623701145657,1824142.0,1482.3868383584968,1478.8528383584967,1825.9148383584968
98,50,21,f,1,2,90.0,14,2,low,8 + 1 + 4 - 7 + 1,7,6,5,7,1492.3014333000028,1494.328750200002,1495.8439538999955,1500.8626324999932,1502.418317599993,1502.4183230999915,1503.934705199994,1504.9516403000016,e,7,1.5556851000001188,1,+1,469,-11.035389945492067,-0.09479621976093133,-0.10049281318259484,1490537.0,-18.499592070900775,0.12109306712133971,0.2812715424333556,1494071.0,-5.561487606893804,0.007975629178893495,0.00954268934508562,1728663.0,1495.8438383584967,1492.3098383584968,1730.4358383584968
99,50,21,f,1,2,91.0,15,4,low,7 + 6 - 9 + 8 - 3,9,7,9,8,1506.46820019999,1508.4940694999968,1510.0091669999963,1515.0289282000012,1517.0423270000028,1517.0423326000018,1518.558882600002,1519.5758587000018,w,9,2.013398800001596,1,+1,470,-10.157811713116992,0.21445518748056225,-0.024410608529089384,1504702.0,30.082767060987514,0.26982437316250385,-0.0455802743874425,1508237.0,1.5653557488558807,0.20758705541338784,0.11645089417868659,1783119.0,1510.0098383584968,1506.4748383584968,1784.8918383584967
100,50,21,f,1,2,92.0,16,2,low,8 + 1 + 1 + 9 - 4,15,14,16,15,1521.0927876999922,1523.120148499991,1524.6353775000025,1529.6536247999902,1530.810343899997,1530.8103491999937,1532.326843799994,1533.3441628,w,16,1.1567191000067396,0,+0,470,6.5620903688920755,0.2519332414363622,0.037561287955074185,1519328.0,-16.100697215430905,-0.0017298540830634757,0.016203031377010957,1522862.0,-5.507959668335342,0.19339365170296663,0.08807793198964542,1768663.0,1524.6348383584968,1521.1008383584967,1770.4358383584968
101,50,21,f,1,2,93.0,17,3,low,3 + 8 - 7 + 1 + 9,14,13,12,14,1534.860976099997,1536.8883016999898,1538.4036836000014,1543.4236418999935,1547.0661736000038,1547.0661787999998,1548.5825678999972,1549.599324099996,e,14,3.642531700010295,1,+1,471,26.52725490999945,0.2298768414755341,0.14308447661279788,1533096.0,1.9040586139771953,0.26314568333131705,0.014035988045173697,1536632.0,-6.179674280419663,-3.424939650504774,-1.7713957627693517,1843671.0,1538.4048383584968,1534.8688383584968,1845.4438383584968
102,50,21,f,1,2,94.0,18,1,high,2 + 1 + 9 + 1 + 1,14,12,13,14,1551.1160654999985,1553.1384235000005,1554.6535281999968,1559.671793699992,1560.338296899994,1560.3383021999907,1561.8548969999974,1562.872327899997,e,14,0.6665032000018982,1,+10,481,-13.025376616140518,0.36879145885099307,0.24242090301706565,1549347.0,-12.767705859201765,0.18482622711583652,0.17065335259206282,1552880.0,4.130235581561446,-0.06695510259496151,0.023880155041615225,1952830.0,1554.6528383584969,1551.1198383584967,1954.6028383584967
103,50,21,f,1,2,95.0,19,2,high,8 + 1 + 9 + 1 - 4,15,14,16,15,1564.3893250999972,1566.4141301999916,1567.92912049999,1572.9470225999976,1573.43413899999,1573.4341447999905,1574.9504189,1575.9673672999925,e,15,0.4871163999923737,1,+10,491,6.697916777154598,-0.052251586191713884,-0.0017058261557592047,1562622.0,-12.378736140817997,0.021931175489373622,-0.046245876948344034,1566155.0,15.509522490191543,-0.15172874204762365,-0.015614666182886205,1896774.0,1567.9278383584967,1564.3948383584968,1898.5468383584966
104,50,21,f,1,2,96.0,20,2,low,2 + 1 + 9 - 4 + 1,9,8,11,9,1577.4841588999989,1579.5117233999918,1581.0269299999927,1586.0456262999942,1586.594104499993,1586.59410989999,1588.1105155999976,1589.1280466000026,e,9,0.5484781999984989,1,+1,492,-0.9016807474982955,-0.1295192913072527,0.08204843044703991,1575720.0,9.931901811832738,0.27861018865779297,0.11940665839102649,1579253.0,7.709779598757223,-1.3108659829656943,-0.049590746329536195,1966318.0,1581.0258383584967,1577.4928383584968,1968.0908383584967
105,50,21,f,1,2,97.0,21,2,low,6 + 1 + 8 + 7 - 1,21,19,21,23,1590.6445155999972,1592.66889049999,1594.1841521000024,1599.2029782000027,1600.0661596999998,1600.0661652999988,1601.5824999999895,1602.5992539,w,21,0.8631814999971539,1,+1,493,-6.740581654785481,-0.15794747611432403,-0.03916597041077097,1588877.0,-21.533953425415895,0.06404150637037986,0.10117111883318697,1592411.0,11.569758568235489,0.3833223626041873,-0.05097440145897192,2034510.0,1594.1838383584968,1590.6498383584967,2036.2828383584967
106,50,21,f,1,2,98.0,22,3,low,3 + 1 + 6 - 8 + 9,11,13,11,12,1604.1160674999992,1606.1436266999954,1607.6588347999932,1612.6781353999977,1613.7461769999936,1613.746182399991,1615.263024400003,1616.2799533999932,w,11,1.0680415999959223,1,+1,494,-31.298015981249335,0.26023473867713065,0.018243416212100128,1602352.0,16.09726342048831,-0.23137418478258143,0.05916411694200541,1605886.0,-8.415654828357525,-0.19113176974612545,-0.09004651278554476,1856894.0,1607.6588383584967,1604.1248383584968,1858.6668383584968
107,50,21,f,1,2,99.0,23,2,low,3 + 9 - 1 - 5 + 1,7,5,7,6,1617.7964187000034,1619.823532800001,1621.339029499999,1626.3571665999916,1626.8501251999987,1626.8501308999985,1628.3667380999975,1629.3835590999952,w,7,0.492958600007114,1,+1,495,-0.19098998851443838,-0.21083541312379017,0.009400329738121771,1616031.0,-8.284818463054922,0.26169875089625627,0.19495463675340186,1619565.0,1.020030035989345,0.22321340241997323,-0.057879977120588455,2047838.0,1621.3378383584968,1617.8038383584967,2049.6108383584965
108,50,21,f,1,2,100.0,24,4,high,9 + 3 - 5 + 8 + 6,21,21,19,23,1630.9003490000032,1632.9281935999898,1634.4429137999978,1639.4616853999903,1643.0501052999898,1643.0501109999896,1644.5667117999983,1645.5838242000027,e,23,3.5884198999992805,0,+0,495,7.675624864702194,-0.014942753963522737,-0.11906116707442238,1629136.0,23.109593575082535,0.09927519338834978,0.025992567663323918,1632669.0,13.975518662907778,0.13801057144539275,-0.09933114926343012,1796447.0,1634.4418383584969,1630.9088383584967,1798.2198383584966
109,50,21,f,1,2,101.0,25,4,high,5 + 7 - 4 + 8 + 6,22,22,23,24,1647.1005385000026,1649.1261480999965,1650.6420222000015,1655.66034029999,1656.7060560999962,1656.706061799996,1658.222211100001,1659.2394405999949,q,22,1.0457158000062918,1,+10,505,14.17230646658312,-0.30479519476976824,-0.03383213905272053,1645334.0,8.864621792995479,0.09693756656059849,0.07754151973244694,1648868.0,-0.6473956430697747,-0.0840773422564065,-0.0633676472279392,1925239.0,1650.6408383584967,1647.1068383584968,1927.0118383584968
110,50,21,f,1,2,102.0,26,3,low,3 + 8 - 7 - 1 + 9,12,12,13,14,1660.7563637999992,1662.7824595999991,1664.2977840999956,1669.3167059999978,1669.9700943999924,1669.970100099992,1671.4864956999954,1672.5036352000025,q,12,0.6533883999945829,1,+1,506,-14.567001203898698,1.0458857884562276,0.018737630468535604,1658990.0,4.672473327173392,-0.4301516420419502,0.1787148363152904,1662524.0,28.348246276575445,0.04496649643390471,0.0506280891515547,1870031.0,1664.2968383584966,1660.7628383584968,1871.8038383584967
111,50,21,f,1,2,103.0,27,4,high,9 + 4 - 6 + 8 + 7,22,24,21,22,1674.0205467999913,1676.048099599997,1677.5639113999932,1682.5823879999953,1685.1380535999924,1685.13805899999,1686.654416499994,1687.6713235999923,e,22,2.555665599997156,1,+10,516,15.558838482167976,-0.1552579487398864,-0.04064737566615184,1672256.0,15.815906893621497,0.09564066660798032,0.025440303010502374,1675790.0,-15.342011844083872,-0.01581486981089597,-0.2320004960657438,1992870.0,1677.5628383584967,1674.0288383584968,1994.6428383584966
112,50,21,f,1,2,104.0,28,3,low,5 + 6 - 4 - 1 + 8,14,16,15,14,1689.1878005999895,1691.2141644999938,1692.7291419999965,1697.7473802000022,1701.2260495999944,1701.226055399995,1702.7426182999916,1703.759269000002,e,14,3.4786693999922136,1,+1,517,15.17663114267946,0.14938502469946435,0.15608846048038116,1687422.0,-11.94301629864713,0.506982847371245,0.0634112293486575,1690955.0,3.1260930624394785,-0.1414707806953639,0.09225775148488968,1883463.0,1692.7278383584967,1689.1948383584968,1885.2358383584967
113,50,21,f,1,2,105.0,29,3,low,2 + 9 + 1 - 5 + 7,14,12,15,14,1705.2760218999902,1707.302353399995,1708.8176880999963,1713.8369692999986,1714.7540104999937,1714.7540217999922,1716.270221500003,1717.2871575000026,e,14,0.9170411999948556,1,+1,518,-5.031715003569495,-0.20942566323194933,0.023197540773510994,1703510.0,0.007114171082796439,0.08628836112094707,-0.011705763321300688,1707046.0,9.942255804489733,0.13997160975094491,0.073641257706905,1939679.0,1708.8188383584968,1705.2828383584967,1941.4518383584968
114,50,21,f,1,2,106.0,30,2,low,8 + 1 + 9 + 1 - 5,14,15,14,13,1718.8040591000026,1720.8318211000003,1722.3471819999977,1727.3650949000005,1728.9218868000023,1728.9218919999985,1730.4380738000036,1731.4546851999912,w,14,1.5567919000022812,1,+1,519,-9.279402055279828,-0.049750812880817286,0.020967583604901696,1717040.0,-9.519474096646245,-0.29780674641971894,0.10454072629280797,1720573.0,-3.3106315639449804,-0.11615306204941289,-0.011815683929774057,2118703.0,1722.3458383584968,1718.8128383584967,2120.4758383584967
115,50,21,f,1,2,107.0,31,4,high,3 + 8 - 4 + 9 + 7,23,22,24,23,1732.971212000004,1734.9982378999994,1736.5141074999992,1741.5342840999947,1742.113904999991,1742.1139105000038,1743.6312701999996,1744.6485447000014,e,23,0.579620899996371,1,+10,529,-4.093738534520572,-0.05846937851453449,-0.016653747187790557,1731206.0,2.1643314346253106,-0.08892965948395304,-0.08770941415097733,1734742.0,-0.2094379478379409,0.1781853934338371,0.21198584543591004,2008062.0,1736.5148383584967,1732.9788383584967,2009.8348383584967
116,50,21,f,1,2,108.0,32,3,low,7 - 5 + 9 + 1 - 4,8,8,7,9,1746.165062,1748.1897755999962,1749.7051008999988,1754.7236619000032,1755.801900599996,1755.8019071000017,1757.3181702000002,1758.3354258999898,q,8,1.078238699992653,1,+1,530,-12.158329218493268,0.35220461812052317,0.2193227972001055,1744398.0,2.0001827054733123,0.12818795200125388,-0.0202854802555672,1747931.0,-1.3744438363892275,0.07418311333623873,-0.1875020966235159,2021286.0,1749.7038383584968,1746.1708383584967,2023.0588383584968
117,50,21,f,1,2,109.0,33,2,low,7 + 6 + 1 + 8 + 1,23,22,23,21,1759.8523141999904,1761.8804719000036,1763.395685800002,1768.4137339000008,1768.921879100002,1768.9218844999996,1770.438616799991,1771.4554422999936,w,23,0.5081452000013087,1,+1,531,-15.846918049544076,-0.00316371678860472,-0.10604259471557675,1758088.0,-18.02192690984543,-0.284890993352489,-0.026803179058566107,1761622.0,-40.51097062616128,0.0912579133968574,0.1404547245417178,2220342.0,1763.3948383584968,1759.8608383584967,2222.114838358497
118,50,21,f,1,2,110.0,34,4,high,7 + 6 - 4 + 9 - 5,13,14,12,13,1772.9722726000036,1775.0007243,1776.5161705999926,1781.534553599995,1783.377834999992,1783.377840400004,1784.8943831999932,1785.911238899993,e,13,1.843281399997068,1,+10,541,-3.0707098920799343,0.03633242070879028,0.004198318578243709,1771209.0,-10.239505005913868,0.4081560795035646,0.04958878004776768,1774742.0,10.494360778482513,0.2902592045068717,-0.14062316255974672,2105341.0,1776.5148383584967,1772.9818383584968,2107.1138383584967
119,50,21,f,1,2,111.0,35,4,low,7 + 8 - 4 + 6 - 5,12,12,13,11,1787.4277648999996,1789.4554607000027,1790.9707733999967,1795.989085199995,1796.7059407999914,1796.7059462000034,1798.2224771000035,1799.2393445999917,q,12,0.7168555999960518,1,+1,542,-0.2925225853188813,-0.2847049842871585,0.0716033415545414,1785663.0,8.674618360576062,-0.20320046686066062,0.048219853722879735,1789197.0,11.069534656462322,0.10674501668347691,0.03985873986471633,2303764.0,1790.9698383584966,1787.4358383584968,2305.536838358497
120,50,21,f,1,2,112.0,36,3,low,3 + 1 + 8 - 5 + 9,16,17,15,16,1800.7564390999903,1802.7812247999973,1804.2965331000012,1809.31577809999,1811.258524399993,1811.2585306999968,1812.7750556999963,1813.7925155999983,e,16,1.9427463000029093,1,+1,543,-0.2709666205767185,0.209978638031461,-0.12800604935904203,1798990.0,30.632059903954207,-0.15538016442221547,0.02141249327156447,1802523.0,-13.167390006081652,0.09697558908260273,-0.032582759933339034,2061005.0,1804.2958383584967,1800.7628383584968,2062.777838358497
121,50,21,f,1,2,113.0,37,1,low,7 + 1 + 4 + 1 - 1,12,11,12,13,1815.3093597999975,1817.3367101999904,1818.8520346000005,1823.870418999999,1824.401774500002,1824.4017794999963,1825.9179221999948,1826.9352218999995,w,12,0.5313555000029737,1,+1,544,-5.774855633504243,0.07053915947264011,0.11376651588731757,1813544.0,7.120575250875383,0.12775156463927084,0.01100049809685455,1817078.0,15.298316349591143,-0.060135212434209606,0.13565185889887843,1979758.0,1818.8508383584967,1815.3168383584969,1981.5308383584968
122,50,21,f,1,3,114.0,0,3,low,6 + 1 + 8 + 7 - 9,13,13,15,14,1834.7094006999976,1836.7356518000013,1838.2507942999944,1843.2707144000012,1843.929815399999,1843.9298211999997,1845.446367900004,1846.4637005999973,q,13,0.6591009999974631,1,+1,545,-18.488396293898536,3.4153985550773713,3.586143608641697,1832943.0,2.97114282087693,0.37294576373519606,-0.09069304511914211,1836478.0,-41.31033049411555,0.2703127841446724,0.18186940969301757,2077054.0,1838.2508383584968,1834.7158383584967,2078.826838358497
123,50,21,f,1,3,115.0,1,3,low,5 + 1 + 7 - 8 + 6,11,11,13,9,1847.9802781000035,1850.0053519999929,1851.5206062999928,1856.5395108999944,1857.153731600003,1857.153737400004,1858.6697339999955,1859.6867145,q,11,0.6142207000084454,1,+1,546,-2.3532819422403364,-0.14091898852315587,-0.4959442090238291,1846213.0,3.773411104415458,-0.32380184663433376,-0.16475136329074558,1849747.0,-1.0743847629643035,0.19332553347411885,0.004882996179658372,2131893.0,1851.5198383584968,1847.9858383584967,2133.665838358497
124,50,21,f,1,3,116.0,2,3,high,8 + 6 - 7 + 1 - 4,4,5,3,4,1861.2035000000035,1863.2312117999973,1864.7463936999995,1869.764813300004,1870.2897680000024,1870.289773700002,1871.8062492000024,1872.823561600002,e,4,0.5249546999984886,1,+10,556,-6.914209198914133,0.04140037713470068,0.3053807106385118,1859438.0,15.369381587836708,0.390428561662739,0.19554337813066036,1862972.0,4.389993557033205,0.08806168154103533,0.09122747085260041,2261693.0,1864.7448383584967,1861.2108383584969,2263.465838358497
125,50,21,f,1,3,117.0,3,3,high,3 + 8 + 1 + 5 - 9,8,9,8,7,1874.3404179999925,1876.3675071999896,1877.8826588999943,1882.9008581999951,1883.7218402,1883.721845599997,1885.23820349999,1886.255468100004,w,8,0.820982000004733,1,+10,566,-32.86579203822426,-0.105537595950429,0.13347268049416083,1872574.0,4.210884448077202,0.12141332604016908,-0.0019243753728244162,1876108.0,20.595392184865347,0.35190379142165495,0.14091402489552474,2427804.0,1877.8808383584967,1874.3468383584968,2429.576838358497
126,50,21,f,1,3,118.0,4,2,low,7 + 6 + 1 - 1 - 8,5,5,3,4,1887.7725599999976,1889.8004831,1891.3156390999936,1896.334142199994,1897.0336338999916,1897.0336395999911,1898.549693299996,1899.5665501999904,q,5,0.6994916999974521,1,+1,567,-37.03562489558034,-0.25788141440022194,-0.06431719667738567,1886008.0,18.72531878788081,-0.09093597404329756,0.32918923113766874,1889541.0,-13.186523946066592,0.16745689787260476,-0.012025869798783617,2233429.0,1891.3138383584967,1887.7808383584968,2235.201838358497
127,50,21,f,1,3,119.0,5,2,high,5 + 8 + 1 - 1 + 9,22,21,23,22,1901.083025699991,1903.1090043000004,1904.6242678999988,1909.643409199998,1912.3216637000005,1912.321669500001,1913.838262899997,1914.8554305,w,23,2.6782545000023674,0,+0,567,8.212440653988214,0.17294962288988147,-0.04291777280166853,1899316.0,12.439940897340065,0.3057782681618906,-0.010331500342835254,1902851.0,-49.56559006854755,-0.08129708365481836,0.043503919336049135,2246565.0,1904.6238383584969,1901.0888383584968,2248.337838358497
128,50,21,f,1,3,120.0,6,4,high,2 + 5 - 3 + 9 + 8,21,19,22,21,1916.3731224999935,1918.40037019999,1919.9157294000036,1924.9336407999945,1925.4976795999971,1925.4976853999976,1927.014199800004,1928.0314501999965,e,21,0.5640388000028906,1,+10,577,-1.890856491324687,0.12496643410223962,0.08042362842615525,1914608.0,0.9170082539718685,0.09899730949053165,0.18815974778538647,1918141.0,-0.1760717417111337,0.1418702297636547,0.08403337981501569,2320461.0,1919.9138383584968,1916.3808383584967,2322.2338383584965
129,50,21,f,1,3,121.0,7,3,high,5 + 7 + 1 - 4 + 6,15,13,17,15,1929.548517599993,1931.5715201999992,1933.0867121999909,1938.1052697999985,1939.9376218999969,1939.937627499996,1941.4545816000027,1942.471920099997,e,15,1.8323520999983884,1,+10,587,-19.17234134830275,0.1630246318286428,0.12025588228215667,1927779.0,-11.565448057401852,0.014967990704404688,-0.011184499643674295,1931312.0,-38.88526543290875,-0.4325886706619153,0.0541112831823245,2522900.0,1933.0848383584967,1929.5518383584968,2524.672838358497
130,50,21,f,1,3,122.0,8,1,low,5 + 1 + 1 + 9 + 1,17,19,16,17,1943.988685599994,1946.0119152999976,1947.5272395999928,1952.5447911999945,1953.089586999995,1953.0895924999927,1954.6063823000004,1955.622961599991,e,17,0.5447958000004292,1,+1,588,-39.59181715951717,-0.30527577148279095,0.20923275774112104,1942219.0,6.27501461729822,0.05230801920701511,-0.0918118123470939,1945752.0,13.98401149936908,-0.18054504299247753,0.0634578873259426,2176325.0,1947.5248383584967,1943.9918383584968,2178.0978383584966
131,50,21,f,1,3,123.0,9,2,low,4 + 7 + 1 + 1 - 8,5,4,5,7,1957.1391650000005,1959.1680074000035,1960.683230099996,1965.7016361999997,1966.5775481000016,1966.5775534999996,1968.0942175999955,1969.1113049999983,w,5,0.8759119000023929,1,+1,589,-4.394133273030163,0.27892743888074145,-0.17403111984787456,1955375.0,1.5369608885200527,-0.3722096927752263,0.14491804263000185,1958909.0,-3.879639681364125,0.022985007905035104,0.15525300165546763,2360004.0,1960.6818383584969,1957.1478383584968,2361.7768383584967
132,50,21,f,1,3,124.0,10,1,high,9 + 7 + 1 + 1 + 1,19,19,18,20,1970.6279830999997,1972.655386600003,1974.1709897999967,1979.1906186999984,1980.0175242999976,1980.017530099998,1981.5338779000008,1982.5511979000005,q,19,0.8269055999990087,1,+10,599,-0.4720423884360958,0.1409513903135502,0.012115834620516353,1968862.0,-9.42628016998799,0.3102263107619474,-0.13894137874000867,1972398.0,-5.224571720994835,0.4416308792072101,0.14448095776136372,2204605.0,1974.1708383584967,1970.6348383584968,2206.377838358497
133,50,21,f,1,3,125.0,11,4,low,8 + 5 - 4 + 7 + 9,25,24,25,26,1984.0683825000012,1986.0958351000008,1987.611240700004,1992.629445300001,1993.1295037999955,1993.1295089999912,1994.646118299992,1995.6630878,w,25,0.5000584999943385,1,+1,600,-0.7874369363438705,0.08971121420865735,0.12685450092543116,1982303.0,-3.991998722411892,0.15074586400921586,0.20549346249796718,1985837.0,10.521497118984815,0.3830443360702498,0.5342417555499082,2386053.0,1987.6098383584967,1984.0758383584969,2387.8258383584966
134,50,21,f,1,3,126.0,12,4,low,6 + 9 - 7 + 8 - 5,11,12,13,11,1997.1797128000037,1999.2035398000007,2000.7180891000023,2005.7367004999976,2008.3214654999904,2008.321471100004,2009.8379739999943,2010.8549298,e,11,2.5847649999923306,1,+1,601,9.88007196932792,-0.045267338292585,0.08066015473586341,1995410.0,-4.833251545379033,0.2584338649587603,-0.0294522233799972,1998944.0,12.657491083798295,-0.20771401499820508,0.12396867778241338,2399741.0,2000.7168383584967,1997.1828383584968,2401.5138383584967
135,50,21,f,1,3,127.0,13,3,low,3 - 7 + 5 + 1 + 9,11,12,13,11,2012.3721643000024,2014.3996553999896,2015.9148627999969,2020.9333871999988,2021.5454633999907,2021.5454685000004,2023.0619462000031,2024.0790634000005,e,11,0.6120761999918614,1,+1,602,-16.757347965634693,0.8272249503492715,0.08596824565774641,2010606.0,30.667135213568606,-0.16504361478177465,0.17825826004085044,2014140.0,22.505500018266396,-0.14019054904698303,0.05363386533887615,2551364.0,2015.9128383584969,2012.3788383584968,2553.136838358497
136,50,21,f,1,3,128.0,14,2,high,6 + 1 + 7 - 8 - 1,5,7,4,5,2025.5959109999967,2027.6202144999988,2029.1356286999944,2034.155843799992,2034.7694466999965,2034.7694519999927,2036.2860092999908,2037.3037343000035,e,5,0.61360290000448,1,+10,612,-6.274984319712072,0.03903979265568758,-0.36735000600365897,2023827.0,6.056631329203331,-0.03554188129487823,0.10027728921818668,2027363.0,34.2598698165621,0.12038411271841509,-0.24256550343713368,2414557.0,2029.1358383584968,2025.5998383584968,2416.3298383584965
137,50,21,f,1,3,129.0,15,2,low,9 + 1 + 6 + 7 + 1,24,23,25,24,2038.8207041999997,2040.847563000003,2042.3627215000013,2047.3821327999904,2048.0975261999997,2048.0975321000005,2049.6143989999982,2050.6312376999995,e,24,0.7153934000089066,1,+1,613,9.767323515501005,-0.12865150246747703,0.04617358100480207,2037054.0,12.479038817965943,-0.15247258161578614,0.03814425585681103,2040589.0,13.232563997735369,0.23623558657221722,0.135371117694288,2606612.0,2042.3618383584967,2038.8268383584968,2608.384838358497
138,50,21,f,1,3,130.0,16,3,low,4 + 1 + 8 + 9 - 5,17,17,19,18,2052.1478571999905,2054.1731289000018,2055.688205999992,2060.7065807000035,2061.2653960000025,2061.265401299999,2062.7816987999977,2063.7987074999983,q,17,0.5588152999989688,1,+1,614,25.558768299494194,0.04623992188100923,0.0127809703285795,2050380.0,15.213092363261197,-0.42909824115537853,0.0715770433332179,2053914.0,-0.7606394075385445,0.6960409093807587,0.11785288492077539,2635251.0,2055.686838358497,2052.152838358497,2637.023838358497
139,50,21,f,1,3,131.0,17,3,low,6 - 1 + 7 - 8 + 9,13,13,12,11,2065.3154496999923,2067.337461999996,2068.852549599993,2073.870887600002,2077.3134453999955,2077.313452100003,2078.830091900003,2079.847120899998,q,13,3.442557799993665,1,+1,615,8.964729858129196,-0.8170687531885208,0.10754392954616288,2063544.0,-30.954384419186617,0.13416364446336937,-0.10993573470730755,2067078.0,-2.085092699288168,-0.22051417688028518,0.045858470339600554,2701212.0,2068.8508383584967,2065.3168383584966,2702.9848383584967
140,50,21,f,1,3,132.0,18,3,high,6 - 1 + 7 - 8 + 9,13,12,11,13,2081.364113699994,2083.391860000004,2084.9066524999944,2089.9249522000027,2092.425436199992,2092.4254419999925,2093.942128499999,2094.9593185999984,w,11,2.5004839999892283,0,+0,615,19.94363510867418,-0.027619228406975616,0.05641230598158442,2079598.0,17.862352144728778,0.10912845439301844,0.1679478270579684,2083132.0,-13.61193326477519,0.3532950794133898,-0.13830483365258073,2714811.0,2084.904838358497,2081.3708383584967,2716.583838358497
141,50,21,f,1,3,133.0,19,4,low,7 + 6 - 9 + 8 - 3,9,7,9,8,2096.4761917,2098.501936400004,2100.0171883000003,2105.0356149,2105.6013469000027,2105.6013520999986,2107.117934099995,2108.13481779999,w,9,0.5657320000027539,1,+1,616,-0.2087129222062778,0.340362680746094,-0.11101651758762898,2094709.0,2.274993370305909,-0.028113410879855305,0.03290953491587034,2098242.0,19.219612785061646,-0.07862974191912198,-0.10431375132225629,2496428.0,2100.014838358497,2096.4818383584966,2498.2008383584966
142,50,21,f,1,3,134.0,20,2,low,2 + 9 - 4 + 1 + 1,9,9,11,8,2109.651518600004,2111.6791289999965,2113.1940942999936,2118.212207799996,2118.961393999998,2118.961399699998,2120.479120799995,2121.4956007,q,9,0.7491862000024412,1,+1,617,12.58497989294084,0.3868824330596432,0.038582885947702206,2107886.0,17.083161513902425,0.13979393304138865,0.010553325436047922,2111419.0,-0.6274432907177463,-0.38658308707534506,0.054929824042802,2648428.0,2113.1918383584966,2109.6588383584967,2650.2008383584966
143,50,21,f,1,3,135.0,21,3,low,4 + 1 + 8 + 9 - 5,17,19,17,18,2123.012216499992,2125.0381454000017,2126.554001800003,2131.573233499992,2132.1533381999907,2132.153361699995,2133.669931299999,2134.6867981999967,w,17,0.5801046999986283,1,+1,618,8.519529188860655,0.03342783379782244,0.02611837882647916,2121245.0,-20.565172762489336,0.27512363023169417,0.2480192920508999,2124780.0,6.872188913351385,0.37325341823196645,0.16177349737307112,2727979.0,2126.552838358497,2123.0178383584966,2729.7518383584966
144,50,21,f,1,3,136.0,22,4,high,5 + 8 - 4 - 6 + 9,12,14,13,12,2136.203594799997,2138.228460400001,2139.7437837999896,2144.762287699996,2147.465338199996,2147.465343599993,2148.9820758999995,2149.999550499997,w,13,2.703050500000245,0,+0,618,22.73030292166648,0.12392881197133132,0.034245404209674035,2134435.0,2.282142074538374,-0.2728411001255928,-0.0038846048468470507,2137969.0,-6.574675459754151,0.4060167068068128,0.10992664974973398,2537324.0,2139.741838358497,2136.2078383584967,2539.096838358497
145,50,21,f,1,3,137.0,23,4,low,3 + 8 - 5 + 9 - 7,8,6,8,7,2151.5164076999936,2153.5436075000034,2155.058741999994,2160.077069499996,2162.337276599996,2162.337281799992,2163.8539014999988,2164.8707735999924,e,7,2.260207100000116,0,+0,618,-9.567967105810395,0.02007885159283429,-0.08338642291300902,2149750.0,-4.507774851949653,-0.17493849914702375,0.24879011408237517,2153284.0,5.885041675071893,0.03373382986379836,-0.011223846863282372,2621292.0,2155.056838358497,2151.5228383584968,2623.0648383584967
146,50,21,f,1,3,138.0,24,1,low,5 + 9 - 1 + 1 + 1,15,17,13,15,2166.387430999996,2168.415248599995,2169.930535899999,2174.948923799995,2176.5852836999984,2176.5852892999974,2178.101835399997,2179.118751299989,e,15,1.6363599000032991,1,+1,619,-5.052537117044519,0.24273033746082673,0.08633386690141087,2164622.0,3.30779044497564,-0.09435070033147941,0.026917413612583374,2168155.0,9.5911509872107,0.4135834316116829,-0.15940119965329824,2274813.0,2169.927838358497,2166.3948383584966,2276.585838358497
147,50,21,f,1,3,139.0,25,4,high,4 + 8 + 9 - 3 + 7,25,24,26,25,2180.635502499994,2182.663629100003,2184.178838199994,2189.1974586,2191.665217200003,2191.66522309999,2193.1819773000025,2194.1994664999947,w,26,2.4677586000034357,0,+0,619,-0.29972323407253754,-0.09482642155629861,0.11012606658240354,2178869.0,6.9730762374688275,0.5676126564142767,-0.14424482406772787,2182404.0,25.269204614269697,0.26623204286973223,0.056302252738735126,2755940.0,2184.1768383584968,2180.641838358497,2757.712838358497
148,50,21,f,1,3,140.0,26,1,high,6 + 9 + 1 + 1 - 1,16,14,16,15,2195.715644900003,2197.7415745000035,2199.2568230999896,2204.274789000003,2204.865134499996,2204.865139699992,2206.3815947999974,2207.398514699991,w,16,0.5903454999934183,1,+10,629,-48.11450065063377,0.16270328124656297,1.5739308304736501,2193948.0,4.108267330356671,-1.48224249381853,0.18006441744834878,2197481.0,-26.86156471889185,0.2757274180103346,0.12205609677499418,2288277.0,2199.253838358497,2195.7208383584966,2290.049838358497
149,50,21,f,1,3,141.0,27,2,high,5 - 1 + 1 + 8 + 9,22,23,21,22,2208.915282300004,2210.9413047999988,2212.4565877999994,2217.474920199995,2220.6013038999954,2220.6013089999906,2222.1180576999905,2223.1353007,e,22,3.126383700000588,1,+10,639,-23.05979607922358,0.00749118177256447,-0.07892293202630829,2207148.0,16.777535411170813,0.3653535776855943,-0.07215316118412751,2210681.0,7.775658877766947,-0.08647093331876832,0.14143793359355494,2661564.0,2212.453838358497,2208.920838358497,2663.3368383584966
150,50,21,f,1,3,142.0,28,2,low,4 + 8 + 1 + 1 - 6,8,7,8,9,2224.6516943000024,2226.6800354000006,2228.195293500001,2233.21348749999,2233.6891706000024,2233.6891762000014,2235.20588139999,2236.2222091000003,w,8,0.4756831000122474,1,+1,640,20.379667487662093,-0.535256031216294,-0.16940607747536474,2222886.0,-4.233172280337132,-0.49113932081385414,0.003479036002822289,2226420.0,-3.409837564289657,0.19773019481328813,0.12751512435370005,2687963.0,2228.192838358497,2224.6588383584967,2689.735838358497
151,50,21,f,1,3,143.0,29,2,high,3 + 8 - 5 + 1 + 1,8,8,9,6,2237.738963099997,2239.765429399995,2241.2806928999926,2246.2985461999924,2246.825115,2246.825119999994,2248.341560100001,2249.3587792999897,q,8,0.526568800007226,1,+10,650,-5.127180443672717,-0.351032420269906,-0.03005313177383795,2235971.0,-9.520536417599523,-0.08837722711463858,0.12886135250341835,2239505.0,-2.4570975124327,0.5582562516453047,-0.17133670051763605,2782410.0,2241.277838358497,2237.7438383584968,2784.1828383584966
152,50,21,f,1,3,144.0,30,3,low,6 - 1 + 7 - 8 + 9,13,12,13,11,2250.8754688999907,2252.902892600003,2254.4180681,2259.436285299991,2261.953124499996,2261.9531299999944,2263.469698300003,2264.4864597999986,w,13,2.516839200005052,1,+1,651,-6.951344324050508,0.26043208668447404,0.1052921837097407,2249109.0,16.080293749733475,0.32981815356655586,-0.06783553351115024,2252643.0,-11.292138561351704,0.4479785425259557,0.012937196849642563,2769123.0,2254.415838358497,2250.8818383584967,2770.895838358497
153,50,21,f,1,3,145.0,31,1,high,3 + 1 + 8 + 1 + 1,14,14,16,13,2266.0033140000014,2268.029333999992,2269.5440477999946,2274.5620367999945,2275.073148299998,2275.073153699996,2276.5897797999933,2277.6069403,q,14,0.5111115000036079,1,+10,661,-7.477622695942333,0.12285182324063015,0.10011989670989663,2264235.0,-31.78873552266817,0.09599101920351494,-0.27400212329702667,2267768.0,-5.834918906104322,0.31950581891310614,-0.23049862906168084,2333580.0,2269.540838358497,2266.007838358497,2335.3528383584967
154,50,21,f,1,3,146.0,32,1,low,6 + 1 + 8 + 1 + 1,17,15,17,16,2279.123660700003,2281.152447799992,2282.667751699992,2287.685834599993,2288.5370650999976,2288.537070999999,2290.0536769000028,2291.0706199999986,w,17,0.8512305000040215,1,+1,662,17.793190412936944,0.02193098777655811,0.1005332225295612,2277359.0,-1.6074655756729734,0.13969954840933108,0.12235273346512687,2280892.0,8.81276900647619,-0.30903426238122256,0.060058396209218046,2346845.0,2282.6648383584966,2279.1318383584967,2348.6178383584966
155,50,21,f,1,3,147.0,33,4,low,6 + 5 - 7 + 8 - 9,3,3,5,4,2292.5873886999907,2294.6151542000007,2296.1300902999938,2301.148589000004,2304.025108300004,2304.0251137000014,2305.541476700004,2306.558200899992,q,3,2.876519299999927,1,+1,663,-12.8190514567459,0.37354098712751327,-0.09045049900076929,2290821.0,3.2531946327060632,-0.0037255534258946454,-0.05906437635463235,2294355.0,13.725851895312715,0.4782998791249735,-0.15917177911323233,2918203.0,2296.127838358497,2292.5938383584967,2919.9758383584967
156,50,21,f,1,3,148.0,34,4,high,8 + 4 - 5 + 7 - 6,8,8,6,7,2308.075871299996,2310.1014698999934,2311.616498000003,2316.635251300002,2320.72099229999,2320.720998399993,2322.23753269999,2323.2548618,q,8,4.085740999988047,1,+10,673,-25.426560944343734,-0.3820806081193808,0.1832240083975003,2306308.0,-2.488846030630439,0.025580915618200972,0.08568098938215041,2309841.0,,,,,2311.6138383584967,2308.0808383584967,
157,50,21,f,1,3,149.0,35,1,low,7 + 1 + 4 + 1 - 1,12,14,12,13,2324.7715822000027,2326.7964243000024,2328.3122329999896,2333.3310169000038,2333.8409631999966,2333.840968699995,2335.3574338000035,2336.3743273,w,12,0.5099462999933166,1,+1,674,5.04847936820366,0.10397831116354306,-0.011604625021369719,2323003.0,8.402884638204092,0.264355133588837,-0.030083356408799,2326537.0,-10.540563365272327,0.002776206257748548,-0.06332931391476038,2441204.0,2328.3098383584966,2324.775838358497,2442.976838358497
158,50,21,f,1,3,150.0,36,1,low,5 + 6 + 1 + 1 + 1,14,16,14,15,2337.8911617999984,2339.9172803999973,2341.432306799994,2346.4499425999966,2347.105033799992,2347.1050392000034,2348.621660799996,2349.638659799996,w,14,0.6550911999947857,1,+1,675,-33.918328162939844,-1.0377920256946718,0.08308552659344959,2336123.0,-2.4889434817197955,-0.005497223783215599,-0.01831075385470604,2339656.0,-21.32186737610457,0.1486881626063714,-0.31548695933642534,2454348.0,2341.4288383584967,2337.895838358497,2456.1208383584967
159,50,21,f,1,3,151.0,37,2,low,5 - 8 + 7 + 1 + 1,6,6,8,7,2351.1552945000003,2353.1817815999966,2354.697215299995,2359.717739899992,2360.2650017999986,2360.2650077,2361.7812879999983,2362.798004199998,q,6,0.5472619000065606,1,+1,676,-35.335400353097604,0.07611963142799505,0.1653280177948131,2349388.0,0.14512015141738033,0.15509391080251156,0.10035100655777085,2352924.0,,,,,2354.6968383584967,2351.1608383584967,
160,50,21,f,1,4,152.0,0,4,low,3 + 9 - 5 + 6 + 8,21,21,22,23,2376.188685999994,2378.217071799998,2379.732303500001,2384.7517663999897,2386.3128874999966,2386.312892599992,2387.8297568999988,2388.846554799995,q,21,1.561121100006858,1,+1,677,-12.860706713636182,1.5324332276349324,0.49741832409640985,2374423.0,-8.566381100201962,0.059574123030926796,0.25681251510388936,2377958.0,,,,,2379.730838358497,2376.1958383584965,
161,50,21,f,1,4,153.0,1,4,high,3 + 8 - 4 + 9 + 6,22,22,23,21,2390.362263999996,2392.3889450999995,2393.9041579999903,2398.92218909999,2400.0009686999983,2400.000973799993,2401.5175823000027,2402.5350739999994,q,22,1.0787796000076924,1,+10,687,0.030945408496396043,0.14139296022084835,-0.05327505852837611,2388595.0,-16.380028067325455,0.38038620447552374,0.4182595441008736,2392128.0,,,,,2393.900838358497,2390.3678383584966,
162,50,21,f,1,4,154.0,2,2,high,4 + 9 - 7 + 1 - 1,6,5,6,8,2404.0518067999947,2406.0797076000017,2407.595059200001,2412.613570200003,2414.816884300002,2414.8168898000004,2416.3335067000007,2417.3506542999967,w,6,2.203314099999261,1,+10,697,10.215546671419894,-0.3829844376583198,-0.25118127231797516,2402286.0,1.72553931325794,0.019013699038405107,-0.10897792660930339,2405819.0,,,,,2407.5918383584967,2404.058838358497,
163,50,21,f,1,4,155.0,3,3,high,2 + 1 + 9 - 4 + 6,14,15,14,16,2418.867356499992,2420.894664699997,2422.409951900001,2427.4293414999997,2428.064861699997,2428.0648670999944,2429.581405399993,2430.5986134999985,w,14,0.6355201999976998,1,+10,707,9.040002735354784,0.0365459771579526,0.07009135644061537,2417101.0,-4.386518384889511,-0.13682080053554113,-0.010119845155652119,2420635.0,14.004700240891776,-0.6916346462889003,0.1539369553983807,2808978.0,2422.407838358497,2418.873838358497,2810.750838358497
164,50,21,f,1,4,156.0,4,1,high,7 - 1 + 8 + 1 - 1,14,14,12,13,2432.1152393999946,2434.1391426999908,2435.6541377999965,2440.6728726,2441.464820399997,2441.464826099997,2442.980981400004,2443.9978760999948,q,14,0.7919477999967057,1,+10,717,-51.5770570862162,-0.044236043407504866,-0.02827733383731945,2430345.0,-32.27476241114255,-0.1335596573937914,-0.17137963854262317,2433879.0,-21.74031352684672,-0.11648700594537731,-0.3156793612193667,2483300.0,2435.6518383584967,2432.1178383584966,2485.072838358497
165,50,21,f,1,4,157.0,5,1,low,2 + 9 + 1 + 1 + 1,14,12,14,13,2445.514482899991,2447.5418009999994,2449.057036099999,2454.074690900001,2454.608807800003,2454.608813400002,2456.12531209999,2457.1429567000014,w,14,0.5341169000021182,1,+1,718,4.736673403376397,0.3327559484081757,-0.05458337176016781,2443748.0,21.143647950640638,0.0409893040391176,0.19114126005007814,2447281.0,-11.286414322908985,-0.10029040728781835,0.11088622658527747,2509547.0,2449.0538383584967,2445.520838358497,2511.319838358497
166,50,21,f,1,4,158.0,6,4,high,4 + 7 + 8 - 3 + 9,25,25,26,24,2458.659827700001,2460.6882435000007,2462.204056699993,2467.2234150000004,2470.2247623000003,2470.224768,2471.741270899991,2472.758394799996,w,26,3.0013472999999067,0,+0,718,12.296085310046346,-0.2676173890260123,-0.24000038693928394,2456894.0,2.0847620323508487,0.16805371191361473,-0.04183025256167028,2460429.0,,,,,2462.201838358497,2458.6668383584965,
167,50,21,f,1,4,159.0,7,1,low,9 + 8 + 1 + 1 - 1,18,17,18,19,2474.2750923999997,2476.3031835,2477.818133099994,2482.8372068000026,2483.560855000004,2483.5608606000023,2485.077408099998,2486.0937085999904,w,18,0.7236482000007527,1,+1,719,-10.210501915584658,-0.14763108092087052,-0.06043676632418071,2472508.0,-9.805738510328295,-0.11842323469690896,0.015840745853983762,2476043.0,15.435714754304728,-0.14117655663692386,-0.15124767261020522,2593532.0,2477.815838358497,2474.2808383584966,2595.304838358497
168,50,21,f,1,4,160.0,8,4,high,4 + 7 - 8 + 9 - 4,8,7,8,9,2487.610162899989,2489.637518599993,2491.152484599996,2496.170965800004,2496.688764199993,2496.6887694999896,2498.2052754000038,2499.2228905999946,w,8,0.5177983999892604,1,+10,729,-24.823365204531925,0.2724456427681132,-0.01796491087867924,2485843.0,10.14619054921323,0.4445925563440243,-0.12644840657471934,2489377.0,,,,,2491.1498383584967,2487.6158383584966,
169,50,21,f,1,4,161.0,9,1,low,3 + 1 + 8 + 1 + 1,14,13,14,12,2500.7394997999945,2502.7675713999924,2504.283010300001,2509.3013730999955,2509.808723299997,2509.8087289999967,2511.324450500004,2512.3412736000028,w,14,0.5073502000013832,1,+1,730,36.46674393076842,-0.1998095827947517,0.013403965929293271,2498973.0,4.344766084158833,0.888831756798159,-0.11633361336858594,2502507.0,-2.698400274526623,0.2916307204488131,-0.21845769394282755,2674827.0,2504.279838358497,2500.7458383584967,2676.599838358497
170,50,21,f,1,4,162.0,10,3,low,4 + 5 - 3 + 7 - 1,12,11,12,13,2513.8585437,2515.8861185999995,2517.4013492999948,2522.4199821999937,2523.1606467999954,2523.160652199993,2524.677362200004,2525.694248,w,12,0.7406646000017645,1,+1,731,19.50792826177238,0.21799520978867282,0.445154935874442,2512092.0,8.732281156155373,-0.5392466987281579,-0.8787823441092777,2515626.0,9.336073559016684,-0.36702612894536824,-0.1626721073073758,2877227.0,2517.398838358497,2513.864838358497,2878.9998383584966
171,50,21,f,1,4,163.0,11,4,low,6 + 9 + 7 - 3 - 5,14,13,15,14,2527.210942599995,2529.238264,2530.7536384999985,2535.771449599997,2537.5847049000004,2537.584710299998,2539.101214399998,2540.1181472000026,e,14,1.8132553000032203,1,+1,732,16.882829867766755,0.3667502218748835,0.003065438600372339,2525444.0,-16.46472881661441,0.5054138897419156,0.04253677924095345,2528978.0,,,,,2530.750838358497,2527.2168383584967,
172,50,21,f,1,4,164.0,12,3,high,7 - 1 + 8 - 6 + 4,12,12,13,11,2541.634383700002,2543.6621835999977,2545.1774507999944,2550.196293400004,2551.624727599992,2551.6247333999927,2553.141213499999,2554.158308500002,q,12,1.42843419998826,1,+10,742,15.776281995299817,-0.050935789412446475,0.14591741301219563,2539867.0,-7.3537972411676815,0.3844794424501896,-0.021343383512830938,2543402.0,,,,,2545.174838358497,2541.639838358497,
173,50,21,f,1,4,165.0,13,4,low,2 + 9 - 6 + 8 - 4,9,7,11,9,2555.6751974999934,2557.7027103,2559.2180014999904,2564.2363311999943,2565.5526686999947,2565.552674199993,2567.069509199995,2568.086937500004,w,11,1.3163375000003723,0,+0,742,-9.054358086213178,-0.2528370014137593,0.08271899886480405,2553908.0,10.88393110876534,-0.5682773579330949,0.03939661745059175,2557442.0,,,,,2559.2148383584968,2555.6808383584967,
174,50,21,f,1,4,166.0,14,4,low,4 + 7 + 9 - 5 + 7,22,24,23,22,2569.603771099996,2571.6291708999925,2573.144610000003,2578.163140799996,2580.688685000001,2580.688691100004,2582.205478999997,2583.222828999991,q,24,2.5255442000052426,0,+0,742,-7.423946754172479,2.7287353661317493,4.555353049716784,2567835.0,6.862164498168546,-0.862765779246268,-1.6768140123702264,2571368.0,,,,,2573.1408383584967,2569.607838358497,
175,50,21,f,1,4,167.0,15,1,low,6 + 1 + 8 + 1 - 1,15,13,15,14,2584.7396426999912,2586.766577599992,2588.2821531999944,2593.3001798999903,2593.7925797999924,2593.7925848000014,2595.309297400003,2596.325659599999,w,15,0.4923999000020558,1,+1,743,1.6708652815670142,-0.18051641306258004,-0.0048867346427696745,2582972.0,26.336273435357793,0.4979532962166191,-0.04704980187798191,2586506.0,2.6614001516012316,-0.22979128231037116,0.08669467213126336,2795787.0,2588.2788383584966,2584.744838358497,2797.5598383584966
176,50,21,f,1,4,168.0,16,2,low,5 + 9 - 8 + 1 + 1,8,9,8,7,2597.842403200004,2599.870475399992,2601.385638599997,2606.4036920999933,2606.872632999992,2606.872638300003,2608.3896316000028,2609.4061812,w,8,0.4689408999984152,1,+1,744,-21.89121685499243,-0.2180303603704341,-0.023274144375101002,2596076.0,-1.647995034991796,-0.254250546727556,0.12216162910868245,2599609.0,,,,,2601.3818383584967,2597.848838358497,
177,50,21,f,1,4,169.0,17,4,high,5 + 7 - 4 + 6 + 9,23,25,23,24,2610.9228797999967,2612.9508235999965,2614.4661056999903,2619.485010999997,2621.5525595999934,2621.552565299993,2623.069510000001,2624.086753399999,w,23,2.067548599996371,1,+10,754,-28.030140905246544,1.0990931462170335,0.1093944697779301,2609156.0,-2.3576613053950712,-0.1941154987623257,0.06143448812475749,2612690.0,,,,,2614.462838358497,2610.9288383584967,
178,50,21,f,1,4,170.0,18,3,high,4 + 8 - 9 + 1 + 7,11,13,11,9,2625.6032075999974,2627.628727599993,2629.1444672999933,2634.1635498999967,2635.5124822999933,2635.512488399996,2637.0290486000013,2638.0460603999963,w,11,1.3489323999965563,1,+10,764,-20.006451389007385,-0.3329696246588396,-0.02105272776419942,2623834.0,6.864356786879112,0.19940886060901164,0.09193286541364931,2627368.0,,,,,2629.1408383584967,2625.6068383584966,
179,50,21,f,1,4,171.0,19,2,high,4 + 1 + 9 + 1 - 6,9,7,9,8,2639.562552100004,2641.5901045999926,2643.105271499997,2648.1232183999964,2648.688552599997,2648.688558099995,2650.2058034999936,2651.2230389000038,w,9,0.5653342000005068,1,+10,774,8.268087964306247,0.15126636390593884,-0.08818286497806582,2637795.0,9.531060004597645,0.45563689080660374,-0.03202731006399362,2641328.0,,,,,2643.1008383584967,2639.567838358497,
180,50,21,f,1,4,172.0,20,2,high,6 + 1 + 1 + 7 - 9,6,4,6,8,2652.7397694999963,2654.7637888000027,2656.279018100002,2661.2976408999966,2661.8245953000005,2661.824601100001,2663.3415322999936,2664.358729200001,w,6,0.5269544000038877,1,+10,784,-13.066675696050808,0.9147427872394873,0.14190271793741882,2650969.0,-9.51994645958323,0.24450969072551043,0.032685047063367945,2654503.0,,,,,2656.275838358497,2652.741838358497,
181,50,21,f,1,4,173.0,21,1,low,4 + 1 + 1 + 7 - 1,12,14,13,12,2665.875487800004,2667.901779399996,2669.416645199992,2674.4350581999897,2675.088481300001,2675.0884869,2676.605020899995,2677.621878499994,e,12,0.6534231000114232,1,+1,785,-1.1714696067337487,-0.4533569621394582,0.10050702424230229,2664107.0,-2.997468002772411,-0.24985552605846895,0.08259394378071461,2667640.0,-24.900351881279533,0.6696282432057998,-0.007697585172961707,2837659.0,2669.4128383584966,2665.8798383584967,2839.431838358497
182,50,21,f,1,4,174.0,22,2,low,6 + 8 + 1 + 1 - 7,9,11,9,8,2679.1383881999936,2681.1660910999926,2682.6819016999943,2687.700526799992,2688.22442079999,2688.224426300003,2689.74080829999,2690.7575694999978,w,9,0.5238939999981085,1,+1,786,1.9868291662752062,-0.5994610892732171,0.033976421486354935,2677371.0,-1.089942249468919,-0.20382710084019173,-0.034066884295334665,2680906.0,,,,,2682.6788383584967,2679.143838358497,
183,50,21,f,1,4,175.0,23,3,high,7 + 1 + 9 + 5 - 6,16,16,15,14,2692.2744717000023,2694.3028151999897,2695.818251699995,2700.836618000001,2701.472553200001,2701.472558399997,2702.989377599996,2704.007078800001,q,16,0.635935199999949,1,+10,796,13.163759641947351,-0.07575741425326399,0.07367550131886413,2690508.0,14.780893815114535,0.5897744620950123,0.11611436405976572,2694042.0,,,,,2695.8148383584967,2692.2808383584966,
184,50,21,f,1,4,176.0,24,3,high,5 - 1 - 4 + 6 + 7,13,13,15,14,2705.523592500001,2707.5487892999954,2709.064010899994,2714.0826608999923,2715.072413599992,2715.072418900003,2716.588445100002,2717.6056179000007,q,13,0.9897526999993717,1,+10,806,-7.963531177707573,-0.494286954972738,-0.08390082043922042,2703754.0,15.11383890409142,0.20107525414292304,-0.038686126003801835,2707288.0,,,,,2709.0608383584968,2705.5268383584967,
185,50,21,f,1,4,177.0,25,3,low,6 + 7 + 8 + 1 - 9,13,13,14,15,2719.1223461999907,2721.148754599999,2722.6640943999955,2727.682983699997,2728.2404527999897,2728.2404585999902,2729.7570553999976,2730.774005899992,q,13,0.5574690999928862,1,+1,807,9.223991273832363,-0.1327084661072231,-0.1108570730925158,2717354.0,-16.68317798049256,-0.3505504864602127,0.041624074902739006,2720888.0,,,,,2722.6608383584967,2719.1268383584966,
186,50,21,f,1,4,178.0,26,4,high,8 + 4 + 7 - 5 - 6,8,9,6,8,2732.290663699998,2734.3172808999952,2735.832391000004,2740.8513217,2742.5443256,2742.544330899997,2744.0608431,2745.078054800004,q,9,1.6930038999998942,0,+0,807,-13.838838144456012,0.04084061252588622,-0.03406262066635901,2730522.0,-14.118792867115843,-0.8939322896217643,-0.009552766946747449,2734056.0,,,,,2735.828838358497,2732.2948383584967,
187,50,21,f,1,4,179.0,27,4,high,8 + 3 - 4 + 5 + 9,21,23,22,21,2746.5948818999896,2748.6218133999937,2750.1377912000025,2755.1558540999977,2756.200299000004,2756.2003046000027,2757.7173511,2758.735122700004,e,21,1.0444449000060558,1,+10,817,5.9297505290474035,0.5209455728271601,-0.15603422057099325,2744827.0,8.672996904558703,0.7881602432149597,-0.051560910765588774,2748361.0,,,,,2750.1338383584966,2746.599838358497,
188,50,21,f,1,4,180.0,28,3,high,8 + 4 + 1 - 7 + 9,15,13,15,16,2760.251825200001,2762.2784712,2763.793789000003,2768.8121273,2769.3843780000025,2769.384383700002,2770.9009309999965,2771.9177801999904,w,15,0.572250700002769,1,+10,827,12.494895426746764,-0.2409604448929885,-0.10519216092500727,2758484.0,11.964199241311809,0.002449846267108313,0.027285478822886455,2762017.0,,,,,2763.7898383584966,2760.2568383584967,
189,50,21,f,1,4,181.0,29,2,low,9 + 4 + 5 + 1 - 1,18,18,19,17,2773.434154399991,2775.461704699992,2776.9766520999983,2781.994722299991,2782.672339900004,2782.6723451,2784.1886211999954,2785.2056078000023,q,18,0.6776176000130363,1,+1,828,12.236679084768705,0.10139213232538768,0.09540986231413262,2771667.0,-5.699333009524418,0.025051117609041995,0.13534635390605976,2775200.0,,,,,2776.9728383584966,2773.4398383584967,
190,50,21,f,1,4,182.0,30,1,low,7 + 1 + 4 + 1 - 1,12,12,11,13,2786.7224624999944,2788.748853099998,2790.26377759999,2795.2846416999964,2796.0483618,2796.0483671999973,2797.564986800004,2798.5817067000025,q,12,0.7637201000034111,1,+1,829,4.892484631533853,0.013973548823784654,-0.0206293800071784,2784954.0,-7.097243448567985,-0.5709010962343299,-0.002731571039723546,2788489.0,19.181233053162913,0.06185373358737145,0.10289658919063127,2850755.0,2790.261838358497,2786.726838358497,2852.527838358497
191,50,21,f,1,4,183.0,31,3,low,2 + 9 - 3 + 4 + 1,13,13,14,11,2800.0984852999973,2802.124825699997,2803.6400581999915,2808.658647499993,2809.2403829999967,2809.2403894000017,2810.7568448999955,2811.773670900002,q,13,0.5817355000035604,1,+1,830,11.987255818565734,0.04915205139861634,0.13403244285337412,2798329.0,-19.712513257873503,0.014295477245347854,-0.07337963395264402,2801863.0,,,,,2803.6358383584966,2800.101838358497,
192,50,21,f,1,4,184.0,32,4,low,8 + 7 - 4 + 5 + 9,25,26,24,25,2813.290355499994,2815.3169023999944,2816.8324287,2821.8527994000037,2824.728262299992,2824.72826779999,2826.2448096000007,2827.2622575999994,q,26,2.8754628999886336,0,+0,830,0.13420337280822459,0.45343941017766376,-0.15322754601173072,2811522.0,18.228509066495544,0.9061550977826425,-0.01921544784511653,2815058.0,,,,,2816.8308383584967,2813.2948383584967,
193,50,21,f,1,4,185.0,33,1,high,8 + 1 + 4 + 1 + 1,15,16,14,15,2828.778824199995,2830.8061247000005,2832.3213272,2837.3392906999943,2837.920235999991,2837.920241500004,2839.436602599992,2840.4540165999933,e,15,0.5809452999965288,1,+10,840,4.837620722877476,0.041968207813328995,-0.0391199818314143,2827011.0,11.558061586401578,-0.3543778159432751,-0.050383062534225864,2830544.0,-11.163436259673352,-0.4754321579091467,-0.11561785001376657,2863939.0,2832.3168383584966,2828.7838383584967,2865.7118383584966
194,50,21,f,1,4,186.0,34,1,low,5 + 8 - 1 + 1 + 1,14,12,14,16,2841.970872699996,2843.998059099991,2845.5132194000034,2850.5318658000037,2851.0161413000023,2851.0161462999968,2852.5337076,2853.550586700003,w,14,0.4842754999990575,1,+1,841,-4.896183782956868,0.11858111183723352,0.021154007983316125,2840203.0,-3.9150521089639554,0.09606915302175345,-0.044834713911923174,2843736.0,5.420981520678589,2.7567222762583317,-0.6271171779516682,2931298.0,2845.5088383584966,2841.9758383584967,2933.0708383584965
195,50,21,f,1,4,187.0,35,1,high,2 + 9 + 1 + 1 + 1,14,13,14,12,2855.067374499995,2857.094988800003,2858.610246600001,2863.628050500003,2864.2001959999907,2864.200201799991,2865.716607299997,2866.734467999995,w,14,0.5721454999875277,1,+10,851,2.196382562914053,0.9458502057547662,0.17907504798562357,2853300.0,10.262622670350863,0.3471603353622532,-0.0927804161392396,2856833.0,,,,,2858.605838358497,2855.072838358497,
196,50,21,f,1,4,188.0,36,3,high,8 - 7 + 9 + 1 + 4,15,14,15,16,2868.2509407999896,2870.27516759999,2871.7900864999974,2876.8083859000035,2877.48825129999,2877.488256900004,2879.00509169999,2880.022348300001,w,15,0.6798653999867383,1,+10,861,-4.242835047027679,0.6767646622616308,0.0464609610827631,2866480.0,-36.33630802854833,0.7211027448002616,0.13281981727105485,2870013.0,,,,,2871.7858383584967,2868.252838358497,
197,50,21,f,1,4,189.0,37,3,high,5 + 6 + 7 - 1 - 9,8,7,8,9,2881.539118300003,2883.5658920999995,2885.0811521,2890.100219999993,2893.336212299997,2893.3362181999983,2894.8527891999984,2895.869763900002,e,9,3.235992300004,0,+0,861,-8.888616461066356,-0.07529161194457057,0.016564266094432067,2879770.0,11.29604619195522,-1.101802986884195,-0.1954205275479597,2883304.0,,,,,2885.076838358497,2881.5428383584967,
198,50,21,f,1,5,190.0,0,4,low,3 + 8 - 7 + 9 - 5,8,7,8,9,2909.476050700003,2911.502722399993,2913.0179483999964,2918.0382506000024,2918.464812399994,2918.464818099994,2919.9814781000023,2920.9990722999937,w,8,0.4265617999917594,1,+1,862,-21.531833411909258,3.2891122968248596,-18.83735489321345,2907707.0,-9.416927634971216,0.422464610175346,-2.2913539025989973,2911243.0,,,,,2913.0158383584967,2909.4798383584966,
199,50,21,f,1,5,191.0,1,1,high,5 + 6 + 1 + 1 + 1,14,13,14,16,2922.5157215999934,2924.5434183999896,2926.058700099995,2931.076386799992,2931.5601236999937,2931.560129099991,2933.076608100004,2934.0942140999978,w,14,0.4837369000015314,1,+10,872,-6.2500496607095055,-2.357031381890855,-1.2110248934421612,2920748.0,-1.8187954900170498,-1.175403849364228,-0.8449624032406273,2924281.0,,,,,2926.0538383584967,2922.520838358497,
