,id,age,sex,cued,block,trial,trialinblock,efflev,rewlev,calc,corAns,option1,option2,option3,tstart,ITI1Time,probTime,respTime,selectTime,ITI2Time,fbTime,ITI3Time,key_press,chosenAns,RT,acc,feedback,total_points,cuescr,cuecor,cuezyg,cuetime,probscr,probcor,probzyg,probtime,fbscr,fbcor,fbzyg,fbtime,probtime_c,cuetime_c,fbtime_c
0,51,21,m,0,Practice,,0,1,0,4 + 1 + 9 + 1 + 1,16,14,16,15,64.88688529992942,,64.88688749994617,71.92592840001453,73.3862369999988,73.38624279992655,74.90315789997112,75.98392279993277,w,16,1.460308599984273,1,Correct,0,,,,,-1.104272130419119,-0.20445264533657204,0.1193944887138283,44993.0,-34.16416891165131,-0.6637338964669,0.11682534260530764,53051.0,66.89566631547447,,74.95366631547446
1,51,21,m,0,Practice,,1,1,0,3 + 1 + 1 + 8 - 1,12,11,10,12,77.53154499991797,,77.53154929995071,82.57215629995335,83.85015750001185,83.85016339994036,85.36728100001346,86.38441289996263,e,12,1.2780012000584977,1,Correct,0,,,,,-0.378091354166914,7.807316841360015,10.511511819530995,55639.0,20.111747006157998,0.5334521847084992,2.5219338287506203,63451.0,77.54166631547447,,85.35366631547447
2,51,21,m,0,Practice,,2,2,0,8 + 1 + 6 + 1 - 4,12,11,10,12,87.97671529999934,,87.9767259999644,92.99890769994818,94.19436279998628,94.19436929991934,95.71123439993244,96.72921679995488,e,12,1.1954551000380889,1,Correct,0,,,,,3.2598424073895584,0.07278752354438645,-0.059122585294182795,66066.0,17.35422846170825,10.854549692444571,13.321856697317276,73796.0,87.96866631547447,,95.69866631547447
3,51,21,m,0,Practice,,3,2,0,9 + 4 - 6 + 1 - 1,7,6,7,5,98.24571369995827,,98.2457164999796,103.27256139996462,105.09823969996069,105.09824600000866,106.67051909992006,107.6873586999718,w,7,1.8256782999960703,1,Correct,0,,,,,6.265000482570578,-0.14019403961578725,0.16512053903245505,76340.0,12.728855279494118,-7.88948575220113,-10.47763294925102,84755.0,98.24266631547447,,106.65766631547446
4,51,21,m,0,Practice,,4,3,0,9 + 3 - 5 + 6 + 7,20,22,20,21,109.20469429995865,,109.20469739998224,114.22535089997108,118.7623062999919,118.76231279992498,120.27918630000204,121.29726869997104,w,20,4.536955400020815,1,Correct,0,,,,,11.15943391905449,-0.0655676851143756,-2.511586973761607,87293.0,-37.249950463789304,0.3477584334386177,0.14500822419452364,98364.0,109.19566631547447,,120.26666631547447
5,51,21,m,0,Practice,,5,3,0,2 + 1 + 9 - 7 + 6,11,11,10,9,122.8141243000282,,122.81412719993386,127.8348161999602,129.2182050999254,129.2182115999749,130.73511010000948,131.75293389998842,q,11,1.3833888999652115,1,Correct,0,,,,,-37.2269957521207,-0.11037410096082834,0.20021880188740582,100902.0,24.54705224073005,0.6614764584264852,-0.05180651750659537,108820.0,122.80466631547446,,130.72266631547447
6,51,21,m,0,Practice,,6,4,0,4 + 8 + 5 - 3 + 7,21,22,21,23,133.2702106999932,,133.27021370001603,138.29136689996812,139.33002679992933,139.33003189996816,140.86338789993897,141.89659110002685,w,21,1.0386598999612031,1,Correct,0,,,,,16.4168614646928,-0.11099464671401815,-0.1337375928860105,111358.0,8.856671423898218,0.606916159205277,0.10506989423634083,118963.0,133.26066631547448,,140.86566631547447
7,51,21,m,0,Practice,,7,4,0,5 + 8 - 4 + 6 + 9,24,22,24,23,143.41357109998353,,143.41357420000713,148.4332609999692,149.69018329994287,149.69019160000607,151.207533699926,152.24681449995842,e,23,1.256922299973667,0,Incorrect,0,,,,,77.59066594857084,-0.04625832821826892,-0.24573693950170128,121500.0,3.781694613973439,0.38028659730039305,-0.08268543452286448,129314.0,143.40266631547448,,151.21666631547447
8,51,21,m,1,0,0.0,0,3,low,7 - 1 + 8 - 6 + 4,12,13,11,12,367.0711126999231,369.1467867000029,370.6620842999546,375.70102479995694,376.3431998000015,376.3432053999277,377.89123599999584,378.90811059996486,e,12,0.6421750000445172,1,+1,1,14.481190475755538,-0.30929801817111224,-0.3411367115744981,345213.0,14.812048864162717,0.20017249642931656,-0.28844851270991123,348768.0,,,,,370.6706663154744,367.11566631547447,
9,51,21,m,1,0,1.0,1,3,high,5 + 6 - 4 - 1 + 8,14,15,16,14,380.4250187999569,382.51629079994746,384.0311320999172,389.0498011999298,389.67917659995146,389.6791828999994,391.1962377999444,392.2137275999412,e,14,0.6293754000216722,1,+10,11,-3.294423510724537,-0.01640299836804715,-0.1970804758256346,358583.0,8.50355527542057,-0.12335049711996993,-0.036132057328226,362117.0,,,,,384.01966631547447,380.4856663154745,
10,51,21,m,1,0,2.0,2,1,high,6 + 9 + 1 + 1 - 1,16,15,14,16,393.73063569993246,395.7818276999751,397.2970355999423,402.3349407999776,403.0151256999234,403.01513149996754,404.53180689993314,405.5484153999714,e,16,0.6801848999457434,1,+10,21,0.5193298200268508,-4.9378257791936,-8.595830692269441,371849.0,-20.58090222741476,-0.4522712370208022,-0.802334313751722,375401.0,-23.60342819692874,0.17504533036737202,0.07196923466362692,1633475.0,397.30366631547446,393.75166631547444,1655.3776663154745
11,51,21,m,1,0,3.0,3,3,high,4 + 7 + 1 + 9 - 5,16,16,18,17,407.0644894000143,409.0908073999453,410.60581739991903,415.62419649993535,416.3350423999364,416.33504789997824,417.8507955999812,418.8681779999752,q,16,0.7108459000010043,1,+10,31,-63.76592852714272,0.15129899394730728,0.07526712761122534,385157.0,-4.302699685109452,0.060237568983563694,0.10323134542034929,388691.0,,,,,410.5936663154744,407.05966631547443,
12,51,21,m,1,0,4.0,4,4,low,5 + 8 - 6 + 7 + 4,18,19,18,17,420.38500789995305,422.4434481000062,423.9585910999449,428.9788056999678,429.8070565999951,429.8070620999206,431.32362999999896,432.36512249999214,w,18,0.8282509000273421,1,+1,32,6.962302213498225,0.3463120584936803,0.3425457564837786,398511.0,16.600570058663834,-0.2808920401106336,0.06454332011743702,402045.0,24.55865307764996,0.1839929717754405,0.06939960557567249,1233515.0,423.94766631547446,420.4136663154745,1255.4176663154747
13,51,21,m,1,0,5.0,5,2,high,9 + 1 + 6 + 7 + 1,24,25,23,24,433.88192079996224,435.9877302999376,437.5028093999717,442.5220560999587,443.15101339994,443.1510184999788,444.6683320000302,445.6856093999231,e,24,0.6289572999812663,1,+10,42,9.484725424130843,0.3756947289032255,-0.13900943648991326,412054.0,9.269802175789554,-0.196633166327576,-0.016472482602229555,415589.0,18.142520470760157,0.042625101927507014,-0.15722864629934108,1767427.0,437.49166631547445,433.9566663154744,1789.3296663154745
14,51,21,m,1,0,6.0,6,1,low,2 + 1 + 9 + 1 - 1,12,11,13,12,447.202884899918,449.2395432000049,450.7547945999541,455.7730785999447,456.35972309997305,456.3597282000119,457.8760363999754,458.8929537999211,e,12,0.586644500028342,1,+1,43,-6.46627776250237,0.07850687589176131,0.15913106198347116,425306.0,11.859121827544474,-0.5700148587169633,-0.23566456641045175,428840.0,,,,,450.7426663154744,447.20866631547443,
15,51,21,m,1,0,7.0,7,1,low,7 + 1 + 4 + 1 - 1,12,11,12,13,460.4418318999233,462.4666821999708,463.98217849992216,469.0137655999279,469.582947799936,469.58295299997553,471.0994130999316,472.1157895999495,w,12,0.569182200008072,1,+1,44,24.70206890245475,0.1865464940312478,0.19148733970818643,438533.0,35.8315848799713,0.021731904393723855,0.04937712212379397,442080.0,,,,,463.98266631547443,460.43566631547446,
16,51,21,m,1,0,8.0,8,4,high,7 + 6 + 8 - 4 + 5,22,23,22,21,473.6324817999266,475.7011143999407,477.21625860000495,482.23505040002055,482.8869131000247,482.8869184999494,484.403429799946,485.4206477999687,w,22,0.6518627000041306,1,+10,54,-0.14897176155362146,-3.158685633448296,-5.721067857097114,451768.0,2.497302650650255,-0.08455450655259611,-0.23842263477061554,455302.0,-13.326875136094845,0.010229628934478985,0.019745460581066965,2425617.0,477.20466631547447,473.6706663154744,2447.5196663154748
17,51,21,m,1,0,9.0,9,3,high,9 - 5 - 1 - 6 + 8,5,5,4,7,486.9374264000217,488.9618302999297,490.4767758999951,495.4947342999512,496.4469028000021,496.4469084999291,497.9632445999887,498.9807732999325,q,5,0.9521685000509024,1,+10,64,2.6362462644118585,-0.0936856690598109,0.125818755850585,465028.0,-0.5756697664102184,-0.3027343671302991,0.2234786023240254,468562.0,,,,,490.46466631547446,486.93066631547447,
18,51,21,m,1,0,10.0,10,1,high,8 + 1 + 4 + 1 + 1,15,16,14,15,500.4974011000013,502.52281280001625,504.03799430001527,509.0561153999297,509.63891179999337,509.6389173999196,511.1551959000062,512.172635099967,e,15,0.5827964000636712,1,+10,74,-7.935267189570533,0.3275716864338234,0.03910297950052488,478590.0,-34.85937582156125,-0.5100626674475959,0.1274499945591252,482123.0,,,,,504.02566631547444,500.4926663154744,
19,51,21,m,1,0,11.0,11,2,high,9 + 5 - 6 + 1 - 1,8,7,9,8,513.6890762000112,515.7148523000069,517.2303177999565,522.2484695999883,522.7987251000013,522.7987307999283,524.3149813999189,525.3323251999682,e,8,0.5502555000130087,1,+10,84,-37.5906962688489,0.08059276963821649,0.08797351163550493,491782.0,-2.855520494366745,-0.10226369268799207,0.15808772849234654,495315.0,,,,,517.2176663154745,513.6846663154745,
20,51,21,m,1,0,12.0,12,1,low,7 + 1 + 5 + 1 - 1,13,14,13,12,526.849163100007,528.8746501000132,530.3902157000266,535.4096318000229,535.9987500000279,535.9987551999511,537.5155347000109,538.5320879999781,w,13,0.5891182000050321,1,+1,85,6.566526655138951,-0.292544234577123,0.003602199586405508,504942.0,39.745564017296815,-0.4878815519137989,-0.4402969476861198,508477.0,,,,,530.3796663154744,526.8446663154745,
21,51,21,m,1,0,13.0,13,2,low,5 - 8 + 7 + 1 + 1,6,8,6,7,540.0495340999914,542.1307390999282,543.6454826999689,548.6646543999668,549.3587727999547,549.3587783999974,550.8757687999168,551.8926381999627,w,6,0.6941183999879286,1,+1,86,7.915639608780041,-0.36693117061465763,-0.30696845194133493,518198.0,6.115190467721304,-0.7828677205341603,-0.1369818241019236,521731.0,,,,,543.6336663154744,540.1006663154744,
22,51,21,m,1,0,14.0,14,4,high,9 + 3 - 5 + 8 + 6,21,19,23,21,553.4096550999675,555.4350338999648,556.950704799965,561.9698864999227,562.5826829000143,562.5826884999406,564.0991644000169,565.116539599956,e,21,0.6127964000916108,1,+10,96,-50.28271846718515,0.48917759123403526,-0.1456113222433899,531502.0,35.187429726266664,0.04413389032760984,0.03198370779026405,535037.0,12.321422582694751,-0.10299163986077087,0.026815034635865764,2851631.0,556.9396663154745,553.4046663154744,2873.5336663154744
23,51,21,m,1,0,15.0,15,4,high,3 + 9 - 5 + 6 + 8,21,22,23,21,566.6337608000031,568.6571109999204,570.1716184000252,575.1897772999946,576.11874299997,576.1187487000134,577.6349840000039,578.6523857000284,e,21,0.9289656999753788,1,+10,106,-17.815395811953188,0.09246152339461045,1.546480443816935,544725.0,-16.07607667207253,-0.2711167763294351,0.30194759211137523,548257.0,,,,,570.1596663154744,566.6276663154745,
24,51,21,m,1,0,16.0,16,2,high,3 + 9 - 1 - 5 + 1,7,7,6,5,580.1702032999601,582.1972454999341,583.7125094999792,588.7316556000151,589.3346183999674,589.3346245000139,590.8513065000298,591.8683582999511,q,7,0.6029627999523655,1,+10,116,-1.5560388089997161,-0.15960190323844703,-3.159341475601612,558264.0,5.431610441037499,0.03191973682470728,0.05405886019092421,561798.0,,,,,583.7006663154745,580.1666663154745,
25,51,21,m,1,0,17.0,17,2,high,5 + 7 - 8 + 1 + 1,6,7,8,6,593.3849783999613,595.4111160999164,596.9261132000247,601.9439708000282,602.5893833999289,602.5893893999746,604.1064300999278,605.1235996999312,e,6,0.6454125999007374,1,+10,126,-18.274819408957956,0.2966909493604888,0.2757243392709223,571479.0,30.436628562829153,0.17578168375781145,-0.3264783384814005,575012.0,,,,,596.9146663154744,593.3816663154745,
26,51,21,m,1,0,18.0,18,3,low,4 + 1 + 8 + 9 - 5,17,18,19,17,606.6532553000143,608.6808068000246,610.1960773000028,615.2150060000131,615.8624889999628,615.862494800007,617.3789660999319,618.3962173999753,e,17,0.647482999949716,1,+1,127,17.55475647290025,-0.3114452463001598,-0.6061686687430501,584747.0,8.29457397040124,-0.3801123241301867,-0.01956874434349487,588282.0,,,,,610.1846663154745,606.6496663154744,
27,51,21,m,1,0,19.0,19,1,high,5 + 8 - 1 + 1 + 1,14,16,14,12,619.913837299915,621.9384841999272,623.4531547999941,628.4707526999991,629.0865681000287,629.0865733999526,630.6031254000263,631.6202108999714,w,14,0.6158154000295326,1,+10,137,1.409762156295173,-0.11021302521906895,0.11923000001516293,598005.0,-10.651247435405303,-0.3497345957392848,0.017163090506636003,601539.0,,,,,623.4416663154744,619.9076663154744,
28,51,21,m,1,0,20.0,20,1,high,5 + 1 + 1 + 6 + 1,14,13,16,14,633.13695309998,635.163392300019,636.6778609999456,641.6954468999757,642.5024163000053,642.5024212999269,644.0189018999226,645.0764218999539,e,14,0.8069694000296295,1,+10,147,7.404913834208314,0.27183928275636937,0.05564809201700571,611230.0,-4.910759548192864,-0.1263038109584773,0.043618447785587655,614762.0,,,,,636.6646663154744,633.1326663154745,
29,51,21,m,1,0,21.0,21,3,high,4 + 8 - 3 + 5 - 1,13,14,13,12,646.5931564000202,648.6192569999257,650.1344131999649,655.1540257999441,655.9427415999817,655.9427475000266,657.4590346999466,658.4755814999808,w,13,0.7887158000376076,1,+10,157,10.978501518130557,-0.33893704093354904,-0.005145521228306915,624686.0,-12.462206729390008,-0.24158451116272328,0.1014919442573543,628220.0,,,,,650.1226663154745,646.5886663154745,
30,51,21,m,1,0,22.0,22,4,high,8 + 3 - 4 + 5 + 9,21,21,23,22,659.9922401999356,662.0180924999295,663.5333623000188,668.5511621999322,669.1744677999523,669.1744733999949,670.6910274999682,671.7076674000127,q,21,0.6233056000201032,1,+10,167,31.64385765218857,-0.16126578372531641,0.24572443269382171,638085.0,0.4376289502856192,-3.958675197882086,0.011650896762231522,641619.0,,,,,663.5216663154745,659.9876663154745,
31,51,21,m,1,0,23.0,23,1,low,2 + 1 + 9 + 1 - 1,12,11,12,13,673.2237678000238,675.2502257999731,676.7656625999371,681.783788700006,682.3744322999846,682.374437600025,683.8908065999858,684.9078515999718,w,12,0.5906435999786481,1,+1,168,29.410625236944743,0.16958187831255245,-0.18642094137264076,651318.0,59.46841875342838,-0.511482402212466,0.05589103376040283,654851.0,,,,,676.7536663154744,673.2206663154744,
32,51,21,m,1,0,24.0,24,4,high,8 + 7 - 4 + 5 + 9,25,25,26,24,686.424122299999,688.4511402000207,689.9657426999183,694.9857738999417,695.6303833000129,695.6303886999376,697.1470862999558,698.1642652000301,q,25,0.6446094000712037,1,+10,178,5.37547204397114,0.323640951100713,-0.019777060413817882,664518.0,13.64968785079002,-0.4221713331638126,-0.10105859487318503,668053.0,,,,,689.9556663154744,686.4206663154745,
33,51,21,m,1,0,25.0,25,4,high,8 + 5 - 4 + 7 + 9,25,24,26,25,699.6818629999179,701.7064685999649,703.221618099953,708.2399123000214,709.0945319000166,709.0945371999405,710.6111896999646,711.6290645999834,e,25,0.8546195999952033,1,+10,188,-60.14921039554985,0.9879886429925397,7.437967622759196,677773.0,-5.636672598258933,0.16677637740044426,-0.12008303104426199,681307.0,,,,,703.2096663154745,699.6756663154745,
34,51,21,m,1,0,26.0,26,2,low,4 + 8 + 1 + 1 - 6,8,8,9,7,713.1453822000185,715.2322220000206,716.7474292999832,721.7652766000247,722.6943387999199,722.6943480999907,724.2110010000179,725.22769780003,q,8,0.9290621998952702,1,+1,189,-1.0661985551748039,0.46010204112258757,0.16615016845809905,691299.0,-3.7160878656785448,-0.07168674864667413,0.1353241616595362,694832.0,,,,,716.7346663154744,713.2016663154744,
35,51,21,m,1,0,27.0,27,2,high,3 + 8 - 5 + 1 + 1,8,8,9,6,726.7450667999219,728.845710500027,730.3611096999375,735.545416399953,736.398232699954,736.3982390000019,737.9139473999385,738.9312896999763,q,8,0.8528163000009954,1,+10,199,13.597356452846974,0.1575913830759581,-0.016154571505432536,704913.0,4.367395736079397,-0.6662293057197455,0.12419353301231562,708612.0,,,,,730.5146663154744,726.8156663154745,
36,51,21,m,1,0,28.0,28,4,high,4 + 7 + 8 - 3 + 9,25,25,26,24,740.4478519000113,742.4741966000292,743.9891681999434,749.0098225999391,749.6942387999734,749.6942438000115,751.2103075999767,752.2283443999477,q,25,0.6844162000343204,1,+10,209,27.914299468453297,-8.550822578490699,-20.61063324506763,718541.0,-5.84460275711739,0.24870395738725337,-0.01802921007887992,722076.0,,,,,743.9786663154745,740.4436663154745,
37,51,21,m,1,0,29.0,29,3,high,4 + 7 - 3 + 5 - 1,12,12,13,11,753.7450565999607,755.7702153000282,757.2856892999262,762.3042601000052,762.9341766999569,762.934182500001,764.4505962999538,765.4668756999308,q,12,0.6299165999516845,1,+10,219,-3.7384565422897076,2.116937919651666,4.448767067741685,731837.0,-10.29870505724324,-0.18386759747322357,0.13862850135007498,735371.0,,,,,757.2736663154744,753.7396663154744,
38,51,21,m,1,0,30.0,30,2,high,2 + 9 + 1 + 1 - 5,8,6,8,7,767.0008767999243,769.0283598999958,770.5434456999646,775.5609907999169,776.3581649999833,776.3581704000244,777.8743097999832,778.9554870999418,w,8,0.7971742000663653,1,+10,229,4.417453944262548,-0.08371487510865805,-0.2521866116582725,745095.0,-9.256678068392514,0.0668549654355064,0.15468419604692896,748629.0,,,,,770.5316663154745,766.9976663154745,
39,51,21,m,1,0,31.0,31,3,low,5 + 6 + 7 - 1 - 9,8,8,9,7,780.4721555999713,782.5338620999828,784.0492486000294,789.1184766999213,789.8620656999992,789.8620708999224,791.3785442999797,792.3952958999434,q,8,0.7435890000779182,1,+1,230,0.3927234073425758,1.077407583761251,0.23953484445613427,758600.0,12.063695869914184,-0.48914661775010027,-0.08771560793449074,762185.0,,,,,784.0876663154744,780.5026663154745,
40,51,21,m,1,0,32.0,32,3,high,3 + 8 - 7 - 1 + 9,12,13,14,12,793.9115320999408,795.9354390000226,797.4503675999586,802.469901699922,803.6541162999347,803.654121599975,805.1698907000246,806.1870465999236,e,12,1.1842146000126377,1,+10,240,49.93135768262593,-1.7386338762372997,-12.353022513829698,772002.0,-3.8212664291186673,-0.13002836546701557,0.13552834241834488,775537.0,,,,,797.4396663154745,793.9046663154744,
41,51,21,m,1,0,33.0,33,2,high,7 + 5 + 1 + 9 + 1,23,21,23,22,807.7040583000053,809.7312518999679,811.2466457999544,816.2655326999957,816.9180735999253,816.9180793999694,818.4352599999402,819.4531252000015,w,23,0.6525408999295905,1,+10,250,-7.936085272140794,0.34961350161841054,-3.537139109165084,785798.0,0.8239392820196898,-0.040905878710409294,0.08922019874712483,789332.0,,,,,811.2346663154744,807.7006663154745,
42,51,21,m,1,0,34.0,34,1,low,8 + 1 + 1 - 1 - 4,5,5,6,3,820.9700382999144,823.0210966999875,824.5360341999913,829.5543335999828,830.2140606999164,830.2140659999568,831.730408799951,832.7485972000286,q,5,0.6597270999336615,1,+1,251,11.58079721904216,0.07634858663116484,1.2269343322358477,799089.0,2.328610714955667,-0.03302402830116735,0.1854059824446883,802621.0,,,,,824.5236663154744,820.9916663154745,
43,51,21,m,1,0,35.0,35,3,low,7 + 1 + 9 + 5 - 6,16,15,16,14,834.2651047999971,836.3208946000086,837.8357699000044,842.8834139999235,843.5099861000199,843.5099913999438,845.0264193000039,846.0438820000272,w,16,0.6265721000963822,1,+1,252,14.01373581555988,0.3967144089398018,0.04802526381949512,812388.0,-6.780423023688918,-0.05761497488376888,-0.004403401388912265,815951.0,,,,,837.8536663154745,834.2906663154745,
44,51,21,m,1,0,36.0,36,1,high,7 + 1 + 4 + 1 - 1,12,12,13,11,847.5606048000045,849.584406799986,851.0993761999998,856.117026599939,856.7019601999782,856.7019656000193,858.2533562999452,859.271280099987,q,12,0.5849336000392213,1,+10,262,13.233430886218015,0.5212283917060061,0.06445765234580714,825651.0,6.044812485461094,-0.5971568631171116,0.0353126468238083,829185.0,,,,,851.0876663154744,847.5536663154744,
45,51,21,m,1,0,37.0,37,1,low,3 + 1 + 1 + 8 - 1,12,13,14,12,860.7878413000144,862.8150554000167,864.3297196999192,869.3475287000183,870.3019130999455,870.3019190999912,871.8184673999203,872.8351601000177,e,12,0.9543843999272212,1,+1,263,-32.27549542369281,0.0954424068636528,0.7075116533465668,838883.0,4.538233052575357,3.839623658589109,1.7522603414279838,842415.0,,,,,864.3176663154744,860.7856663154745,
46,51,21,m,1,1,38.0,0,3,low,6 + 1 + 8 + 7 - 9,13,15,14,13,920.9703780999408,923.0220028000184,924.5368606999982,929.6133451999632,930.2298121999484,930.2298187999986,931.7456783999224,932.762311899918,e,13,0.6164669999852777,1,+1,264,-21.00645935840986,0.5284414839707465,0.12229172480169392,899089.0,-4.100671649975034,0.2639434897609543,-0.018864252027246398,902680.0,,,,,924.5826663154744,920.9916663154745,
47,51,21,m,1,1,39.0,1,4,low,7 + 8 - 4 + 6 - 5,12,11,12,13,934.2786463999656,936.33782409993,937.8522023999832,942.8711404999484,943.4699242999776,943.4699307000265,944.9871726999992,946.0038429999258,w,12,0.5987838000291958,1,+1,265,-19.23613017832034,0.2807597833525981,-0.2819383340832655,912403.0,28.500644677799446,-0.2672979311987582,-0.1848919715988333,915938.0,,,,,937.8406663154744,934.3056663154745,
48,51,21,m,1,1,40.0,2,2,low,3 + 9 + 1 - 5 + 1,9,7,9,8,947.5205514000264,949.5491755999392,951.0636729999678,956.1301646999782,956.7897035999922,956.7897086999146,958.3312096999724,959.348629200016,w,9,0.659538900014013,1,+1,266,-1.5993018698500538,-12.102759558436151,-20.30119859927023,925616.0,-5.095130487517213,-0.22055123588904424,0.09016412471582425,929197.0,,,,,951.0996663154745,947.5186663154744,
49,51,21,m,1,1,41.0,3,2,low,7 + 1 + 9 - 1 - 8,8,6,7,8,960.8651865000138,962.887648099917,964.4024912000168,969.421665999922,970.197560700006,970.197565899929,971.7135260999204,972.7307360999984,e,8,0.7758947000838816,1,+1,267,-46.13618342675729,-1.0207751213747964,-4.818941469868345,938954.0,22.550612317215762,0.04920372569826181,-1.5596200660108948,942488.0,,,,,964.3906663154745,960.8566663154744,
50,51,21,m,1,1,42.0,4,2,low,4 + 8 + 1 + 1 - 5,9,9,8,11,974.24703530001,976.2684013999532,977.7831729999745,982.8006862999172,983.4216586999828,983.4216646000276,984.937788899988,985.9542777999304,q,9,0.6209724000655115,1,+1,268,-16.882328802052072,0.207827626098243,1.7486472966508102,952335.0,5.179504376395531,-0.21890633601269904,-0.030336398650978147,955868.0,,,,,977.7706663154745,974.2376663154745,
51,51,21,m,1,1,43.0,5,2,low,5 - 1 + 1 + 8 + 9,22,23,22,21,987.4705944999588,989.4934290000238,991.0087873999728,996.02708359994,996.6537021999249,996.6537086999742,998.1708641999868,999.1876447999384,w,22,0.6266185999847949,1,+1,269,13.23496941255805,0.13031755988798688,0.08172626845902053,965560.0,2.2838751845001903,-0.20634710060308015,-0.20783989094301392,969093.0,,,,,990.9956663154744,987.4626663154744,
52,51,21,m,1,1,44.0,6,1,low,6 + 1 + 1 + 9 - 1,16,15,14,16,1000.704521699925,1002.7710137999384,1004.2862156999764,1009.3053526999428,1010.0216151999776,1010.0216219000284,1011.538768599974,1012.555623000022,e,16,0.7162625000346452,1,+1,270,-28.414158147998048,0.7542882966925246,1.6250439641333978,978838.0,1.584593948897787,5.420728143091566,2.5188461653878953,982372.0,,,,,1004.2746663154744,1000.7406663154744,
53,51,21,m,1,1,45.0,7,1,high,7 - 1 + 1 + 9 - 1,15,13,15,14,1014.0718527999708,1016.099180900026,1017.6145159000298,1022.6330581000076,1023.2615695999702,1023.2615749000106,1024.7777519000228,1025.7953454999952,w,15,0.6285114999627694,1,+10,280,-0.036445677330625426,-0.6497037337742197,3.5782969386697396,992166.0,27.781445793438014,-0.056337784763227816,0.06967218516999751,995700.0,,,,,1017.6026663154745,1014.0686663154745,
54,51,21,m,1,1,46.0,8,1,high,3 + 1 + 9 + 1 + 1,15,17,14,15,1027.3121060000267,1029.3365133999614,1030.8515065999236,1035.8692691000178,1036.661454099929,1036.6614588999655,1038.1775251999495,1039.1948894999225,e,15,0.7921849999111146,1,+10,290,-74.61449399250603,1.8263357351797138,-7.0117259629900905,1005403.0,-13.559706704321066,0.012981227122065953,-0.15927672245930102,1008936.0,,,,,1030.8386663154745,1027.3056663154746,
55,51,21,m,1,1,47.0,9,4,high,5 + 9 - 4 + 7 + 6,23,25,24,23,1040.711449699942,1043.370600300026,1044.8857349000173,1049.9036856999155,1050.6934246999444,1050.6934300999856,1052.2099739999976,1053.2272808999987,e,23,0.7897390000289306,1,+10,300,5.5084959718850435,0.7069531526454371,-1.4833811556609504,1019437.0,24.56562560188079,4.3540513587399134,5.42706242489969,1022971.0,,,,,1044.8736663154746,1041.3396663154745,
56,51,21,m,1,1,48.0,10,1,high,4 + 9 + 1 - 1 - 1,12,13,11,12,1054.744540199987,1056.8036277999636,1058.3190729999917,1063.390798999928,1064.2294533000097,1064.2294586999342,1065.7460144999204,1066.7632593999151,e,12,0.8386543000815436,1,+10,310,21.981886715755657,0.6121241004263842,0.12183116140547368,1032870.0,-24.93288233040488,-0.3413062661055548,-0.18660613739435572,1036458.0,,,,,1058.3606663154746,1054.7726663154745,
57,51,21,m,1,1,49.0,11,1,low,3 + 1 + 8 + 1 + 1,14,13,14,12,1068.2800559999887,1070.3112174000123,1071.8255374999717,1076.8437571999384,1077.5093545999844,1077.509360899916,1079.025984399952,1080.04405399994,w,14,0.6655974000459537,1,+1,311,-1.7707653956212859,0.334639625347656,1.0191887071993473,1046377.0,18.81684544461055,-2.2435318244657827,-3.42083858329374,1049910.0,,,,,1071.8126663154746,1068.2796663154745,
58,51,21,m,1,1,50.0,12,3,high,5 + 6 - 4 - 1 + 7,13,14,13,15,1081.5611135999206,1083.6025369999695,1085.118970099953,1090.1395793999543,1090.8453841999872,1090.845389999915,1092.3625649999594,1093.3802680999506,w,13,0.705804800032638,1,+10,321,-33.493868601775,0.91934711494839,-0.15254303840168015,1059669.0,10.612243275478333,0.3613176190947822,-0.04544079112875821,1063206.0,,,,,1085.1086663154745,1081.5716663154747,
59,51,21,m,1,1,51.0,13,3,low,6 - 1 + 7 - 8 + 9,13,11,12,13,1094.897824899992,1097.041903999983,1098.557365100016,1103.5762067999458,1104.349303600029,1104.349308899953,1105.8658652999438,1106.8825369999977,e,13,0.7730968000832945,1,+1,322,-8.739096832825293,-0.3433608064554754,-0.026042515787860765,1073109.0,3.6786447584482858,-0.27181287107059315,-0.05139544667138285,1076643.0,,,,,1098.5456663154746,1095.0116663154745,
60,51,21,m,1,1,52.0,14,4,high,4 + 9 - 7 + 8 + 5,19,20,21,19,1108.399178899941,1110.4253973999294,1111.940220999997,1116.9591958000092,1117.653290899936,1117.6532966999805,1119.1700489999494,1120.1873749999795,e,19,0.6940950999269262,1,+10,332,6.649754887542066,3.03467690926881,3.040416841079875,1086492.0,-17.202983714350562,-0.1979061462209053,-0.019468768709177464,1090026.0,,,,,1111.9286663154746,1108.3946663154745,
61,51,21,m,1,1,53.0,15,4,low,6 + 9 + 7 - 3 - 5,14,15,13,14,1121.704122300027,1123.7551731999265,1125.270379099995,1130.2903222999305,1130.9174543999834,1130.9174616999226,1132.4346420000074,1133.451690100017,e,14,0.6271321000531316,1,+1,333,-16.571564947386147,-0.2851237321277664,2.638214687333913,1099821.0,1.9616158279670337,-1.051590706159558,-6.858390467401801,1103356.0,,,,,1125.2586663154746,1121.7236663154745,
62,51,21,m,1,1,54.0,16,1,low,8 + 1 + 1 + 1 - 3,8,6,8,9,1134.975909099914,1137.002035100013,1138.517943899962,1143.5375150999753,1144.093292900012,1144.0932995999465,1145.6101179999532,1146.627427099971,w,8,0.5557778000365943,1,+1,334,34.076832949554095,-0.20252036652642502,-0.18715650534418993,1113069.0,23.420985174814604,-0.0010747633554095692,-0.05742753983126403,1116604.0,,,,,1138.5066663154746,1134.9716663154745,
63,51,21,m,1,1,55.0,17,3,low,7 - 1 + 9 - 5 + 4,14,14,15,13,1148.1441394999856,1150.1707062999485,1151.6870243999874,1156.7079539999831,1157.453227299964,1157.453232400003,1158.9698978000088,1159.9870044999989,q,14,0.7452732999809086,1,+1,335,5.005499481110437,0.23242969404495728,-0.00093732133099933,1126237.0,15.841201649241182,-0.12141080972797713,-0.05420842613833088,1129774.0,,,,,1151.6766663154744,1148.1396663154746,
64,51,21,m,1,1,56.0,18,4,high,4 + 7 + 9 - 5 + 7,22,23,24,22,1161.5038745999336,1163.5270602999954,1165.0423713999337,1170.0623292999808,1170.7251478999387,1170.7251530999783,1172.2412364999764,1173.258306399919,e,22,0.6628185999579728,1,+10,345,21.22368570244931,-0.5287551022497219,1.0659632967250952,1139594.0,-0.4587519075156514,-0.24662148004426987,-0.12037330003781066,1143129.0,,,,,1165.0316663154745,1161.4966663154746,
65,51,21,m,1,1,57.0,19,2,high,9 + 4 + 5 + 1 - 1,18,18,19,17,1174.7752083999803,1176.836226799991,1178.3520555000289,1183.3701400000136,1184.1091753999935,1184.1091805999167,1185.625637799967,1186.642856999999,q,18,0.7390353999799117,1,+10,355,1.2004949271846126,0.3533303753537145,-0.07047895451597119,1152902.0,27.113083167509895,-0.49644573272703774,0.26663372294740517,1156437.0,,,,,1178.3396663154745,1174.8046663154746,
66,51,21,m,1,1,58.0,20,2,low,8 + 1 + 7 + 1 - 4,13,14,12,13,1188.1598126000026,1190.1902881999267,1191.7057227999903,1196.7256688999478,1197.2930458999472,1197.293051399989,1198.8093114999356,1199.8263764999574,e,13,0.5673769999993965,1,+1,356,3.225243177147446,0.4618735302867445,0.03726285836989751,1166256.0,18.906307437534892,-0.5890479500224926,0.01152946847713654,1169792.0,,,,,1191.6946663154745,1188.1586663154746,
67,51,21,m,1,1,59.0,21,3,low,8 + 5 + 1 - 7 + 9,16,14,17,16,1201.3434566999786,1203.3707566999365,1204.8859075999353,1209.9044546999503,1210.5570785999298,1210.557083599968,1212.0736672999335,1213.0905897999182,e,16,0.6526238999795169,1,+1,357,2.9288749933631957,-2.0471700012283875,7.280654525295462,1179437.0,57.989378928184394,-0.5970760576607788,0.08779857362731303,1182971.0,,,,,1204.8736663154746,1201.3396663154745,
68,51,21,m,1,1,60.0,22,4,low,3 + 9 - 4 + 7 + 6,21,21,20,19,1214.607868299936,1216.6334275000263,1218.1484432999275,1223.1672117999988,1223.829065399943,1223.8290708999848,1225.3451966999564,1226.3620700999163,q,21,0.6618535999441519,1,+1,358,23.332779556587568,0.5328454222159946,-0.10913399493113785,1192700.0,-6.041325435843698,-0.16443904945899712,0.04770356006575738,1196234.0,,,,,1218.1366663154745,1214.6026663154746,
69,51,21,m,1,1,61.0,23,3,high,7 - 5 + 9 + 1 - 4,8,7,9,8,1227.878579500015,1229.9066213999176,1231.4218443999998,1236.4407729000086,1237.1891348999925,1237.1891401999164,1238.7745197999757,1239.7922716999892,e,8,0.7483619999838993,1,+10,368,1.35608174830924,0.07186849609169954,0.06361208725325485,1205973.0,-10.22297629165857,-0.5069411451301957,0.028437364790266262,1209507.0,,,,,1231.4096663154746,1227.8756663154745,
70,51,21,m,1,1,62.0,24,4,high,6 + 9 - 7 + 8 - 5,11,11,12,13,1241.30891849997,1243.3332973999204,1244.8485064000124,1249.8678894999905,1253.8530418999726,1253.8530485000229,1255.370041999966,1256.44816489995,e,13,3.9851523999823257,0,+0,368,2.437551133601505,-0.26807115102660894,0.12260179862037646,1219400.0,-7.608047210298202,-0.5686446867135753,0.19415585662378576,1222934.0,,,,,1244.8366663154745,1241.3026663154747,
71,51,21,m,1,1,63.0,25,1,low,8 + 1 + 1 + 1 - 4,7,8,5,7,1257.9647714999735,1259.9935483000008,1261.508651099983,1266.527915099985,1267.1489557999885,1267.1489613000304,1268.6655219999377,1269.681986499927,e,7,0.6210407000035048,1,+1,369,12.693379896713504,0.34267732464598044,0.036437317544357306,1236060.0,-5.745297076728894,-0.43806378721086014,-0.1880858848684106,1239594.0,,,,,1261.4966663154746,1257.9626663154745,
72,51,21,m,1,1,64.0,26,2,low,6 + 8 + 1 + 1 - 7,9,11,9,8,1271.1988042999292,1273.225940699922,1274.740876100026,1279.7597416000208,1280.500933400006,1280.5009397999384,1282.0174275999889,1283.0344761000017,w,9,0.7411917999852449,1,+1,370,54.835483114503894,-2.5258832817226926,-7.29463196531774,1249293.0,-27.370581154835442,-0.2950874852404821,-0.16043162049825455,1252826.0,,,,,1274.7286663154746,1271.1956663154745,
73,51,21,m,1,1,65.0,27,3,high,6 + 8 + 7 + 1 - 9,13,15,13,14,1284.55081159994,1286.5775902000023,1288.0931555000134,1293.1118359999964,1293.765028199996,1293.7650332999183,1295.282161399955,1296.2990386999445,w,13,0.6531921999994665,1,+10,380,-0.45494738188079964,-0.13086902525629585,-0.0354116792302992,1262644.0,-2.5865277199757593,-0.15765881961751704,0.08331190534448996,1266179.0,,,,,1288.0816663154746,1284.5466663154746,
74,51,21,m,1,1,66.0,28,3,high,4 + 5 - 3 + 7 - 1,12,13,11,12,1297.8158301999792,1299.8405226999894,1301.3552656000247,1306.3741259999806,1306.9648384000177,1306.9648439999437,1308.4815061999252,1309.498624800006,e,12,0.590712400036864,1,+10,390,10.74850429462283,-0.40493067255255033,-0.6316201875067131,1275907.0,2.0197178311920965,0.047763112221878234,-0.04686956554436361,1279440.0,,,,,1301.3426663154746,1297.8096663154745,
75,51,21,m,1,1,67.0,29,3,high,8 - 7 + 9 + 1 + 4,15,14,15,16,1311.0151032999856,1313.0410012999782,1314.5564945000224,1319.5757071999833,1320.116817299975,1320.1168230000185,1321.633527299971,1322.6520048999228,w,15,0.5411100999917835,1,+10,400,-2.356618181082487,-0.15715414043055054,0.028716784067452927,1289107.0,14.463409960159202,-0.1603935138354915,-0.0030647581441998195,1292642.0,,,,,1314.5446663154746,1311.0096663154745,
76,51,21,m,1,1,68.0,30,3,low,8 + 4 + 1 - 7 + 9,15,13,16,15,1324.1757401999785,1326.2018557999982,1327.7167415999577,1332.7361040000103,1333.4767936000137,1333.476798799937,1334.9932341999374,1336.0101992000127,e,15,0.7406896000029519,1,+1,401,-33.264460014482694,0.14282364266769543,0.030199261902867702,1302268.0,6.475332935312941,-2.941083577746052,-4.9165433991279475,1305802.0,,,,,1327.7046663154745,1324.1706663154746,
77,51,21,m,1,1,69.0,31,3,low,9 + 3 - 4 + 6 + 7,21,22,21,23,1337.528333999915,1339.553599099978,1341.0692986999638,1346.0895286999876,1346.7167858999455,1346.7167914999882,1348.267446200014,1349.2842443999834,w,21,0.6272571999579668,1,+1,402,25.125642608505622,0.5338815163851645,5.549090014462267,1315620.0,16.098846114043802,-0.3480278747471588,-0.23324390410249096,1319156.0,,,,,1341.0586663154745,1337.5226663154745,
78,51,21,m,1,1,70.0,32,3,high,9 - 1 + 5 - 6 + 8,15,14,15,17,1350.8009039999451,1352.824240499991,1354.3393658000275,1359.3573761000298,1360.3246284999186,1360.324633799959,1361.840922300005,1362.8576332000084,w,15,0.967252399888821,1,+10,412,1.3648801261225998,0.1914321908301524,-0.15024076103434414,1328891.0,4.932686424618545,-0.39579552949035834,0.07499048734852609,1332424.0,,,,,1354.3266663154745,1350.7936663154746,
79,51,21,m,1,1,71.0,33,4,low,3 + 8 - 4 + 9 + 6,22,21,22,23,1364.3747995999877,1366.3977981000207,1367.9132120999277,1372.9330600999529,1373.5245524999918,1373.524558099918,1375.0407575999852,1376.0574825999793,w,22,0.5914924000389874,1,+1,413,18.696564115405955,-0.5177621829737373,-0.021943159063830375,1342465.0,-0.6136801930789204,-0.08993951794748023,0.060448206945593386,1345999.0,,,,,1367.9016663154746,1364.3676663154745,
80,51,21,m,1,1,72.0,34,2,high,5 + 1 + 7 - 6 + 1,8,8,7,6,1377.574693899951,1379.6128273999784,1381.1280617999146,1386.146592599922,1386.8125283999834,1386.8125342000276,1388.3292297999142,1389.3463135999627,q,8,0.6659358000615612,1,+10,423,14.505769772985673,-0.12415787182362426,0.0080808426393566,1355679.0,-1.305796695124382,-0.5651909740557426,0.12321564651068506,1359213.0,,,,,1381.1156663154745,1377.5816663154746,
81,51,21,m,1,1,73.0,35,2,low,6 + 1 + 1 + 7 - 9,6,4,8,6,1390.8638340999605,1392.8914958999958,1394.4068549999502,1399.4268921000184,1400.116483299993,1400.116488599917,1401.6326315000188,1402.649758699932,e,6,0.6895911999745294,1,+1,424,0.9406541249269491,0.7272619807422682,0.017628549957388717,1368958.0,6.788543176293669,-0.3098680611679958,0.031024001727497197,1372493.0,,,,,1394.3956663154745,1390.8606663154746,
82,51,21,m,1,1,74.0,36,3,high,2 + 1 + 9 - 7 + 6,11,13,12,11,1404.1658653999912,1406.191621899954,1407.7067563999444,1412.7423525999766,1413.380514599965,1413.3805197000038,1414.8965866999931,1415.9136175999884,e,11,0.6381619999883696,1,+10,434,-1.9780235347129889,-0.4289055798424317,3.02617095440633,1382258.0,-5.835878967226426,-0.39989061751630484,-0.16897908617759017,1385809.0,,,,,1407.7116663154745,1404.1606663154746,
83,51,21,m,1,1,75.0,37,4,high,8 + 4 + 7 - 5 - 6,8,7,9,8,1417.4302697000094,1419.4544697999954,1420.969540799968,1425.9881142999511,1426.636438800022,1426.6364438999444,1428.152826900012,1429.1707366999472,e,8,0.6483245000708848,1,+10,444,-13.767808699832198,0.038267121762602496,-0.09477022413724434,1395521.0,6.178771305711294,0.03563419106927013,0.18590390838615356,1399055.0,,,,,1420.9576663154746,1417.4236663154745,
84,51,21,m,1,2,76.0,0,2,low,8 + 1 + 1 + 9 - 4,15,15,16,14,1458.864441499929,1460.89273089997,1462.4078282000264,1467.4273930999916,1468.0444210999412,1468.0444263999816,1469.5609002999263,1470.5773400999606,q,15,0.6170279999496415,1,+1,445,-13.004226205201524,0.32979165447853376,-0.06018513736050979,1436959.0,-2.5892389828995936,-0.588111375360862,-0.08600721019738145,1440493.0,,,,,1462.3956663154745,1458.8616663154746,
85,51,21,m,1,2,77.0,1,1,low,2 + 9 + 1 + 1 + 1,14,14,13,12,1472.093972499948,1474.1206977999536,1475.6355241999263,1480.653353099944,1481.3003187000286,1481.3003236999502,1482.8164551999653,1483.8332896999782,q,14,0.6469656000845134,1,+1,446,-11.646677969171467,0.5730518606578303,0.12715743553507441,1450187.0,76.01614611797993,-0.07833962171855058,-0.2590876732619125,1453720.0,,,,,1475.6226663154746,1472.0896663154745,
86,51,21,m,1,2,78.0,2,2,high,4 + 9 - 7 + 1 - 1,6,5,8,6,1485.349992799922,1487.3751263999147,1488.890855000005,1493.9108358999947,1494.5322829999495,1494.5322881999891,1496.0485856999876,1497.0655057999538,e,6,0.6214470999548212,1,+10,456,-12.282525447416196,0.2074821132079201,-0.047669090120129765,1463442.0,1.1724569539068153,-0.11342018879932825,0.022024984940991477,1466978.0,,,,,1488.8806663154746,1485.3446663154746,
87,51,21,m,1,2,79.0,3,4,low,2 + 9 - 6 + 8 - 4,9,9,7,11,1498.5826196999988,1500.6067488000265,1502.1215752999997,1507.140531699988,1507.8682420999976,1507.8682474999223,1509.3847101000138,1510.4015030999435,q,9,0.7277104000095278,1,+1,457,25.853885543911474,-0.26256197499711087,-0.14845822265401498,1476673.0,-7.133660971198878,0.0606758682848878,-0.0877407362443956,1480207.0,,,,,1502.1096663154747,1498.5756663154746,
88,51,21,m,1,2,80.0,4,2,high,8 + 1 + 4 - 7 + 1,7,7,6,5,1511.9183143000118,1513.9449574999744,1515.460675099981,1520.4789339000126,1521.0922520000022,1521.092257399927,1522.6083217000123,1523.625567800016,q,7,0.6133180999895558,1,+10,467,8.106821340486114,0.0834675143327086,-0.16126094047677952,1490011.0,13.916919771924396,0.3479858265125495,-0.38441559381095436,1493545.0,,,,,1515.4476663154746,1511.9136663154745,
89,51,21,m,1,2,81.0,5,4,low,7 + 6 - 9 + 8 - 3,9,8,9,7,1525.1418282999657,1527.1680034999736,1528.683228299953,1533.7015131999506,1534.4441306999652,1534.444135800004,1535.960671199951,1536.9811528000282,w,9,0.7426175000146031,1,+1,468,11.700088420801993,-0.9902592576983444,0.01718140336640417,1503235.0,-2.0811702844334263,0.1644126017833063,0.26064356154626345,1506768.0,,,,,1528.6706663154746,1525.1376663154745,
90,51,21,m,1,2,82.0,6,4,low,9 + 7 - 5 + 8 + 6,25,27,24,25,1538.497828099993,1540.5238429999445,1542.0390187000155,1547.0573212999152,1547.6841564999197,1547.684161299956,1549.2001843999606,1550.216598100029,e,25,0.6268352000042796,1,+1,469,15.726930466749687,-0.610238172630102,0.07685097083042858,1516591.0,34.29885386668529,0.065641052517738,0.20174552628575748,1520124.0,,,,,1542.0266663154746,1538.4936663154745,
91,51,21,m,1,2,83.0,7,4,low,6 + 7 + 9 - 3 + 5,24,23,22,24,1551.7335192000028,1553.7736163999652,1555.2886981000192,1560.307607499999,1561.02811449999,1561.0281196000287,1562.5440903999845,1563.5605687999632,e,24,0.7205069999909028,1,+1,470,23.689398876212383,-0.6018332008061003,-1.3918159157665908,1529840.0,50.428381818889484,-0.41957505059149103,0.10671959819854204,1533374.0,,,,,1555.2766663154746,1551.7426663154745,
92,51,21,m,1,2,84.0,8,3,low,6 - 1 + 7 - 8 + 9,13,13,12,11,1565.077017999953,1567.105159000028,1568.6208868999963,1573.6393893000204,1574.3400647999952,1574.3400699999183,1575.8562972999644,1576.8728390999604,q,13,0.70067549997475,1,+1,471,43.945127899836805,-2.474002676645268,-4.830960462998467,1543172.0,25.37386153883926,-0.07333919197936378,0.11852258137947125,1546706.0,,,,,1568.6086663154745,1565.0746663154746,
93,51,21,m,1,2,85.0,9,2,low,6 + 1 + 1 + 8 - 9,7,5,7,9,1578.3894298999803,1580.4158358999994,1581.9309518999653,1586.950467800023,1587.716084399959,1587.716089900001,1589.2327278999146,1590.2490714999149,w,7,0.7656165999360383,1,+1,472,12.817195389042073,1.4425070725917797,4.343919120252434,1556482.0,-44.644146291685416,-0.05494229837671094,1.411973010394529,1560017.0,,,,,1581.9196663154746,1578.3846663154745,
94,51,21,m,1,2,86.0,10,2,low,7 + 8 + 1 + 9 + 1,26,24,25,26,1591.7657374999253,1593.78976970003,1595.304942299961,1600.3231480999384,1600.956016800017,1600.9560222999426,1602.4724584999494,1603.4891660999274,e,26,0.6328687000786886,1,+1,473,-16.5664668753295,-11.357349618627167,-15.616652561234002,1569856.0,-1.7347814547042084,-0.0446238381672277,0.06959089875791458,1573390.0,,,,,1595.2926663154747,1591.7586663154746,
95,51,21,m,1,2,87.0,11,1,low,7 - 1 + 9 + 1 - 1,15,13,14,15,1605.0057911999756,1607.0316674999194,1608.546837199945,1613.5675951000303,1614.1879687999608,1614.1879740000004,1615.7043429999612,1616.721179699991,e,15,0.6203736999304965,1,+1,474,-11.63448031281155,0.5296414090716479,0.27166069108353375,1583098.0,14.105430382529862,-0.20595812596672225,0.12534618009401832,1586633.0,,,,,1608.5356663154746,1605.0006663154745,
96,51,21,m,1,2,88.0,12,3,low,2 + 9 - 3 + 4 + 1,13,11,13,14,1618.2378218999363,1620.264790499932,1621.7799624999752,1626.797922699945,1627.4439218000043,1627.4439272999298,1628.9599993999582,1629.976762700011,w,13,0.6459991000592709,1,+1,475,4.985328174977564,0.1408582354958594,-0.018988262028620362,1596331.0,10.417976886387208,-6.730454553133604,-10.771343643784482,1599865.0,,,,,1621.7676663154746,1618.2336663154745,
97,51,21,m,1,2,89.0,13,2,low,3 + 1 + 8 - 5 - 1,6,5,6,7,1631.4937231999356,1633.5192868999438,1635.0343834999949,1640.0526376999917,1640.6038915999234,1640.603896799963,1642.1203012999613,1643.1371649999635,w,6,0.5512538999319077,1,+1,476,-2.7928764290670225,0.13636760948240578,-0.1525217690844749,1609586.0,37.84347302454512,-0.09075273036412268,0.1751189275661087,1613119.0,,,,,1635.0216663154745,1631.4886663154746,
98,51,21,m,1,2,90.0,14,1,high,4 + 8 + 1 - 1 - 1,11,13,11,9,1644.6538112999406,1646.680177800008,1648.19485119998,1653.212539899978,1653.8759242999367,1653.875929699978,1655.392020399915,1656.4089427000144,q,13,0.6633843999588862,0,+0,476,-3.99510805687203,0.15892977708901146,0.02702934642751087,1622746.0,23.766621090412208,-0.7167152601038209,-1.5309474385097834,1626279.0,,,,,1648.1816663154746,1644.6486663154747,
99,51,21,m,1,2,91.0,15,2,high,3 + 8 + 1 - 5 + 1,8,6,8,9,1657.9256821000015,1659.9527248999802,1661.4678026000038,1666.4861270999536,1667.6758297999622,1667.675835300004,1669.1920697999883,1670.2090564999962,w,8,1.1897027000086382,1,+10,486,-23.04237191081402,0.12742092975551733,0.11758530296354497,1636019.0,22.498089879144363,0.11745972446379227,-0.005039773592983909,1639552.0,,,,,1661.4546663154745,1657.9216663154746,
100,51,21,m,1,2,92.0,16,1,high,3 + 1 + 9 + 1 - 1,13,13,14,12,1671.725803099922,1673.753216799931,1675.268336399924,1680.286060399958,1680.9798125999514,1680.979817799991,1682.4969395999797,1683.5141531999689,q,13,0.6937521999934688,1,+10,496,2.93249316615516,0.25973105364154314,-0.032115231841861824,1649819.0,-0.7569331618305677,-0.2359123253860953,0.102921247981413,1653353.0,,,,,1675.2556663154746,1671.7216663154745,
101,51,21,m,1,2,93.0,17,3,high,6 - 1 + 7 - 8 + 9,13,12,11,13,1685.0306857000105,1687.0549724999582,1688.5700161999555,1693.5884223999456,1694.2038132000016,1694.2038183999248,1695.7205626999494,1696.737732599955,e,13,0.6153908000560477,1,+10,506,-19.527648714743496,0.05494706411259109,-0.06787992237488538,1663121.0,-35.01289146943791,-0.28502193055484204,-0.15261600987859714,1666655.0,,,,,1688.5576663154745,1685.0236663154747,
102,51,21,m,1,2,94.0,18,1,high,3 + 1 + 1 + 9 - 1,13,13,12,14,1698.2543908000223,1700.2793700000038,1701.7950611999258,1706.813173100003,1707.483778199996,1707.483783699921,1709.000025499961,1710.0170195000246,q,13,0.6706050999928266,1,+10,516,13.29608976866849,-15.81593797022337,-18.131158968213093,1676346.0,2.7058327984055133,-0.16756919715386687,0.6790516778207853,1679879.0,,,,,1701.7816663154745,1698.2486663154746,
103,51,21,m,1,2,95.0,19,4,low,5 + 7 - 4 - 6 + 9,11,12,11,13,1711.5337074999698,1713.5602878999198,1715.0753325999249,1720.0934431999922,1721.595701299957,1721.5957061999943,1723.11187969998,1724.128391699982,w,11,1.5022580999648198,1,+1,517,-9.53310779939962,0.1931063850685839,-0.11674605256425608,1689627.0,59.594927472098696,0.40224532007001734,-0.10132338331767254,1693160.0,,,,,1715.0626663154746,1711.5296663154745,
104,51,21,m,1,2,96.0,20,4,low,5 + 7 - 4 + 8 + 6,22,23,24,22,1725.6452062999597,1727.6674679999703,1729.1823716999495,1734.2008366999216,1734.9238758999854,1734.923881100025,1736.440158999991,1737.4568624999374,e,22,0.7230392000637949,1,+1,518,33.06280174425875,0.4761111911863436,-13.290223318875306,1703734.0,11.711023522929935,0.3567121878645878,-0.011110158946082027,1707267.0,,,,,1729.1696663154746,1725.6366663154745,
105,51,21,m,1,2,97.0,21,3,high,2 + 1 + 9 - 4 + 6,14,14,15,16,1738.973364399979,1741.0002822999377,1742.5154599000234,1747.5342610999942,1748.1476631999249,1748.147668599966,1749.6650522999698,1750.68217299995,q,14,0.6134020999306813,1,+10,528,0.009221809794491165,0.18497107109193012,0.1773418588622473,1717066.0,15.73223143750409,-0.16984568142621503,0.2957529090503743,1720600.0,,,,,1742.5026663154745,1738.9686663154746,
106,51,21,m,1,2,98.0,22,3,low,6 + 7 + 8 + 1 - 9,13,14,13,15,1752.1986222999403,1754.222825899953,1755.7379389000123,1760.7563050999306,1761.4275726999622,1761.427578200004,1762.9439360999968,1763.9602753999643,w,13,0.6712676000315696,1,+1,529,18.587473852512495,0.341163670587898,0.20348453576750147,1730289.0,-1.209473559155768,-2.0317582355117354,-5.548330524798004,1733823.0,,,,,1755.7256663154747,1752.1916663154745,
107,51,21,m,1,2,99.0,23,3,high,4 + 8 - 9 + 1 + 7,11,11,13,9,1765.4769890999887,1767.4988933999557,1769.0143965999596,1774.0338543999242,1774.6355296999682,1774.6355349000078,1776.1518760999895,1777.1686666000169,q,11,0.6016753000440076,1,+10,539,3.5181651896318726,-0.942737492619826,-1.17266376631237,1743565.0,-1.9246658873367721,-0.6222505652508525,-0.1536131288152225,1747100.0,,,,,1769.0026663154745,1765.4676663154746,
108,51,21,m,1,2,100.0,24,2,low,9 + 4 - 6 + 1 - 1,7,8,9,7,1778.6853253999725,1780.712633999996,1782.2278678999282,1787.2472319999945,1787.8275344999274,1787.8275399999693,1789.3436012999157,1790.3599315999309,q,8,0.5803024999331683,0,+0,539,-4.749832961224843,0.3588081714951419,0.5261628900062068,1756779.0,13.58403350375982,-2.4033733005841293,-7.475006325363377,1760313.0,,,,,1782.2156663154747,1778.6816663154746,
109,51,21,m,1,2,101.0,25,1,low,6 + 1 + 8 + 1 - 1,15,13,15,14,1791.876973800012,1793.904590699938,1795.4197711999295,1800.4378648999846,1801.323561899946,1801.3235670999857,1802.839724499965,1803.8564836999867,w,15,0.8856969999615103,1,+1,540,31.4113521875621,-0.17195957596368672,-0.2992006717425908,1769971.0,-14.402453474470118,-0.3802267096533023,0.12416758501085878,1773504.0,,,,,1795.4066663154745,1791.8736663154746,
110,51,21,m,1,2,102.0,26,4,high,3 + 8 - 7 + 9 - 5,8,8,7,9,1805.373048099922,1807.399074899964,1808.914863899932,1813.9348010999383,1814.5315232999856,1814.531528700027,1816.047511999961,1817.064566200017,q,8,0.5967222000472248,1,+10,550,27.839825190199715,0.5899505999108707,-0.04766197229069258,1783465.0,-2.9498144752304114,-0.08428439729961168,-0.09001817517623545,1787001.0,,,,,1808.9036663154745,1805.3676663154745,
111,51,21,m,1,2,103.0,27,1,low,2 + 1 + 9 + 1 + 1,14,12,14,13,1818.5816984999688,1820.608274099999,1822.1234645999505,1827.141557199997,1827.8755310999693,1827.8755362000084,1829.3917608999184,1830.4080368999855,w,14,0.7339738999726251,1,+1,551,-29.145165674478562,2.9214237341997653,5.930775358108702,1796674.0,8.388735158197633,-9.085318494959191,-9.195715827249236,1800208.0,,,,,1822.1106663154746,1818.5766663154745,
112,51,21,m,1,2,104.0,28,2,high,6 + 1 + 8 + 5 - 1,19,17,19,18,1831.9247352000093,1833.94952429994,1835.4647618000165,1840.483988199965,1841.15542309999,1841.1554283000296,1842.6724738000196,1843.689580300008,w,19,0.6714349000249058,1,+10,561,45.728895558218355,-0.34679871680969265,3.059007992992253,1810016.0,26.58075143692094,0.13218296549787922,-0.15179058715832605,1813550.0,,,,,1835.4526663154745,1831.9186663154746,
113,51,21,m,1,2,105.0,29,1,high,9 + 7 + 1 + 1 + 1,19,19,18,20,1845.2059610999424,1847.2329522999933,1848.7479509999976,1853.765594700002,1854.547444799915,1854.547449799953,1856.0634855999376,1857.0804849999256,q,19,0.7818500999128446,1,+10,571,10.396013563683036,-0.20763428530048378,-0.09553856162014407,1823299.0,-10.02768634064465,0.40615374207854105,0.017920606690360774,1826832.0,,,,,1848.7346663154747,1845.2016663154745,
114,51,21,m,1,2,106.0,30,4,low,4 + 7 - 8 + 9 - 3,9,11,8,9,1858.597083400004,1860.6223856,1862.1378347999416,1867.1561190999344,1868.1154025000287,1868.1154078999532,1869.632790899952,1870.649517999962,e,9,0.9592834000941366,1,+1,572,-21.681093359561345,0.35151576860434375,-0.09169751504494217,1836688.0,-1.7471949158998967,0.02914608356673387,0.33833814043423116,1840222.0,,,,,1862.1246663154745,1858.5906663154747,
115,51,21,m,1,2,107.0,31,1,low,6 + 9 + 1 + 1 - 1,16,15,16,14,1872.166040299926,1874.2116674999704,1875.726814699941,1880.74504379998,1881.3473356999457,1881.3473410999868,1882.8635008999845,1883.8800079999487,w,16,0.602291899966076,1,+1,573,16.697691396911964,0.20998690995606983,0.7582544577148687,1850277.0,-12.072762070687732,-2.322589070815223,-2.426068626645817,1853811.0,,,,,1875.7136663154745,1872.1796663154746,
116,51,21,m,1,2,108.0,32,1,high,6 + 9 + 1 + 1 - 1,16,16,14,15,1885.3967938999413,1887.423613199964,1888.938823399949,1893.9577329999304,1894.6513817999512,1894.6513869999908,1896.167790699983,1897.184847699944,q,16,0.6936488000210375,1,+10,583,16.73586584324991,-0.14074571690487003,-0.5974459011676707,1863490.0,-33.50280591726777,-0.4008154195155531,-0.09118514836187375,1867024.0,,,,,1888.9266663154744,1885.3926663154746,
117,51,21,m,1,2,109.0,33,1,high,7 - 1 + 8 + 1 - 1,14,14,13,12,1898.701724299928,1900.7258513999404,1902.240960999974,1907.2594707999376,1907.9072610000148,1907.9072662999388,1909.4233752000143,1910.4406136999603,q,14,0.6477902000769973,1,+10,593,-4.459525342558021,-0.07648700336336889,-0.1610220950246264,1876792.0,3.964411078541488,-0.1719256555171893,0.1127418946139751,1880325.0,,,,,1902.2276663154746,1898.6946663154745,
118,51,21,m,1,2,110.0,34,2,high,6 + 1 + 1 + 7 - 9,6,8,4,6,1911.9571673999308,1913.9841289999893,1915.4991341999264,1920.516984099988,1921.14726899995,1921.1472740999889,1922.6637560999952,1923.6808146999683,e,6,0.6302848999621347,1,+10,603,3.728984213299519,1.21894074345495,14.642877869088299,1890050.0,-25.992420239844126,-1.0952616320469755,-1.0963828220605496,1893584.0,,,,,1915.4866663154746,1911.9526663154745,
119,51,21,m,1,2,111.0,35,3,high,2 - 4 + 9 + 7 + 1,15,15,13,16,1925.1971726999616,1927.223320799996,1928.73847500002,1933.7569379999768,1934.3792431999464,1934.3792485999877,1935.89518579992,1936.9124000000304,q,15,0.6223051999695599,1,+10,613,10.00225079521917,0.2378667440554083,-0.20457336464986264,1903290.0,-8.757560998699404,0.2139531537024708,0.22782088201224093,1906823.0,,,,,1928.7256663154747,1925.1926663154745,
120,51,21,m,1,2,112.0,36,2,low,9 + 6 + 1 + 7 + 1,24,23,25,24,1938.4292472000236,1940.455260799965,1941.9701257999984,1946.9881409999216,1947.907123700017,1947.9071295999456,1949.4234538999156,1950.439590999973,e,24,0.918982700095512,1,+1,614,12.350716468348748,-0.3200602502071388,-0.46268802445706303,1916521.0,-17.089576196695855,-0.38520643002941,0.056386164842002984,1920054.0,,,,,1941.9566663154746,1938.4236663154745,
121,51,21,m,1,2,113.0,37,1,low,5 + 1 + 1 + 9 + 1,17,16,17,19,1951.9563107999277,1953.9837893999647,1955.498994600028,1960.5164644999893,1961.251254700008,1961.251260299934,1962.7679487999997,1963.7847504999957,w,17,0.734790200018324,1,+1,615,9.762750102737948,0.1708661354468064,-0.0032565450247568073,1930050.0,3.731322352180232,-0.26681716834908054,0.020684370058914547,1933582.0,,,,,1955.4846663154747,1951.9526663154745,
122,51,21,m,1,3,114.0,0,4,low,2 + 5 - 3 + 9 + 8,21,19,22,21,2047.1989186999851,2049.226842999924,2050.7420360000106,2055.762708400027,2056.410814599949,2056.4108197999885,2057.9275179000106,2058.944326699944,e,21,0.6481061999220401,1,+1,616,-2.7969044826669425,0.4123882142324762,0.8228596728635162,2025293.0,-21.66591205648804,-0.17852974566336455,-0.4215093592308037,2028828.0,,,,,2050.7306663154745,2047.1956663154745,
123,51,21,m,1,3,115.0,1,2,low,2 + 1 + 9 - 4 + 1,9,8,9,11,2060.461004899931,2062.489050899981,2064.004163399921,2069.0223214,2069.786886799964,2069.786892200005,2071.303009999916,2072.319693199941,w,9,0.76456539996434,1,+1,617,-10.588174263777326,-12.551005390784404,-21.202776475296087,2038555.0,14.572183982308651,-0.3150331785517131,-0.07550938790945905,2042088.0,,,,,2063.9906663154743,2060.4576663154744,
124,51,21,m,1,3,116.0,2,2,high,7 + 6 + 1 + 8 + 1,23,21,23,22,2073.836477799923,2075.86330550001,2077.378059200011,2082.3966777999885,2082.978988299961,2082.9789937000023,2084.495092199999,2085.512167799985,w,23,0.5823104999726638,1,+10,627,6.8625625523772165,2.829962428294326,2.488087475162403,2051929.0,30.062524004020325,-0.15196139846855417,0.2871827091473782,2055462.0,,,,,2077.3646663154746,2073.8316663154746,
125,51,21,m,1,3,117.0,3,3,low,5 - 1 - 4 + 6 + 7,13,15,13,14,2087.0287798999343,2089.054790799972,2090.569890899933,2095.5886597000062,2096.2588019999675,2096.25880760001,2097.7749986000126,2098.791707199998,w,13,0.6701422999612987,1,+1,628,-5.483800098877921,-0.06394952838614376,0.48427829917178045,2065121.0,-11.96568039014642,1.0391633883545763,9.87218389664539,2068654.0,,,,,2090.5566663154746,2087.0236663154747,
126,51,21,m,1,3,118.0,4,2,low,2 + 1 + 9 - 4 + 1,9,8,11,9,2100.3080610999605,2102.3367749999743,2103.851866899989,2108.869905599975,2109.658672099933,2109.658677199972,2111.1752447999315,2112.1919838999165,e,9,0.7887664999580011,1,+1,629,9.081781334029843,3.420135637946912,2.313756420211589,2078402.0,17.086972497416482,0.17366083108897845,0.3061803618136656,2081936.0,,,,,2103.8386663154747,2100.3046663154746,
127,51,21,m,1,3,119.0,5,1,high,5 + 6 + 1 + 1 + 1,14,13,16,14,2113.708585300017,2115.7361026,2117.251301100012,2122.2692426999565,2123.2346883999417,2123.234693799983,2124.751267799991,2125.768339399947,e,14,0.9654456999851392,1,+10,639,-15.274903283890964,0.10186068966610451,0.5646680556659334,2091802.0,16.71772169387144,0.13708991754312416,0.0793222314852775,2095335.0,,,,,2117.2376663154746,2113.7046663154747,
128,51,21,m,1,3,120.0,6,3,low,3 + 1 + 8 - 5 + 6,13,13,14,15,2127.284910999937,2129.3092646999285,2130.8244268000126,2135.842711400008,2136.4746090000262,2136.474614799954,2137.990990899969,2139.0084467999404,q,13,0.6318976000184193,1,+1,640,6.624225868510683,0.24043538737184456,-0.05182690576621529,2105375.0,-10.156373920943242,-0.04050152020375286,0.20232907761126984,2108908.0,,,,,2130.8106663154745,2127.2776663154746,
129,51,21,m,1,3,121.0,7,4,low,9 + 8 - 5 - 7 + 6,11,10,11,13,2140.524986699922,2142.5528997000074,2144.068029899965,2149.08664949995,2150.338626399985,2150.338632100029,2151.8546186999884,2152.871808300028,w,11,1.2519769000355154,1,+1,641,-35.87161208786142,0.4704526928289843,0.20425892181012562,2118619.0,13.124518763977669,-0.10269529325789861,0.07370819634640835,2122152.0,,,,,2144.0546663154746,2140.5216663154747,
130,51,21,m,1,3,122.0,8,2,low,8 + 1 + 9 + 1 - 5,14,13,14,15,2154.3883752999827,2156.414587899926,2157.9297550999327,2162.9489791999804,2163.530667399988,2163.5306724000257,2165.047161799972,2166.063850699924,w,14,0.5816882000071928,1,+1,642,-0.3555682018539912,0.2569754891708267,-0.2734763167455092,2132480.0,5.216282755297707,-0.042971670399320594,-0.013916096093028685,2136015.0,,,,,2157.9176663154744,2154.3826663154746,
131,51,21,m,1,3,123.0,9,1,high,5 + 6 + 1 + 1 + 1,14,14,15,16,2167.5805638999445,2169.6072600999614,2171.122383399983,2176.141088699922,2176.762543199933,2176.7625480999704,2178.27898069995,2179.2964888999704,q,14,0.6214545000111684,1,+10,652,14.228250006596925,0.5410175144981757,-0.1467165561329966,2145673.0,-16.157559557875224,-0.05648483201265275,-0.2553331578775777,2149206.0,,,,,2171.1086663154747,2167.5756663154743,
132,51,21,m,1,3,124.0,10,1,low,8 + 1 + 5 + 1 + 1,16,17,15,16,2180.8131810999475,2182.8611402999377,2184.3762792999623,2189.394554300001,2190.162593599991,2190.162598899915,2191.6786563999485,2192.6953527999576,e,16,0.7680392999900505,1,+1,653,14.264000832066934,-1.1382948934485064,-2.974058131857219,2158927.0,6.743852415940339,0.09019599736411132,0.2636693849435554,2162460.0,,,,,2184.3626663154746,2180.8296663154747,
133,51,21,m,1,3,125.0,11,1,high,9 + 8 + 1 + 1 - 1,18,18,17,20,2194.2126648999983,2196.23873490002,2197.7539717999757,2202.773162500001,2203.434458500007,2203.4344636999303,2204.9504080999177,2205.967329200008,q,18,0.6612960000056773,1,+10,663,4.567793279122462,2.360332056026942,2.401677003385617,2172305.0,-41.61839526541194,0.38582553604552583,-0.09380007918115885,2175839.0,,,,,2197.7416663154745,2194.2076663154744,
134,51,21,m,1,3,126.0,12,1,high,3 + 1 + 8 + 1 + 1,14,14,13,16,2207.4840564000187,2209.507943299948,2211.0232174999546,2216.0408406999195,2216.698777899961,2216.698782899999,2218.2151184999384,2219.232233699993,q,14,0.6579372000414878,1,+10,673,5.950281506498079,0.8244994410151807,-0.43804814288520966,2185574.0,8.467818726426035,0.05349793130766267,0.294378195743201,2189107.0,,,,,2211.0096663154745,2207.4766663154746,
135,51,21,m,1,3,127.0,13,4,high,3 + 8 - 4 + 9 + 7,23,23,22,24,2220.749027199927,2222.7740124999546,2224.289243099978,2229.3075081999414,2230.5064395000227,2230.5064452999504,2232.0229456999805,2233.0400758999167,q,23,1.1989313000813129,1,+10,683,-6.463719278744045,0.2502870379343509,0.14538494810331093,2198840.0,-1.735519841974451,-0.2415198257985871,0.042758020127754204,2202373.0,,,,,2224.2756663154746,2220.7426663154747,
136,51,21,m,1,3,128.0,14,1,low,8 - 1 + 1 + 6 + 1,15,14,15,16,2234.556702199974,2236.585118399933,2238.1002206000267,2243.11803839996,2243.842397899949,2243.8424031999893,2245.3591996999457,2246.375911399955,w,15,0.7243594999890774,1,+1,684,22.849403703125553,1.1940904419675782,-2.669028525576528,2212651.0,-5.385571245428565,-1.0373717678528802,-4.198686129699733,2216184.0,,,,,2238.0866663154748,2234.5536663154744,
137,51,21,m,1,3,129.0,15,3,low,3 - 7 + 5 + 1 + 9,11,11,12,13,2247.89266709995,2249.9186441999627,2251.4336668999167,2256.4535218999954,2257.1623944999883,2257.1623999000294,2258.679048400023,2259.6956258999417,q,11,0.7088725999929011,1,+1,685,-6.681654151584631,0.39669177008809653,-0.5699998454770694,2225985.0,14.195362268619785,0.006978414550408374,-0.16209433225506675,2229519.0,,,,,2251.4216663154743,2247.8876663154747,
138,51,21,m,1,3,130.0,16,4,high,8 + 4 + 7 - 5 - 6,8,8,6,9,2261.212290799944,2263.236152000027,2264.751243799925,2269.76986250002,2270.61036079994,2270.6103662999813,2272.1270490000024,2273.1442514000228,q,8,0.8404982999200001,1,+10,695,20.51464841475251,-0.4730331728550383,-2.6059804815760876,2239302.0,-25.477460368791377,0.2505745147790126,-0.07658542448767358,2242836.0,,,,,2264.7386663154743,2261.2046663154747,
139,51,21,m,1,3,131.0,17,4,low,6 + 5 - 7 + 8 - 9,3,4,5,3,2274.660940199974,2276.686960699968,2278.202037599985,2283.2213733999524,2284.0982810999267,2284.098286599969,2285.6145006000297,2286.6314415999223,e,3,0.8769076999742538,1,+1,696,5.346876333909471,-0.039748700586184516,-0.007820344875546503,2252752.0,-21.340368710916678,-0.31126965169505505,0.04864869528786864,2256286.0,,,,,2278.1886663154746,2274.6546663154745,
140,51,21,m,1,3,132.0,18,3,high,2 + 1 + 9 - 5 + 6,13,11,14,13,2288.146805400029,2290.175923299976,2291.6908676999155,2296.7095024000155,2297.4502615999663,2297.4502666000044,2298.966652699979,2299.983634199947,e,13,0.740759199950844,1,+10,706,8.651585300217612,0.5528888808711154,-0.405576432321201,2266241.0,19.674336987975266,0.3594884056709251,0.12091854011687575,2269775.0,,,,,2291.6776663154747,2288.1436663154745,
141,51,21,m,1,3,133.0,19,4,low,4 + 7 + 8 - 3 + 9,25,25,24,26,2301.5003585999366,2303.5286837000167,2305.0438977000304,2310.0622241999954,2310.938200399978,2310.9382053000154,2312.4548105000285,2313.472498500021,q,25,0.8759761999826878,1,+1,707,0.5430100969083114,1.5592560242503346,-2.9536399204490316,2279595.0,13.5877534681748,-18.99829547344895,-17.00672368641717,2283128.0,,,,,2305.0306663154747,2301.4976663154744,
142,51,21,m,1,3,134.0,20,4,low,7 + 6 - 9 + 8 - 3,9,9,8,7,2314.989201099961,2317.015494399937,2318.5309894999955,2323.549137599999,2324.458230499993,2324.4582359999185,2325.9748044000007,2326.991511499975,q,9,0.9090928999939932,1,+1,708,-46.50432339675973,0.23553126719341977,-0.4443962212702841,2293081.0,17.583739140097087,-0.6493152801860802,0.061313854232010634,2296615.0,,,,,2318.5176663154743,2314.9836663154747,
143,51,21,m,1,3,135.0,21,4,low,2 + 9 - 4 + 8 + 7,22,22,23,21,2328.508210900007,2330.533912400017,2332.04918490001,2337.067564200028,2337.682216899935,2337.6822220999748,2339.198895899928,2340.2155810999684,q,22,0.6146526999073103,1,+1,709,-15.245466693277947,0.8599137824641967,0.1612492496939235,2306599.0,-5.212472228245018,-0.3192282960417052,0.012526278935304225,2310133.0,,,,,2332.0356663154744,2328.5016663154747,
144,51,21,m,1,3,136.0,22,3,low,8 + 3 + 1 - 7 + 9,14,14,15,12,2341.7322982000187,2343.760359799955,2345.275412900024,2350.2937507999595,2350.8261245000176,2350.8261298999423,2352.3428105999483,2353.359564799932,q,14,0.5323737000580877,1,+1,710,24.19723306654549,-0.5534864054124249,-1.208328153408507,2319826.0,-18.398706590015514,-0.038351530078707174,0.00016891656708173386,2323359.0,,,,,2345.2616663154745,2341.7286663154746,
145,51,21,m,1,3,137.0,23,2,low,7 + 5 + 1 - 1 - 8,4,3,2,4,2354.875899599981,2356.903529800009,2358.41854470002,2363.4382910999702,2364.074094099924,2364.074099199963,2365.5904363999143,2366.607183999964,e,4,0.6358029999537393,1,+1,711,-28.92689144275544,0.02627998808302312,0.0363977118620169,2332968.0,-45.98642898467304,-0.38798260584255484,-0.38679406033758656,2336504.0,,,,,2358.4066663154745,2354.8706663154744,
146,51,21,m,1,3,138.0,24,1,low,3 + 1 + 8 - 1 + 1,12,12,10,13,2368.12366199994,2370.150647499948,2371.665804999997,2376.6836752999807,2377.2341490000254,2377.234154099948,2378.75087410002,2379.7686329999706,q,12,0.5504737000446767,1,+1,712,-0.8899520094501341,0.407802481096756,-0.032130543196785766,2346216.0,-17.541629811937163,0.1866235968565988,0.3129821899910472,2349749.0,,,,,2371.6516663154744,2368.1186663154745,
147,51,21,m,1,3,139.0,25,3,high,7 + 5 + 9 + 1 - 6,16,15,16,14,2381.285232299939,2383.3124687999957,2384.82755009993,2389.84713619994,2390.417959999992,2390.4179651000304,2391.934260400012,2392.9514065999538,w,16,0.5708238000515848,1,+10,722,12.438645509677297,0.37801463707050464,-0.10444361402848168,2359378.0,-34.722753974541675,0.045080496696902284,-0.0049688537468868255,2362913.0,,,,,2384.8156663154746,2381.2806663154747,
148,51,21,m,1,3,140.0,26,1,high,5 + 9 - 1 + 1 + 1,15,15,17,13,2394.468016300001,2396.491593300016,2398.006699700025,2403.024635299924,2403.609948499943,2403.6099533999804,2405.1266786999768,2406.143671100028,q,15,0.5853132000193,1,+10,732,-8.620081673719977,-0.18855318224269846,-0.14881121114667373,2372557.0,-35.649712401662285,-0.32577841357191284,-0.3887359113877027,2376090.0,,,,,2397.9926663154747,2394.4596663154744,
149,51,21,m,1,3,141.0,27,2,low,5 + 8 + 1 - 1 + 9,22,23,22,21,2407.660368299926,2409.689122800017,2411.2042947999435,2416.22197850002,2416.793944499921,2416.793949499959,2418.3102653999813,2419.3270893999143,w,22,0.5719659999012947,1,+1,733,-36.89143362811855,-0.5749675966107821,-2.0425609836865313,2385754.0,13.669830179001634,-0.2996615401826861,-0.00600215558657613,2389288.0,,,,,2411.1906663154746,2407.6566663154745,
150,51,21,m,1,3,142.0,28,2,high,7 + 6 + 1 - 1 - 8,5,5,3,4,2420.8439522000263,2422.8709258999443,2424.38636340003,2429.405109099928,2430.017896199948,2430.017901299987,2431.534081800026,2432.5512935000006,q,5,0.6127871000207961,1,+10,743,-6.126623270427713,6.9639095217583336,7.1597469241927545,2398936.0,-22.28576192857011,-0.2980864830516512,-2.8966025693048474,2402471.0,,,,,2424.3736663154746,2420.8386663154747,
151,51,21,m,1,3,143.0,29,4,low,4 + 8 + 9 - 3 + 7,25,24,25,26,2434.068089199951,2436.0915144999744,2437.606258600019,2442.624392699916,2446.017856499995,2446.01786189992,2447.53394819994,2448.551312500029,q,24,3.393463800079189,0,+0,743,7.024894793498902,0.5555727900663316,3.166100062739697,2412157.0,-7.0260774181154595,0.13941946543322237,-0.08209463414292761,2415690.0,,,,,2437.5926663154746,2434.0596663154747,
152,51,21,m,1,3,144.0,30,1,low,2 + 9 + 1 + 1 + 1,14,13,12,14,2450.067663099966,2452.095766899991,2453.611046899925,2458.628991400008,2459.401894700015,2459.40190009994,2460.9184183999896,2461.935049099964,e,14,0.7729033000068739,1,+1,744,-4.959584084831068,1.620365515865175,9.039764510797289,2428161.0,-17.946568019846392,0.006120700697487269,-0.5343010950180829,2431694.0,,,,,2453.5966663154745,2450.0636663154746,
153,51,21,m,1,3,145.0,31,4,low,5 + 8 - 4 - 6 + 9,12,14,12,13,2463.4521853999468,2465.4798033999978,2466.9946910999715,2472.012488799985,2472.6098148999736,2472.609820200014,2474.127655999968,2475.1446907999925,w,12,0.5973260999890044,1,+1,745,5.276343082194084,0.8152011195257471,-0.18825564918609228,2441545.0,-7.49308407307692,-1.7199515829280956,-0.3093025895529531,2445078.0,,,,,2466.9806663154745,2463.4476663154746,
154,51,21,m,1,3,146.0,32,3,low,4 + 1 + 8 + 9 - 5,17,17,19,18,2476.6614887999604,2478.6891966999974,2480.2042670999654,2485.222035499988,2485.785819699988,2485.785824700026,2487.3019931999734,2488.3187505999813,q,17,0.5637841999996454,1,+1,746,48.243132876715514,1.1416900737589906,1.896141779198011,2454755.0,-3.5412813387900464,-0.09079530910375322,-0.21905883757227995,2458288.0,,,,,2480.1906663154746,2476.6576663154747,
155,51,21,m,1,3,147.0,33,2,high,5 + 9 - 8 + 1 + 1,8,9,8,7,2489.835821699933,2491.9106675999938,2493.425730500021,2498.443568399991,2499.0177037999965,2499.01770899992,2500.534403699916,2501.551499699941,w,8,0.5741354000056162,1,+10,756,-20.666407997837403,0.10660345252011716,-0.33833900227323177,2467975.0,42.80801265028433,0.3456640910601041,0.14708542675296776,2471509.0,,,,,2493.4116663154746,2489.8776663154745,
156,51,21,m,1,3,148.0,34,1,low,7 + 1 + 4 + 1 - 1,12,13,14,12,2503.067721799948,2505.0958515999373,2506.6110712999944,2511.629627999966,2512.425693099969,2512.4256980000064,2513.942187699955,2514.9595327000134,e,12,0.7960651000030339,1,+1,757,-24.682007690138928,0.33502116328233145,0.0752733618816448,2481161.0,-26.690855876630586,0.10654271528828563,-0.1936978963510385,2484695.0,,,,,2506.5976663154747,2503.0636663154746,
157,51,21,m,1,3,149.0,35,4,low,2 + 9 - 3 + 5 + 8,21,22,21,23,2516.476559199975,2518.503984399955,2520.019094499992,2525.037726499955,2525.745741599938,2525.745746999979,2527.26294159994,2528.279733999981,w,21,0.708015099982731,1,+1,758,4.033138761858979,-0.006518356274736625,6.891404967041871,2494569.0,2.9250330825356308,8.180078565324893,3.147404104610681,2498103.0,,,,,2520.0056663154746,2516.4716663154745,
158,51,21,m,1,3,150.0,36,2,high,6 + 1 + 7 + 5 - 1,18,16,17,18,2529.796470099944,2531.8223232999444,2533.3369202999165,2538.355203900021,2538.9456765999785,2538.94568200002,2540.4618481999496,2541.478845799924,e,18,0.5904726999578997,1,+10,768,4.40030593435924,0.05194423668325676,0.2593985616686072,2507887.0,53.60773284487013,0.09146927953203132,0.08510952851960907,2511420.0,,,,,2533.3226663154746,2529.7896663154747,
159,51,21,m,1,3,151.0,37,1,high,9 + 8 + 1 + 1 - 1,18,18,17,19,2542.9954217999475,2545.021794699948,2546.536916299956,2551.5549400999444,2552.209591699997,2552.20959689992,2553.7262901000213,2554.743147499976,q,18,0.6546516000526026,1,+10,778,-61.92254571712616,0.2880660667016639,-0.19556269560006045,2521087.0,9.62209554946126,-0.11431835724156292,-0.0836991702942087,2524620.0,,,,,2546.5226663154745,2542.9896663154746,
160,51,21,m,1,4,152.0,0,2,low,6 + 1 + 8 + 7 - 1,21,21,23,19,2620.341862299945,2622.369738999987,2623.8846011999995,2628.9045243000146,2630.6174413999543,2630.617446599994,2632.134070799919,2633.150878899964,q,21,1.7129170999396592,1,+1,779,12.87108582070672,0.38358000848887475,-0.6036449037811753,2598435.0,-4.559981374423863,0.07815653239153919,-0.315698293069135,2601970.0,,,,,2623.8726663154744,2620.3376663154745,
161,51,21,m,1,4,153.0,1,2,low,8 + 1 + 9 + 1 - 4,15,15,14,16,2634.668436100008,2636.6924809999764,2638.207568499958,2643.2255777999526,2643.8334125999827,2643.833418000024,2645.349973000004,2646.366791600012,q,15,0.6078348000301048,1,+1,780,-2.115555079241343,0.6639232432075923,0.07395472746704312,2612758.0,-19.27452339206354,0.12234323030648353,0.07095637336635896,2616291.0,,,,,2638.1936663154747,2634.6606663154744,
162,51,21,m,1,4,154.0,2,3,low,7 - 1 + 8 - 6 + 4,12,12,13,11,2647.883513699984,2649.9119701000163,2651.4270320999203,2656.4468748000218,2657.089339099941,2657.08934419998,2658.605483399937,2659.621861999971,q,12,0.6424642999190837,1,+1,781,-14.402693316072975,0.1397458507261784,-0.18604088223099047,2625976.0,-3.952219623186256,2.9297077126149462,-0.6019199967828515,2629511.0,,,,,2651.4136663154745,2647.8786663154747,
163,51,21,m,1,4,155.0,3,2,high,9 + 6 + 1 + 7 + 1,24,25,24,23,2661.138458299916,2663.164284499944,2664.67948479997,2669.6975075999508,2670.3133011999307,2670.313306899974,2671.8294411000097,2672.84623679996,w,24,0.615793599979952,1,+10,791,0.9448186216165984,0.24584283445496702,0.40464268931059055,2639229.0,1.639187149115422,-0.1741334011608413,-0.005798013693088855,2642762.0,,,,,2664.6646663154747,2661.1316663154744,
164,51,21,m,1,4,156.0,4,3,low,3 + 8 + 1 + 5 - 9,8,8,9,7,2674.363050299929,2676.390387899941,2677.9054863000056,2682.9232552999165,2683.513320699916,2683.5133256999543,2685.0294762999984,2686.0462792000035,q,8,0.5900653999997303,1,+1,792,5.426603049606637,0.0377718407103651,0.1255017353900838,2652455.0,9.691657400313716,0.6102349497970807,-3.698079054463694,2655988.0,,,,,2677.8906663154744,2674.3576663154745,
165,51,21,m,1,4,157.0,5,1,high,4 + 7 + 1 - 1 - 1,10,9,10,11,2687.562998699956,2689.587102600024,2691.10220939992,2696.122232900001,2696.713328899932,2696.713334299973,2698.2305170999607,2699.247374799917,w,10,0.5910959999309853,1,+10,802,47.12424514080476,-0.6896910007966719,-4.539682877128168,2665652.0,-17.39385371674028,7.615973739454514,5.300203945691479,2669187.0,,,,,2691.0896663154745,2687.5546663154746,
166,51,21,m,1,4,158.0,6,4,high,5 + 6 - 4 + 7 + 9,23,25,23,24,2700.764056599932,2702.789437899948,2704.304586299928,2709.3228876999347,2709.9611938999733,2709.961198900012,2711.477494599996,2712.494588200003,w,23,0.6383062000386417,1,+10,812,-45.734126727341845,0.4809686020313668,-0.21141231512884895,2678854.0,-9.296211869958874,-0.17672524807293888,0.013968377877816351,2682388.0,,,,,2704.2906663154745,2700.7566663154744,
167,51,21,m,1,4,159.0,7,4,high,8 + 4 - 5 + 7 - 6,8,6,8,7,2714.0112064999994,2716.037386299926,2717.552513099974,2722.5707909999182,2723.561159799923,2723.5611650999635,2725.077734799939,2726.0948732999386,w,8,0.9903688000049442,1,+10,822,-24.23704672074685,0.3392431211668665,0.43063775514440916,2692102.0,16.68328908910864,-0.06717597578397472,-0.12179135329166835,2695636.0,,,,,2717.5386663154745,2714.0046663154744,
168,51,21,m,1,4,160.0,8,2,high,4 + 9 - 7 + 1 - 1,6,6,5,8,2727.6116109000286,2729.639320099959,2731.154408999952,2736.1736665000208,2736.7691161999246,2736.7691217999677,2738.2852469999343,2739.3596057000104,q,6,0.5954496999038383,1,+10,832,30.691201968941648,-1.1997477112899477,0.016279640190887568,2705703.0,-37.89728461137995,-0.19594213175263997,0.002555309484239654,2709238.0,,,,,2731.1406663154744,2727.6056663154745,
169,51,21,m,1,4,161.0,9,3,high,3 + 1 + 6 - 8 + 9,11,12,11,13,2740.877241599956,2742.902778399992,2744.4178157999413,2749.43727939995,2750.129115000018,2750.129120199941,2751.645132899983,2752.6623146999627,w,11,0.6918356000678614,1,+10,842,10.383792559567649,0.05032341397356799,-0.07524134055195986,2718968.0,-24.295641614724545,-1.2376307133029072,-3.8392231181873355,2722502.0,,,,,2744.4046663154745,2740.8706663154744,
170,51,21,m,1,4,162.0,10,1,low,6 + 1 + 1 + 7 - 1,14,13,12,14,2754.179017900024,2756.2230506999185,2757.738239899976,2762.75601849996,2763.5456901999423,2763.545695699984,2765.0619289999595,2766.0786534999497,e,14,0.7896716999821365,1,+1,843,-3.7773880485140374,0.05348052600736608,-0.027804616579888863,2732288.0,38.535294803037054,0.09500862061866178,0.6654248475959768,2735821.0,,,,,2757.7236663154745,2754.1906663154746,
171,51,21,m,1,4,163.0,11,3,high,2 + 9 + 1 - 5 + 7,14,15,12,14,2767.5952967000194,2769.622179299942,2771.1372607999947,2776.1571014999645,2776.8730503999395,2776.8730558999814,2778.389599499991,2779.406502399943,e,14,0.7159488999750465,1,+10,853,78.86697058051766,-3.5434711414824163,-5.032972423672758,2745687.0,37.6305421531013,-0.28264115735935214,-0.15930951069259836,2749222.0,,,,,2771.1246663154748,2767.5896663154745,
172,51,21,m,1,4,164.0,12,3,low,7 - 6 + 8 + 1 + 7,17,16,17,15,2780.923154999968,2782.946693499922,2784.4617081999318,2789.479792799917,2790.129002199974,2790.129007700016,2791.644911599928,2792.6615923999343,w,17,0.6492094000568613,1,+1,854,12.711681765397685,-3.044223289327015,-4.417970253822187,2759011.0,-29.72591689845803,0.5123275117013626,-0.20817245255391148,2762545.0,,,,,2784.4476663154746,2780.9136663154745,
173,51,21,m,1,4,165.0,13,2,high,4 + 1 + 9 + 1 - 6,9,8,7,9,2794.1781481999205,2796.205017099972,2797.720099599916,2802.7378963999217,2803.4009522999404,2803.400958299986,2804.917266199948,2805.934261900024,e,9,0.6630559000186622,1,+10,864,9.95303693772561,-0.4141300269930617,-0.05145362404597309,2772270.0,-39.612589002151694,0.18340787325353913,-0.17114317107678145,2775803.0,,,,,2797.7056663154744,2794.1726663154745,
174,51,21,m,1,4,166.0,14,4,high,5 + 7 - 4 + 6 + 9,23,25,23,24,2807.4509585999185,2809.4780474000145,2810.9935778999934,2816.0116942999884,2816.640923799947,2816.6409290999877,2818.15694279992,2819.1738110999577,w,23,0.6292294999584556,1,+10,874,-32.230916731938976,0.09782929825024711,0.15331836657791986,2785543.0,-2.678598641929364,-2.544287935693168,-2.2248912335102293,2789076.0,,,,,2810.9786663154746,2807.4456663154747,
175,51,21,m,1,4,167.0,15,2,low,6 + 1 + 7 - 8 - 1,5,4,5,7,2820.690455199918,2822.715924500022,2824.2307539000176,2829.250771599938,2829.952857599943,2829.9528623999795,2831.4690493999515,2832.4862704999978,w,5,0.7020860000047833,1,+1,875,14.783225880569319,0.2623869840447304,-0.17838404081452097,2798781.0,2.996920635899455,-8.716527782666986,-15.66116666086728,2802316.0,,,,,2824.2186663154744,2820.6836663154745,
176,51,21,m,1,4,168.0,16,2,high,4 + 7 + 1 + 1 - 8,5,7,4,5,2834.003027300001,2836.0289040999487,2837.5440345000243,2842.5623515999177,2843.160878899973,2843.160884000012,2844.677276399918,2845.6940351999365,e,5,0.5985273000551388,1,+10,885,-10.03113423810004,0.8250261666604812,0.16356868381335987,2812094.0,-0.32076661561874076,-0.07484957162577244,-0.15027109885655343,2815627.0,,,,,2837.5296663154745,2833.9966663154746,
177,51,21,m,1,4,169.0,17,2,low,3 - 1 + 9 - 5 + 1,7,6,7,5,2847.211004199926,2849.237647400005,2850.7528269999893,2855.772328499937,2856.296844099997,2856.2968488999177,2857.813151499955,2858.829836399993,w,7,0.5245156000601128,1,+1,886,-14.942135007595379,0.2557282850441527,0.03126211164456505,2825302.0,0.3588123037170545,1.1370508219741944,0.5666879983575548,2828837.0,,,,,2850.7396663154746,2847.2046663154747,
178,51,21,m,1,4,170.0,18,4,high,9 + 4 - 6 + 8 + 7,22,24,22,21,2860.3463788999943,2862.3709516000235,2863.885701799998,2868.9041708000004,2872.0331197999185,2872.033126699971,2873.5495239999145,2874.5671248999424,e,21,3.128948999918066,0,+0,886,-9.651203721819634,0.1614413350538837,0.13787484250697757,2838436.0,-10.30116613911142,-0.4535794071433821,0.1010196237026455,2841969.0,,,,,2863.8716663154746,2860.3386663154747,
179,51,21,m,1,4,171.0,19,1,low,4 + 1 + 1 + 7 - 1,12,14,13,12,2876.084445699933,2878.107795699965,2879.6229932999704,2884.641396999941,2885.2726985999616,2885.272707200027,2886.788720999961,2887.805398599943,e,12,0.6313016000203788,1,+1,887,-43.58178533843255,0.6472895626769244,1.8558487057447297,2854172.0,-0.622085299416451,7.312790983877008,6.838294963169562,2857706.0,,,,,2879.6086663154747,2876.0746663154746,
180,51,21,m,1,4,172.0,20,4,low,8 + 4 + 7 - 5 - 6,8,9,8,6,2889.3222887999145,2891.3494411000283,2892.864585399977,2897.883071199991,2898.584716700017,2898.58472179994,2900.101078599924,2901.1176346000284,w,8,0.7016455000266433,1,+1,888,-10.296064656952439,-0.2827834685682937,-0.4731289671257679,2867414.0,14.687936240918646,0.7403443301945294,0.9979484461336847,2870948.0,,,,,2892.8506663154744,2889.316666315475,
181,51,21,m,1,4,173.0,21,2,high,4 + 9 + 1 - 7 - 1,6,6,5,8,2902.6339209999423,2904.6574176999275,2906.172463199938,2911.1907322999323,2911.832666900009,2911.83267179993,2913.349710599985,2914.3668809999945,q,6,0.6419346000766382,1,+10,898,3.5579770669824775,0.37362794025166224,-0.07333614186766635,2880722.0,2.3961210544835634,0.133371332106754,0.39211570960095576,2884255.0,,,,,2906.1576663154747,2902.6246663154748,
182,51,21,m,1,4,174.0,22,4,high,6 + 9 + 7 - 3 - 5,14,14,13,12,2915.883776400005,2917.911872699973,2919.4270574999973,2924.4457324999385,2925.0966318999417,2925.0966370999813,2926.61302769999,2927.6301653999835,q,14,0.6508994000032544,1,+10,908,10.925866503677216,0.13417543103782004,0.1035664664148428,2893976.0,-0.8133296734672726,-0.205765746487244,0.052240572954511455,2897510.0,,,,,2919.412666315475,2915.8786663154747,
183,51,21,m,1,4,175.0,23,3,high,3 + 8 - 7 + 1 + 9,14,12,13,14,2929.14685140003,2931.17149410001,2932.686092799995,2937.7049784000264,2938.6005678999936,2938.6005727999145,2940.1170065000188,2941.134175400017,e,14,0.8955894999671727,1,+10,918,-1.1871704281135056,0.06590066158923369,0.2491802790481823,2907236.0,-32.582134871749176,-0.07188202866062365,-0.26012598830387335,2910770.0,,,,,2932.6726663154745,2929.1386663154744,
184,51,21,m,1,4,176.0,24,4,low,3 + 9 - 5 + 8 - 7,8,7,8,9,2942.6508436999284,2944.677658499917,2946.1932398999343,2951.2114147000248,2953.8085344999563,2953.8085397999967,2955.325106199947,2956.340986400028,w,8,2.5971197999315336,1,+1,919,0.5405107711372281,0.5504968553368563,-0.1647409693805697,2920742.0,6.735341498982008,0.27036630777633075,0.20022312444738888,2924276.0,,,,,2946.1786663154744,2942.6446663154748,
185,51,21,m,1,4,177.0,25,3,low,5 + 1 + 7 - 8 + 6,11,13,11,9,2957.8578445999883,2959.885150099988,2961.4002142000245,2966.4184657000005,2967.048518799944,2967.048524099984,2968.5652177999727,2969.582003599964,w,11,0.6300530999433249,1,+1,920,-19.766177944827326,0.1138911780106926,-0.07456462954758081,2935950.0,4.482318651685483,0.14175781955271516,0.4276301094517332,2939483.0,,,,,2961.3856663154747,2957.8526663154744,
186,51,21,m,1,4,178.0,26,1,high,2 + 1 + 1 + 9 - 1,12,12,13,11,2971.0987304999726,2973.1236811999697,2974.638789299992,2979.656972100027,2980.328543299925,2980.3285483999643,2981.8448481999803,2982.861903299927,q,12,0.671571199898608,1,+10,930,14.84239968899129,1.001800821998764,-0.12336365687570439,2949188.0,-45.556487141521714,-0.6147935284409969,-0.060620771393708583,2952721.0,,,,,2974.6236663154746,2971.0906663154747,
187,51,21,m,1,4,179.0,27,3,high,8 - 1 + 6 - 7 + 5,11,11,13,12,2984.3785346000222,2986.450268100016,2987.965200799983,2992.9836910000304,2993.6324909999967,2993.632496499922,2995.149807699956,2996.1670747000026,q,11,0.6487999999662861,1,+10,940,35.6940115000924,-0.368360569067228,-0.048191087380375475,2962515.0,7.013744399309428,0.035362277872685866,0.011158265384823451,2966048.0,,,,,2987.9506663154743,2984.4176663154744,
188,51,21,m,1,4,180.0,28,4,high,7 + 8 - 4 + 6 + 5,22,23,21,22,2997.6839621999534,2999.709851899999,3001.224936499959,3006.2435097999405,3007.488515099976,3007.488520300016,3009.0047147999285,3010.02134769992,e,22,1.2450053000357002,1,+10,950,34.560216153713746,0.2468286475638113,-0.0009921318078949248,2975774.0,-33.11831581209813,-0.35223053366605495,-0.017261406408588087,2979308.0,,,,,3001.2106663154746,2997.6766663154744,
189,51,21,m,1,4,181.0,29,4,high,7 + 6 - 4 + 9 - 5,13,14,12,13,3011.5382414999185,3013.5642097999807,3015.0793411999475,3020.097979299957,3020.688460399979,3020.688466300024,3022.204697899986,3023.2217131999787,e,13,0.5904811000218615,1,+10,960,5.79397448255577,0.0803819595130486,-0.19692256675412834,2989629.0,-5.901151221115259,0.23185264672585904,0.1647265748530704,2993162.0,,,,,3015.0646663154744,3011.5316663154745,
190,51,21,m,1,4,182.0,30,4,high,5 + 7 - 4 - 6 + 9,11,11,13,12,3024.7383372000186,3026.764452799922,3028.2795385000063,3033.2978461999446,3033.944366900017,3033.9443721999414,3035.460851199925,3036.4783866999205,q,11,0.6465207000728697,1,+10,970,-15.902235493253109,0.46650944614821155,0.22373614122497587,3002829.0,11.973577234223585,-1.0501220686665231,-2.252432792240219,3006362.0,,,,,3028.2646663154746,3024.7316663154747,
191,51,21,m,1,4,183.0,31,1,low,7 + 1 + 6 + 1 + 1,16,17,16,18,3037.9948783,3040.021703699953,3041.536961599952,3046.5553417999763,3047.3123716999544,3047.3123771999963,3048.828490299988,3049.8454657000257,w,16,0.7570298999780789,1,+1,971,-10.063823221383153,-3.3333349280919116,-21.466695694581524,3016086.0,-19.91492686360638,-0.14486377115840243,-0.1319578989162684,3019620.0,,,,,3041.5226663154745,3037.9886663154743,
192,51,21,m,1,4,184.0,32,4,low,3 + 8 - 5 + 9 - 7,8,8,6,7,3051.362156099989,3053.38966440002,3054.904579299968,3059.923202199978,3060.856339299935,3060.856344699976,3062.373124999925,3063.38985529996,q,8,0.9331370999570936,1,+1,972,-47.85334450741272,0.4341153939454858,-0.1646191380231916,3029454.0,19.36776657331798,-0.2645988079059389,0.1228012627456696,3032987.0,,,,,3054.8896663154746,3051.3566663154747,
193,51,21,m,1,4,185.0,33,1,high,6 + 1 + 8 + 1 + 1,17,16,15,17,3064.9064956000075,3066.9334837999195,3068.448598899995,3073.4665136999683,3074.0963141999678,3074.096319500008,3075.61237550003,3076.629673799965,e,17,0.6298004999989644,1,+10,982,-21.73532074099552,-11.473480967072312,-11.636413991244034,3042998.0,18.57261277226787,0.06185069339667004,0.1856945105202188,3046531.0,,,,,3068.4336663154745,3064.9006663154746,
194,51,21,m,1,4,186.0,34,3,low,5 + 7 + 1 - 4 + 6,15,15,17,13,3078.1461986999493,3080.1701587999705,3081.6850659999764,3086.7037373000057,3088.0403374999296,3088.0403425999684,3089.5566891999915,3090.5734240999445,q,15,1.3366001999238506,1,+1,983,9.777308191763565,-0.6930687079948417,-0.6919381479361912,3056234.0,51.33727016241697,-0.056545833863905326,0.1625025516915577,3059768.0,,,,,3081.6706663154746,3078.1366663154745,
195,51,21,m,1,4,187.0,35,2,high,2 + 9 - 4 + 1 + 1,9,9,8,11,3092.090024499921,3094.1132380999625,3095.628391199978,3100.6465918999165,3101.4322592000244,3101.4322644999484,3102.948809899972,3103.9660836999537,q,9,0.7856673001078889,1,+10,993,-26.03057915412816,3.3266591620949493,5.0302623297168765,3070177.0,-32.09675250522207,-0.13775803520027008,-0.07940154338157335,3073711.0,,,,,3095.6136663154743,3092.0796663154747,
196,51,21,m,1,4,188.0,36,1,high,9 + 1 + 1 + 7 - 1,17,19,16,17,3105.482845999999,3107.511295399978,3109.0263662999496,3114.0443331999704,3114.7201591000194,3114.720164199942,3116.236343799974,3117.2529138999525,e,17,0.6758259000489488,1,+10,1003,-21.22794107338384,0.46225640743512164,0.007759134209601726,3083576.0,7.308813208425049,-0.04206752981478701,-0.2623163100144814,3087109.0,,,,,3109.0116663154745,3105.4786663154746,
197,51,21,m,1,4,189.0,37,3,high,3 + 1 + 8 - 5 + 9,16,16,15,17,3118.7692524999147,3120.792802199954,3122.308049399988,3127.32616409997,3128.3121308999835,3128.312136100023,3129.828630700009,3130.8458177000284,q,16,0.9859668000135572,1,+10,1013,-49.27296308600677,0.27921948342379643,0.16511022676169707,3096857.0,-11.441174498539068,0.930509881060372,-5.2442719173058885,3100390.0,,,,,3122.2926663154744,3118.7596663154745,
198,51,21,m,1,5,190.0,0,3,low,8 + 6 - 7 + 1 - 4,4,3,5,4,3158.043743200018,3160.0684369999217,3161.583557599922,3166.6038023999427,3167.264036500012,3167.2640416999348,3168.7800033999374,3169.796683899942,e,4,0.6602341000689194,1,+1,1014,9.402739225970748,-0.6433206715293278,0.17690374947470344,3136133.0,-43.679928769334836,0.04701361681607796,0.03608911620128641,3139668.0,,,,,3161.5706663154747,3158.0356663154744,
199,51,21,m,1,5,191.0,1,4,high,4 + 7 - 8 + 9 - 4,8,9,8,7,3171.313439199934,3173.339634799981,3174.8545281999977,3179.872853199952,3180.560014699935,3180.560019699973,3182.0761331999674,3183.0932244999567,w,8,0.6871614999836311,1,+10,1024,-3.141323713149582,0.41975240698079075,0.08340315860138281,3149404.0,-6.171349504060606,0.21082112709826406,0.2703125491376057,3152937.0,,,,,3174.8396663154745,3171.3066663154746,
