,id,age,sex,cued,block,trial,trialinblock,efflev,rewlev,calc,corAns,option1,option2,option3,tstart,ITI1Time,probTime,respTime,selectTime,ITI2Time,fbTime,ITI3Time,key_press,chosenAns,RT,acc,feedback,total_points,cuescr,cuecor,cuezyg,cuetime,probscr,probcor,probzyg,probtime,fbscr,fbcor,fbzyg,fbtime,probtime_c,cuetime_c,fbtime_c
0,52,21,M,0,Practice,,0,1,0,4 + 1 + 9 + 1 + 1,16,16,14,15,49.86876739999934,,49.86876959999972,54.95773299999928,56.10495349999837,56.10496009999952,57.62212899999941,58.648719699998765,e,15,1.1472204999990936,0,Incorrect,0,,,,,-19.367476661387432,-10.091944525674634,-0.030510345154608265,58722.0,9.641107371395993,3.0143701235564198,0.06901226786874926,66413.0,49.94340198299916,,57.63440198299916
1,52,21,M,0,Practice,,1,1,0,3 + 1 + 1 + 8 - 1,12,12,10,11,60.16531399999985,,60.16531709999981,65.1870885999997,65.90508259999842,65.9050890999988,67.42202419999921,68.4425371999987,q,12,0.7179939999987255,1,Correct,0,,,,,-12.7828787355003,-1.4363592656510695,-0.0582947042636881,68952.0,-10.512136627573495,1.9371819881638523,0.17812579355824787,76207.0,60.17340198299916,,67.42840198299916
2,52,21,M,0,Practice,,2,2,0,8 + 1 + 6 + 1 - 4,12,11,10,12,69.96025399999962,,69.9602591999992,74.98012919999928,75.80898389999857,75.80899059999865,77.32627580000008,78.34497919999922,e,12,0.8288546999992832,1,Correct,0,,,,,4.995603877118399,0.16781267363797792,-0.0035142240798378133,78745.0,-6.676951430589975,2.9819191883990817,-0.09150333889141393,86109.0,69.96640198299917,,77.33040198299915
3,52,21,M,0,Practice,,3,2,0,9 + 4 - 6 + 1 - 1,7,6,5,7,79.86183019999953,,79.86183359999995,84.88190079999913,85.77714229999947,85.77714849999938,87.29411309999887,88.3113347999988,e,7,0.8952415000003384,1,Correct,0,,,,,-19.607064573468755,1.1429802805702192,0.2171130378068733,88647.0,8.776656082994418,1.208333380126433,0.02797007788197292,96076.0,79.86840198299916,,87.29740198299916
4,52,21,M,0,Practice,,4,3,0,9 + 3 - 5 + 6 + 7,20,21,22,20,89.82820039999933,,89.828203699999,94.84677459999877,96.00892699999896,96.00893319999886,97.52536019999934,98.5425781999984,e,20,1.1621524000001957,1,Correct,0,,,,,15.085920473365345,-0.2197697520972155,-0.1483530653493279,98612.0,-11.452697251286294,2.715659314884667,1.4482905249098772,106307.0,89.83340198299916,,97.52840198299916
5,52,21,M,0,Practice,,5,3,0,2 + 1 + 9 - 7 + 6,11,11,10,9,100.05938519999836,,100.0593880999986,105.0790634999994,105.70490879999852,105.70491499999844,107.22164899999916,108.24052839999968,q,11,0.6258452999991277,1,Correct,0,,,,,-6.0586949278743525,0.14678828552831424,0.4299845441602328,108843.0,-11.895718013561194,5.1466749954601205,1.9583309271530673,116004.0,100.06440198299916,,107.22540198299916
6,52,21,M,0,Practice,,6,4,0,4 + 8 + 5 - 3 + 7,21,23,22,21,109.75780159999886,,109.75780459999989,114.77885949999836,115.5769795999986,115.57698619999974,117.09399099999972,118.11194429999888,e,21,0.7981201000002329,1,Correct,0,,,,,26.954789556549365,0.445974409807822,-0.1796650249519458,118543.0,-29.15310662315654,2.3628506429017593,0.19172677983853648,125877.0,109.76440198299917,,117.09840198299915
7,52,21,M,0,Practice,,7,4,0,5 + 8 - 4 + 6 + 9,24,23,24,22,119.6292418999983,,119.62924489999932,124.64924659999996,125.12108859999898,125.12109509999937,126.63756919999832,127.6552998999996,w,24,0.4718419999990146,1,Correct,0,,,,,-10.802977644362208,0.14394108184467003,0.010838199079547639,128414.0,-12.089120540935118,1.4349232773626843,-0.52510976581911,135420.0,119.63540198299916,,126.64140198299916
8,52,21,M,1,0,0.0,0,2,low,6 + 1 + 8 + 5 - 1,19,19,18,17,242.15049709999948,244.24399119999907,245.7592920999996,250.7777223999983,251.79851939999932,251.79852459999893,253.31521449999852,254.3322088999994,q,19,1.0207970000010391,1,+1,1,17.71116784179481,-4.700955351658874,0.018770352084276132,251008.0,-5.468110722273845,-0.1559116797659179,-0.06556123199938058,254542.0,4.885892301946463,1.1314441963512687,0.3759048335532975,262096.0,245.76340198299917,242.22940198299918,253.31740198299917
9,52,21,M,1,0,1.0,1,3,low,3 + 8 - 7 - 1 + 9,12,13,14,12,255.8489422999992,257.8875828,259.40257719999863,264.4230398999989,265.16650200000004,265.16650729999856,266.6831706999983,267.6997636999986,e,12,0.7434621000011248,1,+1,2,6.731751705585503,0.9972518872144018,0.008470141838375245,264651.0,5.355702108775249,-0.12821629907448218,0.10055970423596361,268187.0,-33.83689390082876,0.7471806521281046,0.38584046013874884,275464.0,259.4084019829992,255.87240198299918,266.68540198299917
10,52,21,M,1,0,2.0,2,2,low,9 + 6 + 1 + 7 + 1,24,23,24,25,269.2163614000001,271.24235709999994,272.75772699999834,277.77564699999857,278.47848049999993,278.4784854999998,279.9945141999997,281.0115707999994,w,24,0.7028335000013612,1,+1,3,-11.170060639781745,0.6137708312040466,-3.9767674440940786,278006.0,2.5141945900765084,0.23792296872147567,0.030452564995443465,281540.0,-0.5369102548733196,0.47252334440808763,0.0917867667906549,288775.0,272.7614019829992,269.22740198299914,279.99640198299915
11,52,21,M,1,0,3.0,3,2,low,5 - 1 + 1 + 8 + 9,22,21,22,23,282.52831459999834,284.5523424999992,286.06796479999866,291.08724959999927,291.7904669999989,291.7904719999988,293.3068214999985,294.3239288999994,w,22,0.7032173999996303,1,+1,4,-6.737105691168959,0.6586044851204047,-0.06551410852839523,291316.0,-3.215600590835507,0.12767962216304607,0.09666705440448409,294851.0,4.876289119840646,0.11721253472114501,-0.03509871687622512,302087.0,286.07240198299917,282.53740198299914,293.30840198299916
12,52,21,M,1,0,4.0,4,4,high,7 + 8 - 4 + 6 + 5,22,23,22,21,295.8408660999994,297.89305459999923,299.40864239999974,304.42739189999884,305.2864642999993,305.2864759999993,306.803215599999,307.8205006999997,w,22,0.8590724000005139,1,+10,14,-22.52658916992343,0.898288381032569,0.07016668118034097,304657.0,8.733335721284693,0.03214419788452805,-0.0570749522462064,308191.0,-30.171146301123223,0.7533705640172692,0.3014765626571809,315584.0,299.41240198299914,295.87840198299915,306.8054019829992
13,52,21,M,1,0,5.0,5,2,low,7 + 8 + 1 + 9 + 1,26,26,24,25,309.33738300000005,311.36506589999954,312.88080399999853,317.8990398999995,318.73448879999887,318.73449379999875,320.2513003999993,321.2689937999985,q,26,0.8354488999993919,1,+1,15,-6.596927958590735,-0.0032127740336163058,-0.21225771290916273,318129.0,-19.797255790624817,0.12341847248842486,0.03624498204241733,321663.0,2.0147385933247914,-0.026958410232699404,0.2264470001561738,329032.0,312.8844019829992,309.3504019829992,320.25340198299915
14,52,21,M,1,0,6.0,6,1,high,9 + 8 + 1 + 1 - 1,18,20,17,18,322.7856501999995,324.86198519999925,326.37719839999954,331.39641709999887,332.27839479999966,332.27839979999953,333.7948542999984,334.8121590999999,e,18,0.8819777000007889,1,+10,25,8.179327376646327,0.5687439750685588,-0.23706521857419371,331626.0,-15.00584084992089,-0.2535960621419391,0.09943968668357117,335160.0,-0.21354488254002923,0.9726884921666126,-0.3629959626729129,342576.0,326.3814019829992,322.84740198299914,333.7974019829992
15,52,21,M,1,0,7.0,7,3,high,5 + 1 + 7 - 8 + 6,11,13,11,9,336.3301247999989,338.37073379999856,339.8860405999985,344.90625049999835,345.6945331999996,345.69453819999944,347.21132619999844,348.2288372999992,w,11,0.7882827000012185,1,+10,35,-26.394123757147646,-0.016704465055929596,0.07548923491269255,345134.0,14.654585610652795,0.0497941552160599,-0.3425302407860835,348670.0,43.62136873301403,1.0254940530433303,1.032776755056365,355992.0,339.8914019829992,336.3554019829992,347.2134019829992
16,52,21,M,1,0,8.0,8,4,high,4 + 7 + 8 - 3 + 9,25,25,26,24,349.7457246999984,351.77050529999906,353.28556559999925,358.3058265999989,359.09438299999965,359.0943879999995,360.6105262000001,361.6277692999993,q,25,0.7885564000007435,1,+10,45,-18.730759950167066,1.0826387206092543,1.611842777754085,358534.0,-15.516647217821623,-0.325389135266299,-0.17038263928546615,362070.0,-0.6142937351075926,1.5258920197917694,0.3211895910840752,369391.0,353.29140198299916,349.75540198299916,360.6124019829992
17,52,21,M,1,0,9.0,9,2,high,4 + 9 - 7 + 1 - 1,6,5,8,6,363.1445838999989,365.2219388999984,366.7371476999997,371.7556295999984,372.5024818999991,372.50248719999945,374.0198416999992,375.0368642999984,e,6,0.7468523000006826,1,+10,55,17.45774094437722,0.3431987367691818,0.1292641619537782,371985.0,3.4503050402359166,0.09370767693339177,0.13734560866111245,375519.0,1.809743833069291,0.4147894353126582,0.1745866020960758,382801.0,366.7404019829992,363.2064019829992,374.02240198299916
18,52,21,M,1,0,10.0,10,1,low,6 + 9 + 1 + 1 - 1,16,14,15,16,376.5539942999985,378.5824407,380.09770599999865,385.11672539999927,385.8143436999999,385.8143489999984,387.3309909999989,388.3479282999997,e,16,0.6976183000006131,1,+1,56,4.641906867034298,1.2978192410048779,0.23879751733691723,385345.0,12.562166465999583,-0.1592470184378212,-0.03277888903188164,388880.0,16.186853949434973,-1.4902992275572244,-0.7383377423557211,396111.0,380.10140198299916,376.5664019829992,387.33240198299916
19,52,21,M,1,0,11.0,11,1,low,2 + 1 + 1 + 9 - 1,12,13,12,11,389.8645226999997,391.8878986999989,393.4030905,398.422013899999,399.0383516999991,399.03835699999945,400.5546635999999,401.5712809999986,w,12,0.6163378000001103,1,+1,57,7.540720951409892,0.5342133048731288,0.309692341525557,398651.0,26.228817649030972,0.13527552950422095,-0.3401439554396175,402186.0,-49.028125511239175,0.014733917768325888,0.24834761109258197,409335.0,393.40740198299915,389.8724019829992,400.55640198299915
20,52,21,M,1,0,12.0,12,4,low,8 + 4 - 5 + 7 - 6,8,8,7,6,403.0880311000001,405.1368882999996,406.6521206999987,411.6707418999995,412.3824381999984,412.3824429999986,413.8991013999985,414.91600069999913,q,8,0.7116962999989482,1,+1,58,14.518523437602393,0.15289481406172944,0.8741802666252712,411900.0,19.865224727963582,-0.0032533244449530763,-0.4668244702912774,415434.0,17.52235165289631,-0.4772906784278681,-0.08172378835361571,422679.0,406.6554019829992,403.12140198299915,413.90040198299914
21,52,21,M,1,0,13.0,13,4,low,8 + 4 + 7 - 5 - 6,8,8,9,6,416.4325491999989,418.45636849999937,419.971593799999,424.99041469999975,425.6463286999988,425.64633349999895,427.1629269999994,428.17963789999885,q,8,0.6559139999990293,1,+1,59,4.622957773017371,0.1476482810928763,0.9692347280778655,425220.0,3.783178374634492,0.1851056973393883,0.03076771955893376,428754.0,-35.8800513090306,0.5679636061708457,0.5664614551307405,435943.0,419.9754019829992,416.4414019829992,427.16440198299915
22,52,21,M,1,0,14.0,14,3,low,8 + 3 + 1 - 7 + 9,14,15,14,12,429.6964842999987,431.7245153999993,433.2397831999988,438.2585256999992,439.07830919999833,439.0783138999996,440.5948499999995,441.6113243999989,w,14,0.8197834999991755,1,+1,60,-9.628872791319322,0.9438469738662041,0.032061738685903896,438488.0,13.129891528024716,-0.10914301774377844,-0.021445062658575154,442022.0,-2.6982611412402093,0.07551473122461871,0.15382879644287129,449375.0,433.24340198299916,429.70940198299917,440.59640198299917
23,52,21,M,1,0,15.0,15,4,low,5 + 7 - 4 + 6 + 9,23,24,25,23,443.1281095999984,445.1569258,446.6721970999988,451.6907753999985,452.3743665999991,452.3743717999987,453.8904075999999,454.9070326000001,e,23,0.6835912000005919,1,+1,61,-58.53924476120516,1.1610015686748851,-0.02557154289095931,451919.0,24.004653933932374,0.09826670416049654,-0.07776548328223454,455454.0,-2.4025359521943432,-0.17917274756340018,0.3191135031535157,462671.0,446.6754019829992,443.14040198299915,453.89240198299916
24,52,21,M,1,0,16.0,16,1,high,8 + 1 + 1 + 1 - 3,8,9,8,6,456.42404199999874,458.4502620999992,459.96560489999865,464.9836961000001,465.6062243999986,465.6062289999991,467.12277769999855,468.1401231,w,8,0.6225282999985211,1,+10,71,-6.2501092001275005,0.7381946765730381,0.11200862189539285,465214.0,19.38116050378845,-0.06538676599394022,-0.4862453273279479,468747.0,21.033299036290643,0.8119311353895011,-0.8151835865792338,475903.0,459.9684019829992,456.43540198299917,467.1244019829992
25,52,21,M,1,0,17.0,17,1,low,8 + 1 + 1 - 1 - 4,5,6,5,3,469.6568068999986,471.68243399999847,473.19788249999874,478.2161254999992,478.9742872999996,478.9742923999984,480.49083059999975,481.50776009999936,w,5,0.75816180000038,1,+1,72,19.744234936536103,0.9940322400953301,-0.08799305128269763,478446.0,7.231932652209206,-0.02743009276097408,0.08334297499781118,481979.0,-14.441817386425031,0.015202137647321479,0.45076240584831084,489271.0,473.20040198299915,469.6674019829992,480.4924019829992
26,52,21,M,1,0,18.0,18,3,high,4 + 1 + 8 + 9 - 5,17,18,17,19,483.02438529999927,485.0502603999994,486.5653199999997,491.5838418999992,492.0621924999996,492.0621973999987,493.5787382999988,494.5962056999997,w,17,0.4783506000003399,1,+10,82,22.985205814004342,4.939189698350015,-1.9408436432415952,491813.0,-13.723611000782196,0.07892929089063383,0.011102735211019121,495347.0,-36.8636015804589,1.3982381724548751,0.37363189687880216,502359.0,486.56840198299915,483.03440198299916,493.58040198299915
27,52,21,M,1,0,19.0,19,3,high,8 + 4 + 1 - 7 + 9,15,15,13,16,496.1129841999991,498.1379990999994,499.6532542999994,504.6716873999994,505.5421866999986,505.5421914999988,507.0585207999993,508.0749877999988,q,15,0.87049929999921,1,+10,92,-36.16618536472748,1.7537653087992258,0.7474772615040841,504901.0,-3.585239818891603,-0.4512712766099638,-1.8877845582081736,508435.0,38.89335625362882,0.5722151464206382,0.029562358959198898,515839.0,499.65640198299917,496.1224019829992,507.0604019829992
28,52,21,M,1,0,20.0,20,1,high,8 + 1 + 4 + 1 + 1,15,16,14,15,509.5921464999992,511.6187571999999,513.1341233999992,518.1521871999994,518.678237099999,518.6782420999989,520.1955969999999,521.2130557,e,15,0.5260498999996344,1,+10,102,11.812044494517092,-0.6433418302872731,-1.0743204047369863,518382.0,10.138323862886082,-0.01864446093056027,-0.054280155578264155,521915.0,15.782874073427006,0.5955736634787934,0.31801326678680386,528976.0,513.1364019829991,509.6034019829991,520.1974019829992
29,52,21,M,1,0,21.0,21,4,high,4 + 7 - 8 + 9 - 3,9,8,11,9,522.7300225999988,524.7566740999991,526.2716442000001,531.2903463999992,531.8462491999999,531.8462542999987,533.3628618999992,534.3802854999994,e,9,0.5559028000006947,1,+10,112,25.50139052729779,0.7858519168764935,-0.1548544778430867,531520.0,14.260478919758299,0.09203983595082588,-0.08681641445075017,535053.0,31.248637108328744,-0.17366494102136798,0.35819199387978595,542143.0,526.2744019829992,522.7414019829992,533.3644019829992
30,52,21,M,1,0,22.0,22,4,high,4 + 7 - 8 + 9 - 4,8,8,7,9,535.8970167999996,537.9240299999983,539.4390363999992,544.4579422999996,545.1342492999993,545.1342541999984,546.6509429999987,547.6681811999988,q,8,0.6763069999997242,1,+10,122,-36.13512292632788,0.4599129794844903,-0.4381870023226824,544687.0,7.7577110544823915,0.03141961935246895,-0.11370717684294696,548221.0,-12.323891686779465,0.23049853355273742,-0.02970059060941921,555431.0,539.4424019829992,535.9084019829992,546.6524019829992
31,52,21,M,1,0,23.0,23,1,low,6 + 9 + 1 + 1 - 1,16,14,15,16,549.1852220000001,551.2128945999993,552.7271164999984,557.7455569999984,558.286231,558.2862359999999,559.8021984999996,560.8190274999997,e,16,0.5406740000016725,1,+1,123,-6.885921249603852,0.39951615298462717,0.05961490349189247,557976.0,-1.672725626134266,0.20114128683743604,-0.06688024145857696,561508.0,-31.876064740090857,-0.426837733810447,0.23825665402447327,568582.0,552.7294019829992,549.1974019829992,559.8034019829992
32,52,21,M,1,0,24.0,24,4,low,4 + 9 - 7 + 8 + 5,19,21,20,19,562.3356836999992,564.3626366999997,565.8779071999998,570.8980207999994,571.5581843,571.5581889999994,573.0746538999992,574.0918727999997,e,19,0.6601635000006354,1,+1,124,12.449737865517527,0.08357124880804156,0.153217297438637,571125.0,-22.332002219397,0.08853332455384044,0.04926487742209762,574661.0,19.14822165193005,0.7932578024602628,1.870538776157904,581855.0,565.8824019829991,562.3464019829992,573.0764019829992
33,52,21,M,1,0,25.0,25,2,low,7 + 6 + 1 - 1 - 8,5,4,5,3,575.608510099999,577.6363034999995,579.151515399999,584.1700330999993,584.7341051999992,584.7341104999996,586.2506550999988,587.2675458999984,w,5,0.5640720999999758,1,+1,125,12.867704249241676,0.9402481545886676,3.6628405641735613,584399.0,14.670189110302125,0.18082788298271812,-0.018170538526704583,587933.0,-2.5379724235634935,0.35679007758374137,0.3513761973211882,595030.0,579.1544019829992,575.6204019829992,586.2514019829991
34,52,21,M,1,0,26.0,26,3,high,3 + 8 + 1 + 5 - 9,8,9,7,8,588.7843225999986,590.8113206999988,592.3265799000001,597.3460950999997,597.9101409999985,597.9101458999994,599.4266945999989,600.4440450999991,e,8,0.5640458999987459,1,+10,135,-19.390266524013285,0.054804616951773744,0.48694776378493954,597574.0,-8.968701461732374,-0.14769195711472416,-0.0609671852481255,601109.0,11.003719178051151,1.0005230171822403,0.4763879866792333,608207.0,592.3304019829992,588.7954019829991,599.4284019829992
35,52,21,M,1,0,27.0,27,2,low,9 + 4 - 6 + 1 - 1,7,9,8,7,601.9608659999994,603.9881212,605.503146699999,610.5214700999986,610.9741693999986,610.9741746,612.4908696999992,613.5077167,e,7,0.4526992999999493,1,+1,136,-7.507913863558221,-0.04252223351581019,-0.548060065190239,610751.0,13.33869292479844,0.27853047558335575,-0.07974553050893363,614284.0,-9.517054737287275,-0.09366964671487521,0.201462021425743,621270.0,605.5054019829992,601.9724019829991,612.4914019829992
36,52,21,M,1,0,28.0,28,2,high,2 + 1 + 9 - 4 + 1,9,11,8,9,615.0243455999989,617.0506874999992,618.565115899999,623.5852414000001,624.2781035999997,624.2781082999991,625.7944893999993,626.8116001999988,e,9,0.6928621999995812,1,+10,146,16.227531699368342,-0.5474715931591916,-0.2045271594586413,623814.0,7.43081445797149,-0.30992106561759325,-0.3712537950365873,627348.0,-17.06711380010462,0.5160719212762948,0.5333207084698233,634574.0,618.5694019829991,615.0354019829991,625.7954019829991
37,52,21,M,1,0,29.0,29,2,high,6 + 8 + 1 + 1 - 7,9,9,11,8,628.3283317999994,630.3521175999995,631.8673341999984,636.885534699999,637.3901336999988,637.3901385999998,638.9066614999992,639.9237989999983,q,9,0.504598999999871,1,+10,156,10.76321870809587,1.300531655686478,0.1506113327940657,637115.0,-52.64281370111241,0.013132437051280643,-0.33064968464085864,640648.0,5.8723951919995,1.5113964047787605,0.024785178513745176,647686.0,631.8694019829992,628.3364019829992,638.9074019829992
38,52,21,M,1,0,30.0,30,3,high,9 + 3 - 4 + 6 + 7,21,21,22,23,641.4405499999993,643.4665088999991,644.9817544999987,650.0003347999991,650.5501873999983,650.5501924,652.0669003999992,653.0844390999991,q,21,0.5498525999992125,1,+10,166,-4.470825529241944,1.0445798003665594,0.023038995676517793,650229.0,6.228046578079876,0.08526915588728468,0.020987772789965664,653763.0,8.182652889994417,0.8698243105433978,0.7448525990463051,660847.0,644.9844019829992,641.4504019829992,652.0684019829991
39,52,21,M,1,0,31.0,31,3,low,3 + 1 + 8 - 5 + 9,16,16,15,17,654.6010845000001,656.6256063000001,658.141029299999,663.1596293999992,663.9740648999996,663.9740699999984,665.4906622999988,666.5076266999986,q,16,0.8144355000003998,1,+1,167,10.125259640174212,0.4755584851562853,0.06877127374914216,663388.0,-35.70696586978421,-0.14864705401614176,-0.0643081217862802,666922.0,-1.7901337832100106,1.0719256871660379,2.944067087522699,674270.0,658.1434019829992,654.6094019829992,665.4914019829992
40,52,21,M,1,0,32.0,32,4,low,7 + 6 + 8 - 4 + 5,22,21,23,22,668.0244205999988,670.0515528999986,671.5667869999997,676.5855096999985,677.3419866999993,677.3419914999995,678.8582430999995,679.8749408999993,e,22,0.7564770000008139,1,+1,168,-27.628436345263484,-0.04739398875660683,0.03925062453874739,676814.0,63.39402001342666,-0.21619348734362998,-0.02414510900469602,680348.0,-3.9419568099198177,-1.0823255263560005,1.04153913150915,687638.0,671.5694019829991,668.0354019829991,678.8594019829992
41,52,21,M,1,0,33.0,33,3,high,7 - 5 + 9 + 1 - 4,8,7,8,9,681.3915306999988,683.4196898999999,684.9349668999985,689.9534980999997,690.7820475999997,690.7820524999988,692.298187299999,693.315348099999,w,8,0.8285495000000083,1,+10,178,6.342339429369062,-0.055066865102638474,-0.03585435736491682,690182.0,0.463070317343397,0.20859813917333048,0.5480015373132356,693716.0,-2.070629367498471,0.23595824606000892,0.600653065713278,701078.0,684.9374019829992,681.4034019829992,692.2994019829991
42,52,21,M,1,0,34.0,34,3,low,9 - 5 - 1 - 6 + 8,5,5,4,7,694.8323633,696.8674154,698.3824074999993,703.4006593999984,704.046025399999,704.0460303999989,705.5628701999995,706.5796395999987,q,5,0.6453660000006494,1,+1,179,-10.204661605582544,0.8488427154696556,0.001999887711264803,703630.0,-1.2797115031585324,-0.03884359231664258,-0.06981975968967968,707163.0,-7.683480152727295,0.5500073240312586,-0.6230635083190603,714342.0,698.3844019829992,694.8514019829992,705.5634019829992
43,52,21,M,1,0,35.0,35,3,high,2 - 4 + 9 + 7 + 1,15,13,16,15,708.0964578999992,710.1233601999993,711.6386580999988,716.6572055999986,717.4860035999991,717.4860083999993,719.0024873999992,720.020033499999,e,15,0.8287980000004609,1,+10,189,-49.51651710621144,1.0278711051964378,0.5369671437676509,716886.0,2.6635469493233224,0.013354396845165928,-0.08322589981250861,720420.0,-7.842312882507029,0.8347939758010254,0.24326981455941432,727782.0,711.6414019829991,708.1074019829991,719.0034019829992
44,52,21,M,1,0,36.0,36,4,low,3 + 8 - 7 + 9 - 5,8,8,9,7,721.5367269999988,723.564454899999,725.0797593999996,730.0985023999983,730.5900416999993,730.5900468999989,732.1064903999995,733.1233776999998,q,8,0.4915393000010226,1,+1,190,10.446279471815668,0.44656620510746303,0.3566196352268445,730327.0,16.482156969256863,0.04946728980166326,-0.49809997019973484,733861.0,-4.279436065987622,-0.7380765769217126,0.03095702262175859,740886.0,725.0824019829992,721.5484019829992,732.1074019829991
45,52,21,M,1,0,37.0,37,2,low,4 + 9 + 1 - 7 - 1,6,6,5,8,734.6399867,736.6670865999986,738.1823459999996,743.2025866999993,744.1979327999998,744.1979383999987,745.7143254999992,746.730863499999,q,6,0.9953461000004608,1,+1,191,6.918062334135561,0.2584385268709972,1.210880721096108,743429.0,5.159795236328569,0.12799730802381037,0.22401461538141865,746965.0,5.74726790631103,0.2521988152383936,0.2521998324802679,754493.0,738.1864019829992,734.6504019829991,745.7144019829992
46,52,21,M,1,1,38.0,0,3,high,7 - 1 + 8 - 6 + 4,12,11,13,12,763.0580719999998,765.0848599000001,766.5997733999993,771.6197749999992,772.3180013000001,772.3180063,773.8351844999997,774.8534377999986,e,12,0.698226300000897,1,+10,201,9.741763387923339,0.6277541578791199,-3.223081613134127,771847.0,16.635300890938005,-0.5328019531533732,-0.13613559964278488,775382.0,15.798579029665346,0.629404728444563,-0.37075436298490816,782615.0,766.6034019829991,763.0684019829991,773.8364019829992
47,52,21,M,1,1,39.0,1,2,low,3 - 1 + 9 - 5 + 1,7,6,7,5,776.3706033999988,778.3973551999989,779.9127207999991,784.9309675999993,785.9099986000001,785.9100036,787.4269500999999,788.4447535999989,w,7,0.9790310000007594,1,+1,202,-26.95892319666928,1.2591396460254587,-0.02398126427466729,785159.0,-1.4423238901208215,-0.11102597090345911,-0.030522618230336418,788693.0,9.324339730813165,1.2810218235081168,0.6428921400162118,796207.0,779.9144019829992,776.3804019829992,787.4284019829992
48,52,21,M,1,1,40.0,2,1,high,6 + 1 + 8 + 1 - 1,15,13,15,14,789.9621337999997,791.9847213999983,793.4990936999984,798.5171031999998,799.3020183999997,799.3020237000001,800.818637299999,801.8360071999996,w,15,0.7849151999998867,1,+10,212,-0.3717744832923078,-0.03712162687901044,-0.46000177372870654,798747.0,3.5800726064726813,-0.09233474628070981,0.028064990892922914,802279.0,-0.5843208697016173,0.18835449198507037,0.5373421181901128,809598.0,793.5004019829992,789.9684019829991,800.8194019829991
49,52,21,M,1,1,41.0,3,1,low,3 + 1 + 8 - 1 + 1,12,12,10,13,803.3528116999987,805.3774307999993,806.8924817999996,811.910619799999,812.7738818999987,812.7738880999987,814.2905144999986,815.3077633999983,q,12,0.8632620999997016,1,+1,213,15.970971653261248,-0.3120993585666767,-0.040563784197945374,812140.0,-2.6922989248487,-0.07542145004147383,-0.15040751236309835,815673.0,20.89560826013815,0.2838263861315631,-0.167733882812934,823069.0,806.8944019829992,803.3614019829992,814.2904019829991
50,52,21,M,1,1,42.0,4,1,high,6 + 1 + 8 + 1 + 1,17,17,15,16,816.8244703,818.8509345999992,820.3662955999989,825.3844301999998,826.2139111999986,826.2139160999996,827.7306433999984,828.7478391999994,q,17,0.8294809999988502,1,+10,223,5.945229564336355,0.12698309849550582,0.09739970465996439,825613.0,6.863262211681056,0.2671240453597905,0.10416304353352146,829146.0,-4.226418820750433,0.03918047950587655,-0.09854449169646684,836510.0,820.3674019829991,816.8344019829992,827.7314019829992
51,52,21,M,1,1,43.0,5,1,low,6 + 1 + 1 + 7 - 1,14,14,12,13,830.2646559999994,832.2922782999995,833.8071919999984,838.8255711999991,839.7258895999985,839.7258943999987,841.2430088000001,842.2597483999998,q,14,0.900318399999378,1,+1,224,18.48019842876915,0.6958721139875794,-0.002453574238183265,839054.0,8.618431276612817,0.3006107891201748,-0.0649849122943742,842587.0,10.343628280289764,0.8218466936849638,0.337299571488588,850022.0,833.8084019829992,830.2754019829991,841.2434019829992
52,52,21,M,1,1,44.0,6,3,low,3 - 7 + 5 + 1 + 9,11,13,11,12,843.7765545999991,845.8017025999998,847.3170127999983,852.3373111000001,852.9498523999991,852.9498573000001,854.4664957999994,855.4834064999995,w,11,0.6125412999990658,1,+1,225,4.2578359221895825,0.8815154695145055,0.29135693477870617,852564.0,17.358310257051414,0.03540036292884485,-0.13348997045366984,856099.0,-11.128860687031041,-0.3331345635287639,-0.4047639577376909,863245.0,847.3204019829992,843.7854019829991,854.4664019829992
53,52,21,M,1,1,45.0,7,1,high,7 - 1 + 9 + 1 - 1,15,14,15,13,857.0001052999996,859.0246418999996,860.5394533999988,865.5579167999986,865.9818796999989,865.9818845999998,867.4985182,868.5160669999987,w,15,0.4239629000003333,1,+10,235,-29.085377838436614,0.31304875364756723,-0.4357084679865644,865787.0,3.905467311742971,0.09128638471344908,0.02544484522515833,869320.0,-8.023597547193008,0.13075117695490013,-0.31895075743738577,876278.0,860.5414019829992,857.0084019829992,867.4994019829992
54,52,21,M,1,1,46.0,8,3,high,8 + 6 - 7 + 1 - 4,4,3,5,4,870.0329333999998,872.0594083999986,873.5744705999987,878.5932521999985,879.3738454999984,879.3738506999998,880.8910183999997,881.9082944999991,e,4,0.7805932999999641,1,+10,245,12.5707591602013,0.1604811818387386,0.41057320491971394,878821.0,-3.3900423890003415,0.11489257078754722,-0.4745342786842526,882355.0,-0.2565143225328228,1.962353928419179,-0.41416961386307904,889670.0,873.5764019829992,870.0424019829992,880.8914019829991
55,52,21,M,1,1,47.0,9,1,low,3 + 1 + 1 + 8 - 1,12,12,14,13,883.4250908999984,885.4521157999989,886.9673862,891.986028199999,892.8298397999988,892.8298448999994,894.3465658999994,895.3643509999984,q,12,0.8438115999997535,1,+1,246,17.79050949749304,0.25730663088291483,-0.0027045504958904676,892214.0,-23.907322871735285,-0.020759490647888068,-0.00022630738475437617,895748.0,-9.834987663354188,0.22449495432726296,0.48009568060606234,903125.0,886.9694019829992,883.4354019829992,894.3464019829992
56,52,21,M,1,1,48.0,10,3,high,6 + 1 + 8 + 7 - 9,13,14,13,15,896.8811006999986,898.9079707000001,900.4240430999998,905.4442671999986,906.1897669999998,906.1897720999988,907.7064928999988,908.7236422999996,w,13,0.7454998000011983,1,+10,256,-18.036075244762706,0.8501912708636952,-0.6420694178238335,905670.0,-1.3059250407844811,0.08091267774249289,-0.026701250975946555,909206.0,23.98001596697108,0.3933503016777864,0.17496977616845455,916485.0,900.4274019829992,896.8914019829991,907.7064019829992
57,52,21,M,1,1,49.0,11,2,low,5 - 8 + 7 + 1 + 1,6,7,8,6,910.2404979999992,912.2681788999998,913.7833864999992,918.8018063,919.3257875999988,919.325792399999,920.8422109999992,921.8591534999996,e,6,0.5239812999989226,1,+1,257,-2.2060533041428094,0.18640603205390338,0.06003388130818221,919030.0,9.957030378401194,-0.12450268209612725,-0.053193711503487284,922564.0,8.370983943073869,-0.10839359989689168,0.050468611398752694,929621.0,913.7854019829991,910.2514019829991,920.8424019829991
58,52,21,M,1,1,50.0,12,1,high,5 + 1 + 1 + 6 + 1,14,13,16,14,923.3757030999986,925.4024197999988,926.9175342999988,931.9358346999998,932.5578088999991,932.5578176,934.0743309999998,935.091324699999,e,14,0.6219741999993857,1,+10,267,-16.43103652507213,0.2663518049056788,0.0027995784676779767,932164.0,-26.500518325198996,-0.11240891069189796,-0.007190878115847399,935697.0,-12.697773524413176,-0.1411158764072622,-0.2885421539452615,942853.0,926.9184019829992,923.3854019829992,934.0744019829991
59,52,21,M,1,1,51.0,13,4,low,8 + 4 + 7 - 5 - 6,8,9,8,6,936.6081823999994,938.6356115999988,940.1514697999992,945.1708743999988,946.1657829999986,946.1657877999988,947.6822325999984,948.699000999999,w,8,0.9949085999996896,1,+1,268,5.691099022349588,0.36484565501875355,0.07631808895430914,945397.0,-1.3582955199394613,0.03646712081057868,-0.07208657031411869,948932.0,7.512804540759216,0.1291994178767235,-1.273841342500595,956461.0,940.1534019829992,936.6184019829992,947.6824019829992
60,52,21,M,1,1,52.0,14,1,low,2 + 1 + 9 + 1 - 1,12,13,11,12,950.2157606,952.2422110999996,953.7575318,958.7761495999983,959.3257481,959.3257592999998,960.8425269999988,961.8597247999988,e,12,0.5495985000015935,1,+1,269,20.43142513582137,0.1412995492421627,0.006606349500075881,959003.0,13.426305539454876,0.18413541463263572,-0.1733162683549978,962537.0,-3.438210088956115,0.6210564552335016,-0.4553424538896089,969621.0,953.7584019829992,950.2244019829992,960.8424019829991
61,52,21,M,1,1,53.0,15,2,high,7 + 5 + 1 - 1 - 8,4,2,3,4,963.3763365999984,965.4010392,966.9161805999992,971.9363146999984,972.4537399,972.4537446999984,973.9698334999994,974.9870182999985,e,4,0.5174252000015258,1,+10,279,-5.44235916710474,0.11493522536840173,0.15674500220653265,972162.0,26.241706012470676,0.24114595308685538,-0.40537238925441077,975698.0,-34.34765980214732,0.3687714371900259,0.16427272036416407,982748.0,966.9194019829991,963.3834019829992,973.9694019829992
62,52,21,M,1,1,54.0,16,4,low,3 + 8 - 5 + 9 - 7,8,6,8,7,976.5036767999992,978.5264529999986,980.0416164999988,985.0600842999992,985.5097768999984,985.5097816999988,987.02621,988.0430816999996,w,8,0.4496925999992527,1,+1,280,6.772896801834834,0.174783907455083,-0.16205523427677515,985287.0,16.736049868234204,0.03603279584755126,-0.06526605612450265,988822.0,-45.69270181421114,0.13566957905214183,-0.04324629248529521,995804.0,980.0434019829992,976.5084019829992,987.0254019829991
63,52,21,M,1,1,55.0,17,1,high,2 + 1 + 9 + 1 - 1,12,11,13,12,989.5599362999984,991.5877630999984,993.1030448999992,998.1226282999996,998.7577817999992,998.7577867,1000.2744065999996,1001.2925910999984,e,12,0.6351534999994328,1,+10,290,1.543274209490992,0.5141938171417042,0.6238475689898304,998349.0,2.8361406951118813,-0.14479761233577837,-0.07574848231565223,1001884.0,11.015640168111512,0.8908314305134892,-0.04757747966016268,1009053.0,993.1054019829992,989.5704019829992,1000.2744019829992
64,52,21,M,1,1,56.0,18,2,high,4 + 8 + 1 + 1 - 5,9,8,9,11,1002.8097122999988,1004.8361944999996,1006.3514247999992,1011.3695093999996,1011.8376891999995,1011.8376938999992,1013.3543106999988,1014.3715601999992,w,9,0.4681798000001436,1,+10,300,22.660484807192773,0.9083733122293889,2.6955176935060203,1011597.0,33.644926580057614,-0.048973239503467436,-0.17421286102708855,1015131.0,-0.8046485569325341,-0.41742032223784364,0.06826449639539778,1022133.0,1006.3524019829991,1002.8184019829991,1013.3544019829992
65,52,21,M,1,1,57.0,19,2,high,3 + 8 + 1 - 5 + 1,8,9,8,6,1015.8882571999984,1017.9148034999998,1019.4304591,1024.4487499999996,1024.989701299999,1024.9897062,1026.506222599999,1027.523579699999,w,8,0.5409512999995059,1,+10,310,-0.22514991597571044,0.4377674688269768,-0.05543457340226654,1024676.0,15.267670466331236,0.08586894041303994,0.014846250028093033,1028210.0,10.882925501016121,0.35823080146620434,0.4083377309040832,1035285.0,1019.4314019829992,1015.8974019829991,1026.5064019829993
66,52,21,M,1,1,58.0,20,1,high,8 + 1 + 5 + 1 + 1,16,16,17,15,1029.0405911999987,1031.0687134,1032.5838324999986,1037.602706399999,1038.317667199999,1038.3176717999995,1039.8343668999987,1040.8517667999986,q,16,0.7149607999999716,1,+10,320,10.901697856496549,0.5307009696713927,0.11423689268148407,1037829.0,-6.964885635609459,0.07343283347321194,-0.027956973090485393,1041364.0,-26.99001579930444,0.8697843248839696,0.09099466135395584,1048613.0,1032.5854019829992,1029.0504019829991,1039.8344019829992
67,52,21,M,1,1,59.0,21,3,high,6 - 1 + 7 - 8 + 9,13,13,12,11,1042.3682398,1044.392747599999,1045.9075908999985,1050.9258536999987,1051.5576671,1051.5576717999993,1053.0738712999992,1054.0913404999992,q,13,0.6318134000011923,1,+10,330,4.992818707641915,0.40457026024983644,0.24993802105580376,1051154.0,-19.453982526806005,0.07996201854948581,0.06577498839973761,1054687.0,19.10933664639871,1.672236916113085,0.1995964120701037,1061852.0,1045.908401982999,1042.3754019829992,1053.0734019829993
68,52,21,M,1,1,60.0,22,1,low,4 + 7 + 1 - 1 - 1,10,10,11,9,1055.6080992999996,1057.6340176999984,1059.1492455999996,1064.1677434999983,1065.0696800999997,1065.0696849999986,1066.5864604,1067.6026789999996,q,10,0.901936600001136,1,+1,331,15.276263714515705,0.8566049852126221,0.509909210575511,1064395.0,5.357116531457373,-0.29971730460998836,0.0016014679900162587,1067929.0,-8.296404260197308,0.8726321171583982,-0.639855061063052,1075364.0,1059.1504019829993,1055.6164019829992,1066.5854019829992
69,52,21,M,1,1,61.0,23,1,low,9 + 1 + 1 + 7 - 1,17,17,16,19,1069.1191485999989,1071.1433081999985,1072.6585380999986,1077.6770423999988,1078.9896757999995,1078.9896807999994,1080.505990399999,1081.5227693999989,q,17,1.312633400000777,1,+1,332,17.10472672504384,0.5888496629287356,0.46032511369195883,1077904.0,-17.632035336213825,0.05603107714081079,-0.004086632864772621,1081438.0,-10.706745610852023,0.5005964871149464,0.45739009500560046,1089284.0,1072.6594019829993,1069.1254019829992,1080.5054019829993
70,52,21,M,1,1,62.0,24,4,high,4 + 7 + 8 - 3 + 9,25,25,24,26,1083.040044899999,1085.0682519999991,1086.5827679999984,1091.6020833999992,1092.3255627999988,1092.3255682999988,1093.8420585999993,1094.8591948999983,q,25,0.7234793999996327,1,+10,342,24.99426689229082,0.24230576279048766,-0.039162684491201194,1091829.0,20.379828306106216,0.03818107926817005,0.15228157170361323,1095362.0,16.677240101278414,1.054262478520577,0.09910936074796317,1102620.0,1086.5834019829992,1083.0504019829991,1093.841401982999
71,52,21,M,1,1,63.0,25,4,high,5 + 7 - 4 + 8 + 6,22,23,22,24,1096.3757960999992,1098.4010485,1099.9162831999984,1104.9349179,1105.6535795,1105.653584399999,1107.1700937999994,1108.1877255,w,22,0.7186615999999049,1,+10,352,18.523134549382434,0.9612016309621483,-0.012909791993103159,1105162.0,-0.4378298726698908,0.10029369108851283,0.024580831769651867,1108696.0,-27.81147167372174,0.2465482636815024,-0.5424905544324703,1115949.0,1099.917401982999,1096.3834019829992,1107.1704019829992
72,52,21,M,1,1,64.0,26,2,high,9 + 6 + 1 + 7 + 1,24,24,23,25,1109.7044173999984,1111.732708399999,1113.2476897999986,1118.265811199999,1119.2056643999986,1119.2056694999992,1120.7222420999988,1121.739345599999,q,24,0.9398531999995612,1,+10,362,-6.617873288399269,0.5313847968730603,0.14457953759749587,1118493.0,0.5616951361623874,0.05890457060081267,-0.07493626138355425,1122027.0,12.263696195173448,0.14475520368578865,0.39468147508767704,1129500.0,1113.2484019829992,1109.714401982999,1120.7214019829992
73,52,21,M,1,1,65.0,27,3,low,2 + 1 + 9 - 7 + 6,11,11,13,12,1123.257075399999,1125.284939699999,1126.8003110999998,1131.8187113999993,1132.5656372999983,1132.5656423,1134.0821988999996,1135.0991242,q,11,0.7469258999990416,1,+1,363,-15.324089890217811,0.5068348249370551,0.22661416191217754,1132046.0,1.1634020696949074,-0.061594542607510405,0.01845516753740628,1135580.0,-6.862611579493982,0.651299826171382,0.26280214784791056,1142860.0,1126.801401982999,1123.2674019829992,1134.081401982999
74,52,21,M,1,1,66.0,28,3,high,5 - 1 - 4 + 6 + 7,13,13,15,14,1136.615812,1138.6408252,1140.156222399999,1145.1746666,1145.8936365999998,1145.8936415999997,1147.410243799999,1148.4276704999993,q,13,0.7189699999998993,1,+10,373,-5.487004088681509,0.027227575621520117,-0.08438294317963946,1145402.0,26.814233117494908,0.13793028869023427,-0.2457102138274656,1148935.0,21.86613818014835,-0.6122144158118501,0.010973575348780518,1156188.0,1140.1564019829991,1136.6234019829992,1147.4094019829993
75,52,21,M,1,1,67.0,29,2,high,5 + 1 + 7 - 6 + 1,8,6,7,8,1149.9445913,1151.9711708999985,1153.4868374999987,1158.506084499999,1159.0775532999996,1159.0775581999987,1160.5940863999986,1161.6114052999983,e,8,0.57146880000073,1,+10,383,11.453954986674118,0.5635122303140789,-0.17534615707122403,1158732.0,7.9177225843940775,0.2858781271805564,0.15045528053948165,1162267.0,-6.393611237082206,1.6430379543654863,0.08757805576091648,1169372.0,1153.4884019829992,1149.9534019829991,1160.5934019829992
76,52,21,M,1,1,68.0,30,4,low,5 + 7 - 4 - 6 + 9,11,11,13,12,1163.1281549999983,1165.1524347999984,1166.6670698999988,1171.6855806999993,1172.5174816999988,1172.5174871,1174.0340510999995,1175.051118899999,q,11,0.8319009999995615,1,+1,384,13.882716162192189,-0.7825700202437316,-0.082014376053414,1171913.0,-7.476006197714344,0.0012084092060422602,-0.3999162323086265,1175446.0,21.409035536817353,0.2848192636240865,0.06442153719237709,1182812.0,1166.667401982999,1163.1344019829992,1174.033401982999
77,52,21,M,1,1,69.0,31,1,low,4 + 9 + 1 - 1 - 1,12,12,11,13,1176.5677147999995,1178.5957579999997,1180.111164599999,1185.1290228999987,1185.8775809,1185.877585799999,1187.3941323,1188.4111961,q,12,0.7485580000011396,1,+1,385,15.618831226212288,0.3343068825953297,-0.11723367141580576,1185356.0,16.98628941321117,0.056599197710008875,-0.18158184981320713,1188890.0,-3.3360484798412458,-0.1911837344040337,0.48157435647662994,1196172.0,1180.1114019829993,1176.5774019829992,1187.3934019829992
78,52,21,M,1,1,70.0,32,4,high,7 + 8 - 4 + 6 - 5,12,11,13,12,1189.9279589999987,1191.9555941,1193.4708222999998,1198.4901744,1199.5175487999986,1199.5175536999996,1201.0343095999997,1202.05177,e,12,1.0273743999987346,1,+10,395,-16.24730697677035,0.4132491312045323,0.5015431556602108,1198716.0,25.296186566227874,-0.10378890340595581,-0.4025240330022781,1202250.0,-15.399614914820587,1.1909387967141216,-0.3644075961168105,1209812.0,1193.4714019829992,1189.937401982999,1201.033401982999
79,52,21,M,1,1,71.0,33,3,low,4 + 8 - 9 + 1 + 7,11,11,9,13,1203.5682699999998,1205.5926845999984,1207.1079154999989,1212.1274676999983,1212.7415813999996,1212.7415862999987,1214.25835,1215.2755398999998,q,11,0.6141137000013259,1,+1,396,7.339628832008046,0.16866286353814042,0.005939467359713735,1212353.0,20.79305137735137,-0.017004972462638213,-0.5452672558463902,1215887.0,-1.0455645110916834,0.7383062031822114,0.08773749110743578,1223036.0,1207.108401982999,1203.5744019829992,1214.2574019829992
80,52,21,M,1,1,72.0,34,3,high,3 + 1 + 8 - 5 + 6,13,15,13,14,1216.792228299999,1218.818018,1220.3332864999993,1225.3519785999997,1226.189543299999,1226.1895484999986,1227.706273599999,1228.724108299999,w,13,0.8375646999993478,1,+10,406,-0.2665985465974572,0.44304309044797363,-0.35768992579142567,1225579.0,36.15950561940379,0.03162880644935351,-0.20954729756502122,1229112.0,4.694660790111863,0.11189743234675098,-0.2581033147641363,1236484.0,1220.3334019829992,1216.8004019829991,1227.705401982999
81,52,21,M,1,1,73.0,35,1,high,2 + 1 + 9 + 1 + 1,14,12,14,13,1230.241035899999,1232.2663470999996,1233.7814671999986,1238.7991578,1239.5095031,1239.509508199999,1241.0261655999984,1242.0434564999996,w,14,0.7103452999999718,1,+10,416,8.571655076030885,1.0421475771677111,-0.17698731467555717,1239027.0,18.152085065447828,0.06685230265433684,-0.43256378133102236,1242560.0,10.389241411734904,0.12686953212654473,-3.24122620577316,1249804.0,1233.7814019829991,1230.2484019829992,1241.0254019829993
82,52,21,M,1,1,74.0,36,3,high,8 - 7 + 9 + 1 + 4,15,15,16,14,1243.5602080999995,1245.5870015,1247.1021643999993,1252.120705899999,1253.525477699999,1253.5254833999988,1255.0422203999988,1256.059421599999,q,15,1.4047718000001623,1,+10,426,-14.323911702201094,1.5245706422526293,0.13741567157760448,1252348.0,-0.8842904521199806,0.2191770334769938,-0.9916689937186187,1255881.0,1.163051829674159,0.7292008529622593,0.20227652316088696,1263820.0,1247.1024019829993,1243.5694019829991,1255.041401982999
83,52,21,M,1,1,75.0,37,2,high,8 + 1 + 4 - 7 + 1,7,7,5,6,1257.5761168999998,1259.6037082999992,1261.118983299999,1266.1375343,1266.6455671999993,1266.6455719999994,1268.1621170999988,1269.1792307999983,q,7,0.5080328999993071,1,+10,436,6.056859035136284,1.5599762776366752,0.3687249343608767,1266364.0,-1.7538039925947295,0.21639408008312477,0.034945595148003106,1269898.0,8.720659646541977,0.12070962365667492,-0.5016962830451468,1276940.0,1261.119401982999,1257.5854019829992,1268.1614019829992
84,52,21,M,1,2,76.0,0,4,high,4 + 7 + 9 - 5 + 7,22,22,24,23,1331.5700664999986,1333.5986923,1335.1137071999983,1340.1334158999998,1340.9654580999995,1340.9654631999983,1342.4820781,1343.4993472999995,q,22,0.8320421999997052,1,+10,446,-17.362442584759307,1.8374598219917626,3.9530416484258204,1340359.0,-10.3871156650174,0.17684427269648673,-0.1626435293838493,1343894.0,9.638208611024394,0.8253168615471349,-0.7505528407520385,1351259.0,1335.1154019829992,1331.580401982999,1342.4804019829992
85,52,21,M,1,2,77.0,1,3,low,4 + 7 + 1 + 9 - 5,16,18,17,16,1345.0162912999986,1347.040934499999,1348.556725299999,1353.5755102999992,1354.4213891,1354.4213941999988,1355.9381215999983,1356.9554663999988,e,16,0.8458788000007189,1,+1,447,27.770605593075146,0.10010287139719098,0.7861696446973481,1353801.0,4.099950826137061,-0.14070902256589912,0.221468975736981,1357335.0,0.7969063279903175,4.298035657533006,0.00094714512505778,1364715.0,1348.5564019829992,1345.022401982999,1355.936401982999
86,52,21,M,1,2,78.0,2,2,high,8 + 1 + 7 + 1 - 4,13,14,12,13,1358.4722722999995,1360.4992437,1362.0142363999985,1367.0328905999995,1367.5734184999983,1367.5734235,1369.0899236999994,1370.1067139999996,e,13,0.5405278999987786,1,+10,457,0.26843591023780533,1.1642615352439036,-0.7615712971124615,1367260.0,-13.892555578580303,0.1933094102285995,-0.15309643419783936,1370793.0,-11.90066697001489,1.3413081827358697,0.16390550210280885,1377867.0,1362.014401982999,1358.4814019829992,1369.0884019829991
87,52,21,M,1,2,79.0,3,3,high,7 + 1 + 9 + 5 - 6,16,16,15,14,1371.6235822999988,1373.6511171999991,1375.1664198999988,1380.1849809999983,1380.8373785999993,1380.8373837999989,1382.3538996999996,1383.3712080999994,q,16,0.6523976000007679,1,+10,467,1.135182472484047,0.12390743818346817,0.17839503880702035,1380411.0,1.9716817208535264,0.14624629656372967,-0.10645911272481845,1383945.0,54.877886729119034,-0.19635642185031665,-0.517645138914776,1391131.0,1375.166401982999,1371.6324019829992,1382.3524019829993
88,52,21,M,1,2,80.0,4,2,low,7 + 5 + 1 + 9 + 1,23,22,23,21,1384.8878453999987,1386.9144742999997,1388.4294672999986,1393.4485492999993,1394.021374,1394.0213791999995,1395.5388115999997,1396.555237999999,w,23,0.5728247000006377,1,+1,468,3.2703131026503627,0.364046903278195,0.31921386776623817,1393675.0,21.375643618428064,0.1081137248765498,-0.23750888916538293,1397209.0,14.053535416492979,0.6466624240145695,-0.3268737134231281,1404315.0,1388.4304019829992,1384.8964019829991,1395.5364019829992
89,52,21,M,1,2,81.0,5,1,low,7 - 1 + 8 + 1 - 1,14,13,14,12,1398.0720587999986,1400.097474799999,1401.6127803,1406.6330812999986,1407.6373672999998,1407.637372699999,1409.1539072999983,1410.1707745999993,w,14,1.0042860000012297,1,+1,469,-27.333282374396017,0.3933965974754239,-0.04888845898018013,1406857.0,-11.533645080025632,0.18331882669934352,0.11612225735494608,1410393.0,-27.45628399035396,0.40912798733694933,0.3572462650684989,1417931.0,1401.6144019829992,1398.0784019829991,1409.1524019829992
90,52,21,M,1,2,82.0,6,3,low,8 - 1 + 6 - 7 + 5,11,12,13,11,1411.6874180999985,1413.714085199999,1415.2293162999997,1420.2499895,1420.9573038999988,1420.9573087999995,1422.474122199999,1423.490760999999,e,11,0.7073143999987224,1,+1,470,18.182356896499478,0.36750656759042966,0.17683800489106938,1420474.0,43.259794826561354,-0.291124174383218,-0.4886675718708875,1424009.0,16.51688177328,0.2745587164424106,-0.423114487811977,1431251.0,1415.2304019829992,1411.695401982999,1422.4724019829991
91,52,21,M,1,2,83.0,7,3,low,6 - 1 + 7 - 8 + 9,13,12,13,11,1425.0072962999984,1427.0307532999996,1428.5459907999991,1433.5653733999989,1434.0292876999993,1434.0292925999984,1435.545779299999,1436.5626960999998,w,13,0.4639143000003969,1,+1,471,24.613926828360448,0.20140878227767534,-0.18581176221163997,1433791.0,50.953047633242875,0.07266267908384272,0.07508669344315066,1437325.0,-15.676669746722688,1.8741439368373034,-0.30141660183082775,1444322.0,1428.5464019829992,1425.012401982999,1435.543401982999
92,52,21,M,1,2,84.0,8,1,low,5 + 6 + 1 + 1 + 1,14,16,14,15,1438.0794821,1440.1068433,1441.622774899999,1446.6404549999988,1447.421253299999,1447.4212578999995,1448.9378970999987,1449.9544099999985,w,14,0.7807983000002423,1,+1,472,5.949832688102614,0.29468909943029287,0.0719278379876529,1446867.0,-1.5013373919210222,0.0009714856886011702,-0.035021720747663077,1450400.0,-35.51631628539514,0.4458382332882871,0.2314735931134353,1457715.0,1441.6214019829993,1438.0884019829991,1448.936401982999
93,52,21,M,1,2,85.0,9,2,high,5 + 7 - 8 + 1 + 1,6,6,7,8,1451.4709463,1453.4989220999996,1455.014158099999,1460.0325421999987,1460.5252457999995,1460.5252511999988,1462.0417936999984,1463.0586320999992,q,6,0.4927036000008229,1,+10,482,-5.089527999041756,1.7840408929637777,-0.031623732182236575,1460259.0,11.21312100299701,0.09124472782995463,-0.08669747740789768,1463792.0,-12.093918432824983,-0.25285455768134746,-0.0009916028927248188,1470819.0,1455.013401982999,1451.4804019829992,1462.0404019829991
94,52,21,M,1,2,86.0,10,4,low,6 + 9 + 7 - 3 - 5,14,12,13,14,1464.5757040999997,1466.6003218999997,1468.1155591999996,1473.1352838999992,1473.7332322999991,1473.7332373999998,1475.2499759999992,1476.266806199999,e,14,0.5979483999999502,1,+1,483,-3.2267436081647674,0.2870675656594015,-0.07184059181630786,1473360.0,-5.352256301175137,0.13278557477104913,-0.02890879981578376,1476895.0,-8.75559351605084,1.6502909402112462,0.1497634411301585,1484026.0,1468.1164019829992,1464.581401982999,1475.2474019829992
95,52,21,M,1,2,87.0,11,1,high,8 + 1 + 1 + 1 - 4,7,7,8,5,1477.783616499999,1479.8121878999991,1481.3273604999997,1486.3459719999992,1487.2853117999985,1487.2853169999998,1488.8022496999984,1489.8195160999985,q,7,0.9393397999992884,1,+10,493,22.704531796389144,0.37349165115597716,0.05428860218732656,1486572.0,2.885570079038935,0.1392888033675188,-0.1961948928278776,1490105.0,5.947715646467525,-0.8821862468743107,-0.008758454952086936,1497579.0,1481.3264019829992,1477.793401982999,1488.8004019829991
96,52,21,M,1,2,88.0,12,2,low,9 + 1 + 6 + 7 + 1,24,23,24,25,1491.3367909999995,1493.3641604999991,1494.8794258999988,1499.8978518999993,1500.285232799999,1500.2852382,1501.8020455999997,1502.8189266999998,w,24,0.3873808999996981,1,+1,494,-16.28151125388556,1.453108330373011,-2.553050317908135,1500124.0,2.1524564086541345,-0.13883326872822765,-0.08975471033046256,1503657.0,10.995076342773613,0.07573375370466584,0.10421444947260006,1510579.0,1494.878401982999,1491.3454019829992,1501.8004019829991
97,52,21,M,1,2,89.0,13,2,low,3 + 8 - 5 + 1 + 1,8,8,9,6,1504.335682999999,1506.3603236,1507.875457799999,1512.8936144999989,1513.7332116999987,1513.7332207,1515.2495897999995,1516.2664286999989,q,8,0.8395971999998437,1,+1,495,-12.82003774329667,-0.06778110929500825,0.09390538190856756,1513120.0,-25.847907694472415,0.21936035240971874,0.1608270772450977,1516654.0,-11.181985437509853,-0.7094271361416551,0.3759265795027833,1524026.0,1507.8754019829992,1504.341401982999,1515.2474019829992
98,52,21,M,1,2,90.0,14,3,high,5 + 6 + 7 - 1 - 9,8,7,8,9,1517.7832499999986,1519.8109479999985,1521.3261201999994,1526.3446934999993,1526.9571895999998,1526.9571947999991,1528.4737491999986,1529.4910781,w,8,0.6124961000004987,1,+10,505,-15.065857018831695,0.11983774453069151,-0.07229216482152911,1526571.0,9.788186743491927,0.2743635391210566,0.255512133381925,1530104.0,0.18736956808677352,0.2456745041307964,-0.621840667458821,1537250.0,1521.3254019829992,1517.792401982999,1528.4714019829992
99,52,21,M,1,2,91.0,15,4,high,6 + 9 + 7 - 3 - 5,14,14,15,13,1531.0080658999996,1533.0322321999993,1534.546999999999,1539.5654016999997,1540.3811741999998,1540.381179099999,1541.8975953999998,1542.914879399999,q,14,0.8157725000000937,1,+10,515,20.711591704134975,0.24638615733379243,-0.271859823567455,1539792.0,3.0072818023201777,-0.055902038574279,-0.07460981796190724,1543325.0,-7.978165211887919,0.866121499467523,0.10721310796164141,1550674.0,1534.5464019829992,1531.013401982999,1541.8954019829991
100,52,21,M,1,2,92.0,16,1,low,2 + 9 + 1 + 1 + 1,14,12,14,13,1544.4320767999998,1546.4594927999988,1547.9747202999988,1552.9921649999997,1553.5891420999997,1553.589146799999,1555.1059573999992,1556.1227259999996,w,14,0.5969771000000037,1,+1,516,-36.76549905961875,-0.25285502050881137,-0.08502490398358731,1553219.0,8.630021342606218,-0.3957306508392291,-0.014943310803538168,1556752.0,5.031353529104114,0.17877618614369517,-0.08226997256415847,1563882.0,1547.9734019829991,1544.4404019829992,1555.1034019829992
101,52,21,M,1,2,93.0,17,4,high,7 + 6 - 4 + 9 - 5,13,13,14,12,1557.639280899999,1559.6670697999998,1561.1830181999994,1566.2011236999988,1567.1491545999995,1567.1491594999989,1568.6657054999996,1569.6832932999987,q,13,0.9480309000009584,1,+10,526,3.315502120613413,0.09166330979280346,-0.0921136033230785,1566426.0,4.638133368045358,-0.0864128884806501,-0.09238015483427175,1569961.0,9.247653277709047,0.8850388672553928,0.3224644909942165,1577442.0,1561.1824019829992,1557.647401982999,1568.6634019829992
102,52,21,M,1,2,94.0,18,3,low,4 + 1 + 8 + 9 - 5,17,19,18,17,1571.2000552999998,1573.224338099999,1574.7397373999993,1579.7585779,1580.381110799999,1580.3811164999988,1581.897492,1582.9143326999983,e,17,0.622532899998987,1,+1,527,11.706471017688395,0.8444168334451221,-0.1261221475651082,1579983.0,-21.332325746989685,0.02313837317737022,-0.08523847103126414,1583517.0,15.947460301322936,0.3093865236642763,0.07188266708471014,1590674.0,1574.7384019829992,1571.2044019829991,1581.8954019829991
103,52,21,M,1,2,95.0,19,3,low,8 + 5 + 1 - 7 + 9,16,14,17,16,1584.4321523999988,1586.4557772999997,1587.9710774999985,1592.989135599999,1593.6931026999991,1593.693107699999,1595.2093234999993,1596.2263792999984,e,16,0.7039671000002272,1,+1,528,20.112821416478546,0.31783996163237327,0.20057428440355696,1593215.0,27.43531622091324,0.01683362498146157,0.09081545257966495,1596749.0,15.887432870714711,-0.20370966323737738,0.12422676454227699,1603986.0,1587.9704019829992,1584.436401982999,1595.2074019829993
104,52,21,M,1,2,96.0,20,4,high,9 + 4 - 6 + 8 + 7,22,24,21,22,1597.7430284999991,1599.769498399999,1601.284784899999,1606.3033240999994,1606.8611026999988,1606.8611077999994,1608.3774804999994,1609.3946879999985,e,22,0.5577785999994376,1,+10,538,-3.762314090199638,0.34122000187365864,-0.21940530193482388,1606529.0,3.775369000929823,0.17865242100899503,0.1485162895736989,1610063.0,8.807704297179534,0.14264883300518805,0.038572043226000385,1617154.0,1601.2844019829993,1597.7504019829992,1608.3754019829992
105,52,21,M,1,2,97.0,21,2,high,3 + 9 + 1 - 5 + 1,9,9,7,8,1610.9113294,1612.9387430999996,1614.4540014999984,1619.4720296999983,1620.1971031999983,1620.1971082,1621.7135698999991,1622.7307421999994,q,9,0.7250734999997803,1,+10,548,-23.85479830480361,0.11806682728609164,0.028547212329575578,1619698.0,-9.072361534317345,0.3053896294578098,0.005611287552555355,1623231.0,2.9699238099352385,0.2593040260548043,-0.28450365102164077,1630490.0,1614.4524019829992,1610.9194019829993,1621.7114019829992
106,52,21,M,1,2,98.0,22,1,high,8 - 1 + 1 + 6 + 1,15,16,15,14,1624.2473106999987,1626.2743744,1627.7893463,1632.8074755999987,1633.6051488999983,1633.605153999999,1635.1217268,1636.1394136,w,15,0.7976732999995875,1,+10,558,4.433189147430454,0.3590163710718781,-0.06270819284353668,1633034.0,-2.5812608894589673,0.09533563842565251,-0.1254765724627107,1636567.0,19.47985490313296,-0.3878366944023517,-0.6137067830052163,1643898.0,1627.7884019829992,1624.2554019829993,1635.119401982999
107,52,21,M,1,2,99.0,23,3,low,6 + 7 + 8 + 1 - 9,13,13,15,14,1637.6561288999983,1639.6814975999987,1641.1965880999996,1646.2152405999989,1646.933094599999,1646.933099599999,1648.4498451,1649.4666576,q,13,0.7178540000004432,1,+1,559,25.531540141445234,1.5882454725397845,0.5192205725037633,1646440.0,-1.7435218994688757,0.10312559902764118,-0.4482321854042255,1649974.0,-5.834520913862697,-0.5536459489667749,0.35806991519667175,1657226.0,1641.195401982999,1637.6614019829992,1648.4474019829993
108,52,21,M,1,2,100.0,24,2,high,6 + 1 + 1 + 8 - 9,7,9,5,7,1650.9835424999983,1653.0116601999998,1654.5278204999995,1659.546058599999,1660.4130732999984,1660.4130780999983,1661.9295721,1662.9469773,e,7,0.8670146999993449,1,+10,569,-10.708367099914224,0.22312307059020187,0.03248086466439615,1659771.0,17.49595798818053,0.1587657072460842,-0.11229756392561807,1663305.0,27.94957777178365,0.6566609860418888,0.21616618445413205,1670706.0,1654.5264019829992,1650.9924019829991,1661.927401982999
109,52,21,M,1,2,101.0,25,3,low,4 + 5 - 3 + 7 - 1,12,13,12,11,1664.4635705,1666.4931382999985,1668.0083375999984,1673.026922699999,1673.541063499999,1673.5410681999983,1675.0575086999995,1676.0743856999998,w,12,0.5141407999999501,1,+1,570,27.933634749161243,0.4422354968246329,-0.25707618633919704,1673252.0,-4.959653176770614,0.16912101606158192,-0.6945541958857895,1676786.0,25.415244002497083,-0.9954570773010574,-0.4793475294349536,1683833.0,1668.0074019829992,1664.4734019829991,1675.0544019829993
110,52,21,M,1,2,102.0,26,3,high,5 + 6 - 4 - 1 + 8,14,14,16,15,1677.5912406999996,1679.6146456999995,1681.1286556999985,1686.146858,1686.6369887,1686.636993799999,1688.1534770999988,1689.1708529999996,q,14,0.4901307000000088,1,+10,580,3.8617487177104115,0.3834352535850438,0.23653873274730364,1686374.0,14.021653980502453,-0.08456008680480576,-0.4836186943650784,1689906.0,-21.25189806830545,1.0067001257140489,0.4152716836522139,1696930.0,1681.1274019829991,1677.5954019829992,1688.1514019829992
111,52,21,M,1,2,103.0,27,2,high,3 + 9 - 1 - 5 + 1,7,6,7,5,1690.6882092999986,1692.7114183999984,1694.2263155,1699.2444648,1699.6769513999989,1699.676956199999,1701.193369999999,1702.2109164999983,w,7,0.4324865999988105,1,+10,590,-6.309269875855394,-0.3226396326070602,-6.22826860221175,1699470.0,18.84191085287761,-0.14656693679539057,-0.041384949773395796,1703003.0,-6.23404023336548,0.10290837005773046,0.08667976890688345,1709969.0,1694.224401982999,1690.6914019829992,1701.1904019829992
112,52,21,M,1,2,104.0,28,3,low,7 - 6 + 8 + 1 + 7,17,17,16,15,1703.7274050999986,1705.7556430999994,1707.2708786999992,1712.2895161999986,1712.8529683999986,1712.8529731999988,1714.3695505999983,1715.386416899999,q,17,0.5634522000000288,1,+1,591,23.443018122787567,0.43949820912047244,-0.40817279682368324,1712514.0,-10.129691076754057,-0.010069675220354402,-0.3509192804481489,1716048.0,-32.28157130638577,0.6890423638375225,0.22059989506425626,1723145.0,1707.2694019829992,1703.735401982999,1714.3664019829992
113,52,21,M,1,2,105.0,29,1,high,5 + 9 - 1 + 1 + 1,15,15,17,13,1716.9030654999988,1718.9270407999993,1720.4423038999994,1725.4603706999987,1726.2210491999997,1726.2210581,1727.7376764,1728.7556240999984,q,15,0.7606785000007221,1,+10,601,-26.44828780649525,0.43693942136340613,0.04263448085663302,1725686.0,-8.621792846766908,-0.2790781357249865,0.0021542887740380046,1729219.0,-18.244394868342013,0.45248671787411854,1.1466201094050872,1736514.0,1720.4404019829992,1716.907401982999,1727.735401982999
114,52,21,M,1,2,106.0,30,3,low,3 + 1 + 6 - 8 + 9,11,13,11,12,1730.2728957999989,1732.3010380999986,1733.8160351999995,1738.8334546999995,1739.6289431999994,1739.6289481999993,1741.1455815999998,1742.1624944999985,w,11,0.7954884999999194,1,+1,602,20.862840154731497,0.32527884070975777,-0.14940073598177905,1739059.0,17.738378384180788,0.23467811068004862,-0.03460209542327375,1742593.0,1.082099192831583,0.414350041829304,-0.11505460102820386,1749921.0,1733.8144019829992,1730.2804019829991,1741.1424019829992
115,52,21,M,1,2,107.0,31,4,low,3 + 8 - 4 + 9 + 7,23,23,24,22,1743.6799778999994,1745.7073470999983,1747.2223374999994,1752.2407820999997,1753.3249618999998,1753.3249667,1754.8414513999996,1755.8582567999983,q,23,1.084179800000129,1,+1,603,-17.74010049816367,0.4396816087321975,-0.38371972628745743,1752466.0,3.2035704567675367,0.11368781915986648,-0.1570768574224488,1755999.0,-11.015192176345042,-0.9528810737740354,-0.7209984626423955,1763617.0,1747.2204019829992,1743.687401982999,1754.8384019829991
116,52,21,M,1,2,108.0,32,1,high,4 + 8 + 1 - 1 - 1,11,9,13,11,1757.3752205,1759.4025085999983,1760.9177454,1765.9374227999997,1766.5330517999992,1766.533056599999,1768.0497225999989,1769.0676833999987,e,11,0.5956289999994624,1,+10,613,-35.18207996127458,0.13250045860437032,-0.05617958100841847,1766161.0,13.633755009501376,0.013062896537821889,0.03300035262700507,1769696.0,26.0322499136258,0.5708797838724535,0.049121697996929115,1776826.0,1760.917401982999,1757.3824019829992,1768.0474019829992
117,52,21,M,1,2,109.0,33,4,low,8 + 7 - 4 + 5 + 9,25,25,26,24,1770.584651199999,1772.6118043999995,1774.127097999999,1779.1458444,1779.812864399999,1779.812869899999,1781.330425099999,1782.3477600999995,q,25,0.6670199999989563,1,+1,614,3.1144047563244577,-0.4547352288950577,-0.08198830797912304,1779370.0,-20.966542498458406,0.33122594441657327,0.08020139218613864,1782904.0,-9.035653290406799,-0.0035622256923766304,0.006995996387456183,1790106.0,1774.1254019829992,1770.591401982999,1781.3274019829992
118,52,21,M,1,2,110.0,34,3,low,7 - 1 + 9 - 5 + 4,14,15,13,14,1783.8642818999997,1785.8920374999998,1787.407242899999,1792.4260441999995,1793.0929287999988,1793.0929339999984,1794.6093229999988,1795.6265761999985,e,14,0.6668845999993209,1,+1,615,-31.249412023651555,0.8928459894091367,0.04363116749949136,1792650.0,-3.5153644195875717,0.23397439613166893,0.08940630034459862,1796184.0,31.600674409025643,0.50948415906572,0.3240971917760549,1803385.0,1787.4054019829991,1783.8714019829993,1794.6064019829992
119,52,21,M,1,2,111.0,35,4,low,3 + 9 - 4 + 7 + 6,21,19,20,21,1797.1433184999987,1799.170435599999,1800.6856329999991,1805.7045806999995,1806.4848313999992,1806.4848361999996,1808.0014675999992,1809.018317099999,e,21,0.7802506999996695,1,+1,616,-23.532603385218408,2.55400180381797,0.01568714169025931,1805929.0,5.72874166777098,-0.19984512289810485,-0.15234494402566345,1809463.0,27.45177557518727,0.49705009018228363,0.1965207849356463,1816777.0,1800.6844019829991,1797.1504019829993,1807.9984019829992
120,52,21,M,1,2,112.0,36,4,high,6 + 5 - 7 + 8 - 9,3,4,3,5,1810.5354481999984,1812.5633022999991,1814.0785672999991,1819.0974011999988,1819.9009284999995,1819.9009336,1821.4174073999984,1822.434634199999,e,5,0.8035273000004963,0,+0,616,-28.675651415758725,0.32201327660740753,-0.0006579854444535016,1819322.0,-1.009059336909985,0.019958205537066176,-0.1591146343189176,1822856.0,4.186902426070935,0.5720851824840061,-0.24475753982343762,1902865.0,1814.0774019829992,1810.543401982999,1894.0864019829992
121,52,21,M,1,2,113.0,37,1,high,7 + 1 + 5 + 1 - 1,13,12,13,14,1823.9515137,1825.975372199999,1827.490619999999,1832.5089494999995,1833.1328877999983,1833.1328926999995,1834.6494190999983,1835.666672199999,w,13,0.6239382999992813,1,+10,626,18.551990430940478,0.6821769077326931,-0.19480743858446314,1832734.0,9.207471248119056,-0.307903742676749,-0.35094913602703537,1836267.0,27.418438243950067,0.4658007894837888,-0.47717773428334676,1843425.0,1827.4884019829992,1823.955401982999,1834.6464019829991
122,52,21,M,1,3,114.0,0,4,low,5 + 9 - 4 + 7 + 6,23,24,23,25,1883.312876099999,1885.3405396,1886.8560110999988,1891.874639,1892.5729383,1892.5729433,1894.0894634,1895.1066379999995,w,23,0.6982993000001443,1,+1,627,10.05966994105126,0.8174606321709517,0.06933584678716831,1892099.0,24.31186250802993,0.3762347491575637,-0.12834204416828476,1895633.0,-15.915762808596634,0.8921329120905823,0.8958682421170436,1942729.0,1886.8544019829992,1883.320401982999,1933.9504019829992
123,52,21,M,1,3,115.0,1,2,low,8 + 1 + 9 + 1 - 4,15,16,14,15,1896.6231087,1898.6499186,1900.1650947999988,1905.183181499999,1905.8368753999985,1905.8368806999988,1907.353441199999,1908.3702949,e,15,0.6536938999997801,1,+1,628,-21.332387709311018,1.3015777341324526,-0.14617409744887278,1905408.0,9.790174597308503,0.03295550974000916,0.22626148742660668,1908941.0,-0.3293656664931497,1.1099905770980807,0.719468800282695,1916128.0,1900.1624019829992,1896.629401982999,1907.349401982999
124,52,21,M,1,3,116.0,2,2,high,9 + 5 - 6 + 1 - 1,8,9,8,7,1909.8870309999984,1911.9135370999995,1913.4289839999983,1918.4470826999984,1919.2208028999996,1919.2208082,1920.7374356,1921.7552481999992,w,8,0.7737202000007528,1,+10,638,10.170601430972024,0.9662447428861363,0.019429462324632052,1918671.0,-17.798158741507585,0.5268323731646385,0.1254430622092817,1922205.0,10.02604900466915,1.6896354221980578,0.03775113057670554,1929513.0,1913.426401982999,1909.8924019829992,1920.734401982999
125,52,21,M,1,3,117.0,3,4,high,5 + 6 - 4 + 7 + 9,23,24,23,25,1923.2721932999996,1925.2981826999985,1926.8134383999984,1931.831869,1932.4367164999985,1932.436721299999,1933.9538503999995,1934.970708499999,w,23,0.6048474999988684,1,+10,648,5.928729374957426,-0.746890295766578,-0.044128552183956504,1932056.0,-13.58904592856113,0.18288823852085967,0.05616357013573681,1935590.0,-23.006479344372128,1.1324191420772793,1.8367559754088263,2022520.0,1926.811401982999,1923.2774019829992,2013.7414019829992
126,52,21,M,1,3,118.0,4,2,high,2 + 1 + 9 - 4 + 1,9,8,9,11,1936.487468199999,1938.5155282999983,1940.0308176,1945.0495189999983,1945.796790499999,1945.7967954999983,1947.3135088999989,1948.3308683999985,w,9,0.7472715000003518,1,+10,658,8.256003422792322,1.6684124510347416,-0.4736297446065292,1945274.0,39.43887587362817,-0.36052888059878097,-0.2644400641075808,1948808.0,-6.072087585835844,4.705193343681014,0.11989480641211925,1956089.0,1940.0294019829992,1936.495401982999,1947.310401982999
127,52,21,M,1,3,119.0,5,1,low,7 - 1 + 1 + 9 - 1,15,14,13,15,1949.8472119999988,1951.875107,1953.3903458999996,1958.4088770999988,1959.0453186999985,1959.0453236999983,1960.5614668999988,1961.5783493,e,15,0.6364415999996709,1,+1,659,-16.249694418245426,0.8545813360167003,0.2369545106544262,1958633.0,-2.7963472687881428,0.3531054369406035,0.002005126220433917,1962167.0,-6.392951969900985,0.685998023304287,0.053273864291079054,1969336.0,1953.388401982999,1949.8544019829992,1960.5574019829992
128,52,21,M,1,3,120.0,6,3,low,7 - 1 + 8 - 6 + 4,12,13,12,11,1963.0952573999984,1965.1229012999995,1966.6371898999987,1971.6554459999988,1972.3968154999984,1972.3968203999996,1973.913268799999,1974.9300119,w,12,0.7413694999995641,1,+1,660,-7.099652239650457,1.1571005089144308,0.3215005151882271,1971881.0,-1.370560505854507,0.4109559648913552,0.12709969677110178,1975414.0,7.082577600285578,-0.05643085013793536,-1.0928986826744402,1982688.0,1966.6354019829992,1963.1024019829993,1973.9094019829993
129,52,21,M,1,3,121.0,7,3,high,2 + 1 + 9 - 4 + 6,14,14,16,15,1976.446746399999,1978.4712488999996,1979.9864781999984,1985.0046004,1985.756711099999,1985.756715899999,1987.2731637,1988.2903664999997,q,14,0.7521106999993208,1,+10,670,3.7660560567658337,0.3259944263275285,0.07734039662494085,1985229.0,-4.527199025803135,0.31257845321543165,0.05322385932955065,1988763.0,-21.275951354215916,0.6201664012346484,0.6857712715513029,1996048.0,1979.984401982999,1976.4504019829992,1987.2694019829992
130,52,21,M,1,3,122.0,8,2,high,2 + 9 + 1 + 1 - 5,8,8,6,7,1989.8069597999984,1991.8329899,1993.3483256,1998.366752599999,1998.9568014,1998.9568064999985,2000.4734962999992,2001.4907747,q,8,0.590048800000659,1,+10,680,-1.5007107341930634,0.26731500902532446,0.9257964025786343,1998591.0,25.54330880937365,-0.04155969485736266,-0.018147638406226463,2002125.0,0.20252236706123883,-0.31091546373636625,0.053453284670343715,2009249.0,1993.3464019829992,1989.812401982999,2000.4704019829992
131,52,21,M,1,3,123.0,9,4,low,2 + 9 - 6 + 8 - 4,9,11,9,7,2003.0077334,2005.0330349,2006.5482806,2011.5668252,2012.2287421,2012.2287471,2013.7450206999983,2014.7619151999988,w,9,0.6619169000005058,1,+1,681,-27.12681202495786,-0.2594464929886282,0.02424289558689363,2011791.0,-31.649881075973894,-0.1517068051308046,-0.07657828423700441,2015325.0,-4.730631684305546,0.023502708785990478,0.3195590580519001,2035704.0,2006.5464019829992,2003.012401982999,2026.9254019829991
132,52,21,M,1,3,124.0,10,4,high,7 + 6 - 9 + 8 - 3,9,7,9,8,2016.2782718999988,2018.305666799999,2019.8208294,2024.8384976999987,2025.4127455999987,2025.412751,2026.9292020999983,2027.9475167,w,9,0.5742479000000458,1,+10,691,5.69732753483191,0.09454392084471275,0.6365214749677803,2025062.0,2.361407654055162,0.3446541026556953,0.02610631066819291,2028597.0,-26.13584068171358,1.6435076013094472,0.2029565771994608,2075721.0,2019.8184019829991,2016.283401982999,2066.942401982999
133,52,21,M,1,3,125.0,11,3,high,7 + 5 + 9 + 1 - 6,16,14,16,15,2029.4642349999997,2031.4880460999996,2033.0030782999984,2038.0218013999984,2038.7647767999988,2038.7647819999984,2040.2815453999992,2041.2990066999992,w,16,0.7429754000004323,1,+10,701,-6.218786793765198,0.10814781510827709,-0.7062330479405625,2038246.0,-14.975301597472347,-0.040900652081864664,0.0609904458734547,2041779.0,23.147224009372444,0.20546873181650938,-0.10835489223613859,2049057.0,2033.0004019829992,2029.4674019829993,2040.278401982999
134,52,21,M,1,3,126.0,12,3,low,2 + 9 - 3 + 4 + 1,13,14,13,11,2042.815551399999,2044.8417756,2046.3569362999988,2051.3753080999995,2051.9806407999986,2051.9806455,2053.4971368999995,2054.513906099999,w,13,0.6053326999990531,1,+1,702,-1.5949109969671547,0.546224586116308,0.03957220813207063,2051600.0,14.66749852088959,-0.11407476001988748,-0.33185238175637055,2055133.0,-55.06015891297973,-0.8993489042066463,0.18081553483241297,2062272.0,2046.354401982999,2042.821401982999,2053.493401982999
135,52,21,M,1,3,127.0,13,4,low,4 + 8 + 9 - 3 + 7,25,26,24,25,2056.0312288999994,2058.0587103,2059.5745418999995,2064.593020099999,2065.428643899999,2065.4286488,2066.9462052,2067.9632661999985,e,25,0.8356237999996665,1,+1,703,-0.22729106080977068,0.9217149912555644,-0.16532738259172253,2064816.0,21.053879320779387,0.1605422953641189,0.04315100521163773,2068351.0,-62.660034696725475,0.09595147506942459,-0.29304767425591627,2102777.0,2059.572401982999,2056.0374019829987,2093.998401982999
136,52,21,M,1,3,128.0,14,1,low,3 + 1 + 9 + 1 - 1,13,12,13,14,2069.480064399999,2071.5080212999983,2073.023232399999,2078.0427396999985,2079.1966813,2079.196686199999,2080.7129541999984,2081.729495399999,w,13,1.153941600001417,1,+1,704,19.109688117674967,1.0249197838018116,0.7882409689565875,2078266.0,-6.442822815506412,-0.20685992376739515,0.09980572657928954,2081800.0,21.343097340555595,0.5357145410012323,0.13947649952085062,2089488.0,2073.021401982999,2069.487401982999,2080.7094019829988
137,52,21,M,1,3,129.0,15,4,high,8 + 5 - 4 + 7 + 9,25,26,24,25,2083.246168,2085.273501599999,2086.7885831999997,2091.8070336,2092.484854799999,2092.4848600999994,2094.0014992,2095.0189041999984,e,25,0.6778211999990162,1,+10,714,0.942063094828768,0.46534464845613455,-0.0690662096930783,2092031.0,8.05278026732583,0.396965189127084,-0.249462406443566,2095565.0,6.539683181412103,-0.033848347671793455,0.1043485532950239,2129471.0,2086.786401982999,2083.252401982999,2120.692401982999
138,52,21,M,1,3,130.0,16,2,low,4 + 7 + 1 + 1 - 8,5,4,7,5,2096.535763599999,2098.563521799999,2100.0788827999986,2105.0988363,2105.9326451,2105.9326502999998,2107.449211699999,2108.4660233999984,e,5,0.8338088000000425,1,+1,715,2.3954224844727383,1.437228151252179,-0.1551246516456315,2105321.0,47.021531725388485,0.09895797373823667,0.017749993324659208,2108856.0,12.135762898958841,-0.21082611677007268,0.15584335899491486,2116224.0,2100.077401982999,2096.542401982999,2107.445401982999
139,52,21,M,1,3,131.0,17,4,low,2 + 9 - 4 + 8 + 7,22,23,21,22,2109.982484599999,2112.0095038,2113.5247979999986,2118.5432600999998,2119.180592499999,2119.180597499999,2120.6965901999997,2121.7139068,e,22,0.6373323999996501,1,+1,716,-8.879022486487965,1.6875281236687862,0.3920566367848122,2118767.0,0.6360447726215162,0.139772080578632,-0.1837651111899441,2122301.0,-3.9663183007315865,0.7547739028338083,-0.1567682270773103,2183112.0,2113.522401982999,2109.9884019829988,2174.333401982999
140,52,21,M,1,3,132.0,18,1,low,3 + 1 + 8 + 1 + 1,14,12,13,14,2123.230598099999,2125.258081099999,2126.773407699998,2131.7927655999997,2132.3966046999994,2132.3966100999987,2133.9131984999985,2134.930040899999,e,14,0.6038391000001866,1,+1,717,6.983931206572833,1.0313559412330982,0.5994989183444608,2132016.0,-36.4882649568585,-0.2114012653684303,0.04282397453260556,2135550.0,-18.319242416919774,0.17781875706058292,0.00674037957087581,2142688.0,2126.771401982999,2123.237401982999,2133.909401982999
141,52,21,M,1,3,133.0,19,1,high,5 + 8 - 1 + 1 + 1,14,14,12,16,2136.4468732999994,2138.4744739999987,2139.988754599999,2145.007162099999,2145.9726899999987,2145.9726951,2147.488800199999,2148.5059648999995,q,14,0.96552789999987,1,+10,727,15.195248843480748,0.795023664074475,0.07886588299343611,2145232.0,0.6085303186798203,-0.05623694344968033,0.07903748499433072,2148765.0,51.95445447313172,0.09851393101785177,0.06272087510908597,2156263.0,2139.986401982999,2136.453401982999,2147.484401982999
142,52,21,M,1,3,134.0,20,2,high,2 + 9 - 4 + 1 + 1,9,9,8,11,2150.0226496,2152.048815599999,2153.5637068,2158.583536,2159.5165067999988,2159.516511599999,2161.032769199999,2162.0500274999995,q,9,0.9329707999986568,1,+10,737,16.606288604638898,1.2722379468064688,-0.05489314737585005,2158806.0,-21.02830795789702,-0.1155444251782316,-0.5206034065911151,2162341.0,11.359530715556868,0.23133537503014256,0.35572558371405005,2169808.0,2153.562401982999,2150.027401982999,2161.029401982999
143,52,21,M,1,3,135.0,21,4,low,9 + 3 - 5 + 8 + 6,21,23,19,21,2163.5675134999983,2165.5917739999986,2167.1070440999997,2172.1266210999984,2172.8205867,2172.8205917999985,2174.3379649,2175.3547289,e,21,0.6939656000013201,1,+1,738,-14.782357398378355,-0.5961127317376156,-0.7826769898940815,2172349.0,-45.539734665894045,0.01550936091203603,0.27090824326995744,2175883.0,36.719310643727525,2.5543920199686845,-0.022645791682572414,2196599.0,2167.1044019829988,2163.570401982999,2187.820401982999
144,52,21,M,1,3,136.0,22,4,low,9 + 7 - 5 + 8 + 6,25,25,24,27,2176.8715206999987,2178.897986599999,2180.4141305999983,2185.432366199999,2186.308579499999,2186.308584999999,2187.8251562999994,2188.8419949,q,25,0.8762133000000176,1,+1,739,2.4491638381067986,0.43003700276540346,0.12883582632135915,2185656.0,34.60465211956586,-0.0820579303643112,-0.5312694899273072,2189190.0,6.294301085667655,-0.741532565168125,-0.24110839750868274,2253440.0,2180.411401982999,2176.877401982999,2244.661401982999
145,52,21,M,1,3,137.0,23,2,low,4 + 9 - 7 + 1 - 1,6,6,8,5,2190.3587245,2192.3862071999997,2193.9013812999983,2198.9199130999987,2199.508463999998,2199.5084684999983,2201.0248204,2202.0417184999988,q,6,0.5885508999999729,1,+1,740,-6.432332204025677,2.4776426798930533,-0.17501007945931257,2199143.0,-17.81534165617098,0.11565305293642192,0.14142073661019983,2202677.0,-3.4853124266658853,-0.1343516799080664,-0.1214485627702182,2209799.0,2193.898401982999,2190.364401982999,2201.020401982999
146,52,21,M,1,3,138.0,24,1,high,4 + 1 + 1 + 7 - 1,12,12,14,13,2203.5585754999997,2205.5854547,2207.0996471,2212.119986599999,2212.9325037,2212.9325087999987,2214.449411399999,2215.466825199999,q,12,0.8125171000010596,1,+10,750,-12.580498321748374,-0.1780973127235841,0.13565734052641276,2212343.0,-6.1018251144530105,0.004152157781981636,-0.024843135820284745,2215877.0,30.110740325705432,0.2421635071319086,0.7832466106166425,2223224.0,2207.098401982999,2203.564401982999,2214.445401982999
147,52,21,M,1,3,139.0,25,4,low,6 + 9 - 7 + 8 - 5,11,12,11,13,2216.9835771999988,2219.008830499999,2220.524341999999,2225.544467399999,2229.620583,2229.6205882999984,2231.1371757,2232.1544911,e,13,4.076115600000776,0,+0,750,-22.99968704890396,2.7573771868840065,-0.5318717026749271,2225766.0,2.9328719133576158,0.8202657659358343,-0.08423203569145565,2229302.0,3.7429283150031374,1.2163265456495194,-0.9754411959080842,2320431.0,2220.523401982999,2216.987401982999,2311.652401982999
148,52,21,M,1,3,140.0,26,4,high,5 + 7 - 4 - 6 + 9,11,12,13,11,2233.6711013999998,2235.6972645999995,2237.2125519,2242.2311531,2243.1484883999983,2243.1485003999987,2244.665291699999,2245.6826243,e,11,0.91733529999874,1,+10,760,1.2003310245888734,-0.13316142095224803,-0.01705492524146357,2242454.0,-37.006261837573405,0.12966858872969445,0.1282316992452719,2245988.0,9.161519211319666,-0.9349404521032953,-0.607127008747746,2386471.0,2237.2094019829988,2233.675401982999,2377.692401982999
149,52,21,M,1,3,141.0,27,3,high,4 + 8 - 3 + 5 - 1,13,13,14,12,2247.199401099999,2249.223607,2250.738696799999,2255.757359899999,2256.4924600999984,2256.4924653999988,2258.0095683,2259.0267891999997,q,13,0.7351001999995788,1,+10,770,-4.938868570635236,2.092387824038524,-0.15016806008313854,2255981.0,8.364984682141767,-0.06314856050130002,-0.07346857563267672,2259515.0,-4.071783363357991,0.713407239947117,-0.3636026805363528,2266784.0,2250.736401982999,2247.202401982999,2258.005401982999
150,52,21,M,1,3,142.0,28,1,high,5 + 1 + 1 + 9 + 1,17,17,16,19,2260.5442212,2262.5673207,2264.0826191999986,2269.100294599999,2269.764417799999,2269.764423299999,2271.2808087999983,2272.297987099999,q,17,0.6641232000001764,1,+10,780,-6.164205165980917,0.3524871202054758,-0.001235604259289369,2269325.0,14.721234331829125,0.09751391534577047,0.026271398285990788,2272857.0,21.31281727380037,0.9527159722730052,0.39740281356106966,2280055.0,2264.078401982999,2260.5464019829988,2271.276401982999
151,52,21,M,1,3,143.0,29,2,low,4 + 8 + 1 + 1 - 6,8,7,9,8,2273.8148226999983,2275.8391328999987,2277.3545275,2282.3728742999992,2282.996475,2282.9964800999987,2284.5129603999994,2285.5299595,e,8,0.6236007000006794,1,+1,781,-7.732095092625377,4.800516533267315,1.1442034144672903,2282596.0,-12.111656137302607,0.3822749710457849,-0.10518540567926515,2286130.0,16.568395351445936,0.7575518252680546,0.09445608313841869,2293287.0,2277.351401982999,2273.817401982999,2284.5084019829987
152,52,21,M,1,3,144.0,30,2,high,8 + 1 + 1 + 9 - 4,15,15,16,14,2287.046642199999,2289.0725095999987,2290.5878233999997,2295.6057052,2296.620459599999,2296.6204647999984,2298.1370959999986,2299.1542211999986,q,15,1.0147543999992197,1,+10,791,2.0533637446988555,0.8111384241144091,-0.2217719619821401,2295829.0,11.29845835408788,-0.27946910183772156,-0.032858217885858076,2299363.0,-9.714346200320009,0.6510106089450995,-0.06092268293444003,2306911.0,2290.5844019829988,2287.050401982999,2298.132401982999
153,52,21,M,1,3,145.0,31,4,low,8 + 3 - 4 + 5 + 9,21,21,23,22,2300.6709371,2302.6958578999984,2304.2112376999994,2309.2297131999985,2310.1403748,2310.140379999999,2311.6567832,2312.6736277,q,21,0.9106616000008216,1,+1,792,20.17544169691771,0.6467392260978739,-0.30323593918951497,2309453.0,-45.203431124201856,-0.2225036026931546,0.05979812674484597,2312987.0,49.60408952252857,-0.10516697231044958,0.5844165511303592,2514662.0,2304.208401982999,2300.674401982999,2505.8834019829987
154,52,21,M,1,3,146.0,32,3,high,5 + 7 + 1 - 4 + 6,15,17,15,13,2314.1902249999985,2316.2176801999994,2317.7329448,2322.751445099999,2323.332390899999,2323.3323960999987,2324.8492599,2325.866394499999,w,15,0.580945800000336,1,+10,802,2.33910629998066,1.5864242370472414,0.3752387637511516,2322975.0,-2.7824438966179486,0.26725762557894805,-0.08534611364346834,2326508.0,9.899111826436854,-0.09498315692011872,-0.05098303593916942,2333623.0,2317.7294019829988,2314.196401982999,2324.844401982999
155,52,21,M,1,3,147.0,33,3,low,2 + 1 + 9 - 5 + 6,13,13,11,14,2327.3831027999986,2329.4079678,2330.9233320999992,2335.9418216999984,2336.7003558,2336.7003609999992,2338.216500999999,2339.2324063999986,q,13,0.7585341000012704,1,+1,803,-27.440809882449017,0.5239379168202598,0.24322986348301434,2336165.0,-20.22420802094087,-0.575580648130412,-0.2265674482107296,2339699.0,38.17168867437497,0.6224979823839178,0.1224054643054906,2346990.0,2330.920401982999,2327.386401982999,2338.2114019829987
156,52,21,M,1,3,148.0,34,2,low,7 + 1 + 9 - 1 - 8,8,7,8,6,2340.7489739,2342.7764606,2344.2915526,2349.310526199999,2349.756355399999,2349.7563600999983,2351.272793,2352.289685,w,8,0.4458291999999346,1,+1,804,25.8480629530193,-0.1827279553578136,-0.10750261101452296,2349534.0,27.09721036803688,0.3414032291645528,0.24873010922341043,2353067.0,1.449448416934949,-0.4594568962249621,0.16910498184446432,2360047.0,2344.288401982999,2340.755401982999,2351.268401982999
157,52,21,M,1,3,149.0,35,1,high,9 + 8 + 1 + 1 - 1,18,19,17,18,2353.807341399999,2355.8331826999984,2357.3492952,2362.3670416999994,2363.148326999999,2363.1483315999994,2364.6646033,2365.6824493999998,e,18,0.7812852999995812,1,+10,814,1.4790422749358392,0.22647878700452617,-0.3501828003529581,2362590.0,-9.19292168028949,0.22282090896475726,0.08014669420782705,2366124.0,12.557462506520448,0.4047103442567068,-0.15120220911725246,2373439.0,2357.3454019829987,2353.811401982999,2364.660401982999
158,52,21,M,1,3,150.0,36,4,high,3 + 8 - 4 + 9 + 6,22,23,22,21,2367.199218399999,2369.2239892999987,2370.7391646999986,2375.7572002,2376.180312999999,2376.1803175999994,2377.6968012,2378.713740399998,w,22,0.4231127999992168,1,+10,824,12.859301503619486,1.6763080964618995,0.05273239235044769,2375981.0,31.323401715839456,0.051971506958710556,-0.037331902285886676,2379514.0,-1.5842443140021558,0.618506369813753,-0.09163024285230748,2527854.0,2370.735401982999,2367.202401982999,2519.0754019829988
159,52,21,M,1,3,151.0,37,2,low,5 + 8 + 1 - 1 + 9,22,22,21,23,2380.2304293999987,2382.258291099999,2383.7734113999995,2388.7914738,2389.476382699999,2389.476388199999,2390.9927777,2392.009941999999,q,22,0.6849088999988453,1,+1,825,-4.660275918387548,0.6930687632596584,-0.058047120191879076,2389015.0,9.391264686413237,-0.6896561701281283,-0.0373026662445779,2392548.0,25.604027024550884,1.6064516651018237,0.2762105979131746,2399767.0,2383.7694019829987,2380.236401982999,2390.9884019829988
160,52,21,M,1,4,152.0,0,4,high,9 + 8 - 5 - 7 + 6,11,10,11,13,2493.1768036999983,2495.2045664,2496.719844699999,2501.7402384999987,2504.3721558999987,2504.3721608,2505.8883933999987,2506.905813399999,w,11,2.6319174000000203,1,+10,835,-16.655794019128855,1.590924989911704,0.08051546139282428,2501961.0,-5.627906746710739,1.7265928097807466,0.2080448413304783,2505497.0,-10.542461147644515,-0.9176197901694505,0.11505066582362788,2567766.0,2496.718401982999,2493.1824019829987,2558.987401982999
161,52,21,M,1,4,153.0,1,4,low,7 + 6 - 9 + 8 - 3,9,8,9,7,2508.422611799999,2510.450343499999,2511.9653217999985,2516.9840085,2517.564192599999,2517.5641975,2519.0806680999995,2520.097462399999,w,9,0.5801840999993146,1,+1,836,-7.558137156093659,2.483188709101502,-2.0626601091806727,2517207.0,3.0158452188513643,0.5793270082250705,-0.17687451778291852,2520740.0,37.220148469676836,0.24021509975222477,0.19245949175243693,2580798.0,2511.9614019829987,2508.428401982999,2572.0194019829987
162,52,21,M,1,4,154.0,2,2,low,9 + 4 + 5 + 1 - 1,18,18,19,17,2521.6140554999984,2523.6416475999995,2525.1566330999995,2530.1749114999984,2530.8361816,2530.8361866,2532.3526348999985,2533.369421199999,q,18,0.6612701000012748,1,+1,837,-2.2425529821282026,0.8302490246643677,0.07851823802774693,2530398.0,0.9397446342227251,-1.6198725657913737,-0.10918452549466862,2533931.0,13.36346509518975,-0.16307135823485153,0.5221856152007522,2541126.0,2525.152401982999,2521.619401982999,2532.347401982999
163,52,21,M,1,4,155.0,3,1,low,6 + 1 + 1 + 9 - 1,16,14,16,15,2534.8862512999985,2536.912708599999,2538.4279969,2543.447114299999,2544.2521614999987,2544.2521666,2545.768900699999,2546.7860227,w,16,0.8050471999995352,1,+1,838,14.060541945968986,0.7317600944601006,0.25703865886299515,2543669.0,22.85743440661924,-0.041098471727426755,-0.05034765250719442,2547203.0,18.62010868437708,0.5515050331742959,0.34154734161122247,2554542.0,2538.424401982999,2534.890401982999,2545.763401982999
164,52,21,M,1,4,156.0,4,4,high,2 + 9 - 3 + 5 + 8,21,23,22,21,2548.3025260999984,2550.3298760999987,2551.84606,2556.8640554999984,2557.476137,2557.4761419999995,2558.9926000999985,2560.010651299999,e,21,0.6120815000012954,1,+10,848,-7.501354683803907,-0.5960922778358615,-0.12475463285868194,2557086.0,6.672914705942144,0.025801537452933676,0.10015284184796713,2560621.0,13.740119937156416,0.8621077941982351,0.16880872179885875,2634438.0,2551.842401982999,2548.3074019829987,2625.659401982999
165,52,21,M,1,4,157.0,5,4,high,6 + 7 + 9 - 3 + 5,24,22,24,23,2561.527464999999,2563.550648299999,2565.0658975999995,2570.0845622999987,2570.508139899999,2570.508145399999,2572.0245414,2573.0414809999984,w,24,0.4235776000004989,1,+10,858,-6.113281952191125,0.4082181417509303,0.3067350002716498,2570307.0,13.362853859142778,0.20368514390090287,0.08790886089506711,2573841.0,2.996843196660805,-0.6150782268371895,0.4821166869092224,2688573.0,2565.062401982999,2561.5284019829987,2679.794401982999
166,52,21,M,1,4,158.0,6,1,high,7 + 1 + 4 + 1 - 1,12,12,13,14,2574.558412799999,2576.580778,2578.095480099999,2583.1136393,2583.8121865,2583.8121918,2585.329114799999,2586.3464102,q,12,0.6985471999996662,1,+10,868,1.802615314605534,0.29911695744202715,0.042190052239560405,2583337.0,-6.041150074009206,0.06538325486495289,-0.045302240213634715,2586870.0,10.745582316229452,0.5484174156312429,-0.8871648777270735,2594103.0,2578.091401982999,2574.558401982999,2585.324401982999
167,52,21,M,1,4,159.0,7,2,low,6 + 1 + 7 - 8 - 1,5,5,7,4,2587.8631001999984,2589.8901262,2591.4059236,2596.4239351999986,2597.236050199999,2597.2360553,2598.7524810999985,2599.769822799999,q,5,0.812115000000631,1,+1,869,22.074608230544012,0.09992564670700688,-0.22529007457120565,2596646.0,1.749417161466173,-0.3888694407736746,0.1285153525644478,2600181.0,1.7096603114079123,0.04001359421471884,0.5345351903613829,2607525.0,2591.402401982999,2587.867401982999,2598.746401982999
168,52,21,M,1,4,160.0,8,1,high,2 + 9 + 1 + 1 + 1,14,12,13,14,2601.2865539999984,2603.314520599999,2604.8295074999987,2609.8474214999987,2610.6680308999985,2610.6680364999997,2612.1843104,2613.2013432999997,e,14,0.8206093999997393,1,+10,879,-20.70736983026115,0.32536229091473734,-0.08763697528684933,2610071.0,43.63713021378746,-0.31416649343092695,-0.4738583977244655,2613603.0,32.11135157421121,-0.0050567110371733115,0.01711953089054341,2620958.0,2604.824401982999,2601.292401982999,2612.179401982999
169,52,21,M,1,4,161.0,9,4,high,8 + 4 + 7 - 5 - 6,8,7,8,9,2614.7178429,2616.743715999999,2618.2590047999984,2623.2771808999987,2624.1480579,2624.1480629,2625.664476599999,2626.6818778,w,8,0.8708770000012009,1,+10,889,0.7428227031387387,-0.1538213458137463,0.006690545704823192,2623499.0,0.9355207200770872,-0.14696847505732924,0.06919293143987848,2627034.0,17.387463535874936,0.402512140578978,0.11535884892686554,2728772.0,2618.255401982999,2614.7204019829987,2719.993401982999
170,52,21,M,1,4,162.0,10,1,high,5 + 6 + 1 + 1 + 1,14,14,16,13,2628.198736099999,2630.2250312,2631.7403007999983,2636.7579145,2637.4760969,2637.476102299999,2638.9933273999995,2640.010616399999,q,14,0.7181823999999324,1,+10,899,-4.491160966015315,0.34525156335406626,-0.35304371043096494,2636981.0,15.007292389154912,-0.34355649961147483,0.12162082558232412,2640514.0,-22.612009811512827,0.5645801852412462,-0.082111672741223,2647767.0,2631.735401982999,2628.202401982999,2638.9884019829988
171,52,21,M,1,4,163.0,11,2,high,4 + 1 + 9 + 1 - 6,9,7,9,8,2641.5273517999995,2643.5546018999994,2645.069738299999,2650.0878684,2651.124023299999,2651.1240285999997,2652.640824099999,2653.658309299999,w,9,1.036154899999019,1,+10,909,2.091774099197604,1.1322857663271262,0.7671661513219112,2650310.0,-2.233988140240232,-0.00393522828054893,0.06799741160506323,2653844.0,-1.6175918277862937,0.8909350440017463,0.011887073618930488,2661414.0,2645.065401982999,2641.531401982999,2652.635401982999
172,52,21,M,1,4,164.0,12,1,low,3 + 1 + 9 + 1 + 1,15,17,14,15,2655.1750395,2657.2020591,2658.716724099999,2663.735408999999,2664.7480326999994,2664.7480380999987,2666.2644083999985,2667.281262499999,e,15,1.012623700000404,1,+1,910,7.61289997537419,-0.07515743395360008,0.009015894451483542,2663958.0,-18.501669893162035,0.4575378958029437,0.1160872118901417,2667491.0,10.590560238850912,0.6139447270582323,0.24271678522712348,2675037.0,2658.712401982999,2655.179401982999,2666.2584019829987
173,52,21,M,1,4,165.0,13,4,low,2 + 5 - 3 + 9 + 8,21,19,22,21,2668.7977259,2670.8257098999984,2672.3414477999995,2677.3602605999986,2678.2840149999997,2678.2840198999984,2679.800264899999,2680.817139499999,e,21,0.9237544000006892,1,+1,911,34.560380889646524,0.04617908355833533,0.022229808450240807,2677581.0,4.363672196881699,-0.15452841533574713,-0.013282116564730995,2681116.0,10.90384322907478,0.479765767830882,0.41127957058442743,2808365.0,2672.337401982999,2668.802401982999,2799.5864019829987
174,52,21,M,1,4,166.0,14,3,low,3 + 8 - 7 + 1 + 9,14,12,14,13,2682.3338238,2684.360709299999,2685.8760599999987,2690.8965206,2691.6600184,2691.6600243999983,2693.1767344,2694.1935006999997,w,14,0.7634978000005503,1,+1,912,-9.742050518814331,0.896326355112333,0.1279206881163697,2691117.0,14.235473204186867,0.2570272397726856,-0.20722645015103835,2694652.0,13.034356664015862,-0.05278105146093015,0.9052036418168801,2701949.0,2685.873401982999,2682.338401982999,2693.170401982999
175,52,21,M,1,4,167.0,15,2,high,8 + 1 + 9 + 1 - 5,14,15,13,14,2695.7103443,2697.737630899999,2699.2536139999997,2704.271666499999,2705.243974899998,2705.243983499998,2706.760368699999,2707.7778136999987,e,14,0.972308399999747,1,+10,922,33.43055820856986,0.1578130168671028,-0.010728878550763765,2704493.0,14.503645241590577,0.004371179385089796,-0.14200796643824098,2708027.0,-11.909960428983222,-0.3232455568735584,-0.38132848557105126,2715534.0,2699.248401982999,2695.714401982999,2706.755401982999
176,52,21,M,1,4,168.0,16,4,low,5 + 8 - 6 + 7 + 4,18,19,17,18,2709.2938586,2711.319534799999,2712.8347730999994,2717.8531761999984,2718.484018699999,2718.4840236,2719.999778399999,2721.0166964,e,18,0.6308425000006537,1,+1,923,9.360134645839985,0.2856076961333005,-0.1220475731534536,2718075.0,0.48876831790967756,0.28572521815014085,0.01518023223210907,2721609.0,-27.929179813339044,-0.2561028603195128,0.08976874206894347,2821622.0,2712.830401982999,2709.2964019829988,2812.843401982999
177,52,21,M,1,4,169.0,17,2,high,6 + 1 + 1 + 7 - 9,6,8,6,4,2722.533587099999,2724.559418499999,2726.074542799999,2731.0930156999984,2732.0039812999985,2732.0039867,2733.520605099998,2734.5378948999987,w,6,0.910965600000054,1,+10,933,11.0566073923995,0.21929093306221903,0.01696944401468925,2731314.0,-74.32711397377915,-0.39795561517764355,0.04105488064126628,2734849.0,67.535048390671,1.5325366129106461,-0.15469905657663618,2742294.0,2726.070401982999,2722.535401982999,2733.515401982999
178,52,21,M,1,4,170.0,18,1,low,3 + 1 + 1 + 9 - 1,13,14,12,13,2736.054597799999,2738.0823528,2739.5977255,2744.6162687999986,2745.259953499999,2745.2599588999983,2746.7769341999992,2747.7938801,e,13,0.6436847000004491,1,+1,934,-0.6665781355783977,1.1883543247777872,0.05313317383584959,2744838.0,-12.514641947346558,-0.39636415149853477,0.08584566167986152,2748372.0,-5.76784996446534,-0.16502830436668336,-0.08207372124724777,2755550.0,2739.593401982999,2736.059401982999,2746.771401982999
179,52,21,M,1,4,171.0,19,3,high,4 + 7 - 3 + 5 - 1,12,13,12,11,2749.3103863999986,2751.3345494999994,2752.8492668,2757.8692465999998,2758.3479592999997,2758.3479646999986,2759.8644711999987,2760.882517799999,w,12,0.47871269999996,1,+10,944,-4.20075898649276,-0.2960813103319997,6.988625225062927,2758090.0,8.100382033675398,0.17289588309700754,-0.0028670551715552772,2761625.0,-0.5426817790096994,0.4657557840855042,0.11257894542439995,2768638.0,2752.846401982999,2749.311401982999,2759.859401982999
180,52,21,M,1,4,172.0,20,2,high,6 + 1 + 1 + 7 - 9,6,8,4,6,2762.3999031999992,2764.4263108,2765.9415751999986,2770.9599334999984,2771.603909199999,2771.6039143999988,2773.1208104,2774.1384998999984,e,6,0.6439757000007376,1,+10,954,7.1935045234888,-0.7555051546044087,-0.20451408724560616,2771182.0,5.650655618717515,0.34214438891457144,0.020824072755750933,2774716.0,-33.8269299602966,0.32707572347485536,0.1658956086890866,2781894.0,2765.937401982999,2762.4034019829987,2773.1154019829987
181,52,21,M,1,4,173.0,21,2,high,5 + 9 - 8 + 1 + 1,8,8,7,9,2775.6553602999998,2777.679691,2779.1950303999984,2784.2129638999995,2784.7479656999985,2784.7479706999984,2786.264566799998,2787.2814511,q,8,0.5350017999990087,1,+10,964,-6.961409650816856,0.48354960474319997,-0.0659966688141258,2784435.0,14.996880587649727,0.3570208105456789,-0.12233174763033228,2787969.0,3.4596398054143407,-0.3945352515506855,-0.26952426699957277,2795037.0,2779.190401982999,2775.656401982999,2786.2584019829987
182,52,21,M,1,4,174.0,22,4,high,3 + 9 - 5 + 8 - 7,8,7,8,9,2788.7985214,2790.8259172,2792.3411174999983,2797.3595522,2798.0758596999985,2798.0758646999984,2799.5925907,2800.6099717999987,w,8,0.7163074999989476,1,+10,974,-5.31816217927792,0.007739707061745538,-3.4744391860660055,2797582.0,8.54961742581376,0.22295924894233066,-0.012738019698030456,2801115.0,-29.013290123275024,4.42668642363125,0.5657165523054233,3095860.0,2792.3364019829987,2788.803401982999,3087.081401982999
183,52,21,M,1,4,175.0,23,4,high,5 + 8 - 4 - 6 + 9,12,13,12,14,2802.1266663999995,2804.1515918999994,2805.666747899999,2810.6860217999983,2811.3318609999988,2811.331865799999,2812.8491189999986,2813.8664495,w,12,0.6458392000004096,1,+10,984,34.36923644297617,0.7562625982972344,0.01724300348555463,2810907.0,3.1253202176136874,0.40604693744164866,-0.057960109956908035,2814441.0,,,,,2805.6624019829987,2802.128401982999,
184,52,21,M,1,4,176.0,24,2,low,3 + 1 + 8 - 5 - 1,6,5,6,7,2815.3831448,2817.4100454,2818.9252108,2823.9430667,2824.5478035999986,2824.5478083999988,2826.0648384,2827.0824911,w,6,0.6047368999988976,1,+1,985,7.336446953433482,0.6779319367018442,-0.11521514993874282,2824165.0,-42.229118687805425,0.24385881250691765,-0.16776238062351645,2827699.0,8.219912645795123,-0.2039360074491845,0.04796488813435862,2834837.0,2818.920401982999,2815.386401982999,2826.058401982999
185,52,21,M,1,4,177.0,25,2,low,6 + 1 + 7 + 5 - 1,18,17,18,16,2828.5990589,2830.6218577,2832.1371082999995,2837.155468499999,2837.643871799999,2837.6438771,2839.1604517,2840.177171199999,w,18,0.4884032999998453,1,+1,986,4.956140091307722,4.4581866824072875,0.17675989429869832,2837378.0,23.262072200338643,1.2271917167201756,-0.027270835700998974,2840911.0,28.861088596597433,1.0485054393051483,0.31914053392461916,2847933.0,2832.132401982999,2828.599401982999,2839.154401982999
186,52,21,M,1,4,178.0,26,1,low,7 + 1 + 4 + 1 - 1,12,12,13,11,2841.6939453999985,2843.7210086999985,2845.236161499999,2850.2544267999983,2851.1958086999985,2851.1958134999986,2852.7120251,2853.729051299999,q,12,0.941381900000124,1,+1,987,-16.939501908796057,2.496071543660446,0.05491650308121643,2850476.0,-11.01674069465474,1.6959993325200968,0.034517509311846384,2854010.0,21.807079067027917,0.012434089756885314,0.06683383580526181,2861484.0,2845.231401982999,2841.697401982999,2852.705401982999
187,52,21,M,1,4,179.0,27,2,low,6 + 1 + 8 + 7 - 1,21,21,19,23,2855.245925699999,2857.2744238,2858.7896035999984,2863.8079521,2864.5958207999997,2864.5958256999984,2866.112227899999,2867.1288122999995,q,21,0.7878686999993079,1,+1,988,-2.463698740262953,0.14443340748482658,-0.06571480720070833,2864029.0,7.942563314457638,0.32515957652687355,0.01813586395020339,2867563.0,22.64414219341778,-0.014341755959283553,0.13991672957204448,2874884.0,2858.784401982999,2855.250401982999,2866.105401982999
188,52,21,M,1,4,180.0,28,1,low,6 + 9 + 1 + 1 - 1,16,16,15,14,2868.6454503999994,2870.672099399999,2872.1873777,2877.205166399999,2878.0998948,2878.0998998999985,2879.6164386,2880.6329314999984,q,16,0.8947284000005311,1,+1,989,17.442099429248444,-0.09441501714672818,-0.1668339200444311,2877427.0,-0.47330962019324874,-0.19352825736406842,-0.08356513362715723,2880961.0,0.21959690038166535,0.19859100337632762,-0.3622125115564294,2888389.0,2872.1824019829987,2868.648401982999,2879.610401982999
189,52,21,M,1,4,181.0,29,3,low,6 + 8 + 7 + 1 - 9,13,15,13,14,2882.1494036999998,2884.1746635,2885.689921899999,2890.7082004999997,2892.403848599999,2892.4038538999994,2893.9202472999987,2894.9373397,w,13,1.695648099999744,1,+1,990,0.06389649967680988,0.9804364898042355,0.14236778775865844,2890931.0,9.686181162194492,-0.07248985540707897,0.0006599305926870969,2894464.0,-35.01713444274178,3.157778020554552,0.5528385848460726,2902693.0,2885.685401982999,2882.152401982999,2893.914401982999
190,52,21,M,1,4,182.0,30,1,high,7 + 1 + 4 + 1 - 1,12,11,13,12,2896.454850099999,2898.478969399999,2899.9940109,2905.0124763999997,2905.5158068,2905.515811699999,2907.032143999999,2908.049008,e,12,0.5033304000007774,1,+10,1000,-20.069775038914212,1.0049114464853903,-0.0376891596634823,2905234.0,14.665063498688186,0.3871814821025277,0.08733267210298035,2908768.0,17.14863475301828,0.24607083704283417,-0.23431557505604883,2915804.0,2899.989401982999,2896.455401982999,2907.025401982999
191,52,21,M,1,4,183.0,31,3,low,5 + 6 - 4 - 1 + 7,13,13,14,15,2909.5656727999994,2911.5931863999995,2913.1084760999984,2918.126889199999,2919.3557654,2919.355770799999,2920.872231399999,2921.8891504999992,q,13,1.228876200000741,1,+1,1001,13.622494630792243,0.30401656550993206,0.038327501385460705,2918348.0,-22.558042901093064,0.20942544132568575,0.07002056284304525,2921882.0,-16.19033013826755,0.41228875017527056,-0.041078365384371374,2929644.0,2913.103401982999,2909.569401982999,2920.8654019829987
192,52,21,M,1,4,184.0,32,1,high,3 + 1 + 8 + 1 + 1,14,14,16,13,2923.405883199999,2925.4321014,2926.9471472999994,2931.9649641,2932.8037755999994,2932.8037810999995,2934.3201689999987,2935.3374532999987,q,14,0.8388114999997924,1,+10,1011,10.523004300212008,0.423176679487554,0.014039120694486984,2932187.0,11.746079479013119,0.13454067428391925,0.07425518089147909,2935720.0,-7.706037778063737,0.9137821072113881,0.011059396144316613,2943092.0,2926.9414019829987,2923.408401982999,2934.313401982999
193,52,21,M,1,4,185.0,33,2,low,7 + 6 + 1 + 8 + 1,23,23,22,21,2936.8541270999995,2938.8812585999985,2940.3963459999995,2945.4149805,2946.2996883999986,2946.2996932999995,2947.816048699998,2948.8329946999984,q,23,0.8847078999988298,1,+1,1012,32.66972818218661,0.3357255654237403,0.21106707314204187,2945637.0,-8.959981564438756,-0.042949116476890925,-0.06086828123021171,2949170.0,-12.328064895495842,0.15363173360315674,0.1421018092642965,2956588.0,2940.391401982999,2936.858401982999,2947.809401982999
194,52,21,M,1,4,186.0,34,3,high,2 + 9 + 1 - 5 + 7,14,15,12,14,2950.3495454999997,2952.3771185999994,2953.892391199999,2958.9106200999995,2959.7156817999985,2959.7156865999987,2961.2325678,2962.2496139999985,e,14,0.805061699998987,1,+10,1022,-21.039511551097554,0.240034045447044,0.03856940689690691,2959132.0,18.744947747168048,0.12526559509754476,-0.4820127714610045,2962666.0,-22.574252635603024,1.0236581834031107,0.17875584477842232,2970005.0,2953.887401982999,2950.353401982999,2961.226401982999
195,52,21,M,1,4,187.0,35,3,high,9 - 1 + 5 - 6 + 8,15,15,17,14,2963.766536199999,2965.789947199999,2967.3051992,2972.3233446999984,2974.3558637999995,2974.3558688999983,2975.872328899999,2976.8895333,q,15,2.032519100001082,1,+10,1032,6.442199196082765,-0.0967442396255822,-0.025416451615557945,2972545.0,-10.298114121713645,0.14293166716323435,0.07685616687224717,2976078.0,-3.6170323906378226,0.38658195439297405,1.775531635762076,2984644.0,2967.299401982999,2963.766401982999,2975.8654019829987
196,52,21,M,1,4,188.0,36,3,low,6 - 1 + 7 - 8 + 9,13,12,13,11,2978.4063159,2980.429326199999,2981.9441892999985,2986.9630955,2987.5156312,2987.515636099999,2989.0321912,2990.0494218999997,w,13,0.5525357000005897,1,+1,1033,8.067051440504905,0.9118710890869277,1.1253939823981072,2987184.0,6.096881186941747,0.5316171767814533,0.22777557750221922,2990718.0,-3.9606537680328007,0.9766501703613981,0.47922633619580557,2997804.0,2981.939401982999,2978.405401982999,2989.025401982999
197,52,21,M,1,4,189.0,37,1,low,7 + 1 + 6 + 1 + 1,16,17,18,16,2991.5668658999984,2993.5943281,2995.109426199999,3000.1272458999997,3000.763674599999,3000.763679599999,3002.2810376,3003.298316999999,e,16,0.6364286999996693,1,+1,1034,22.18234581264801,2.0804057867248695,-0.15871558405253094,3000349.0,-22.472748855641726,-0.21961590627537708,-0.13915421307788156,3003882.0,9.056241666104663,-0.14400743414849515,0.5665675456265564,3011053.0,2995.103401982999,2991.570401982999,3002.274401982999
198,52,21,M,1,5,190.0,0,4,high,3 + 9 - 5 + 6 + 8,21,21,22,23,3075.5213465999987,3077.549609,3079.0656277,3084.0848331999987,3085.5716232999985,3085.571628599999,3087.0882389,3088.1055229999984,q,21,1.48679009999978,1,+10,1044,-4.404590418217275,2.281703456316243,0.03435544526696699,3084304.0,0.42946709135764394,0.7775757568893278,-0.48828292065319245,3087840.0,,,,,3079.061401982999,3075.525401982999,
199,52,21,M,1,5,191.0,1,1,low,9 + 7 + 1 + 1 + 1,19,18,20,19,3089.6217953999985,3091.649469099999,3093.1657526,3098.1842382999985,3098.8596198,3098.8596248999984,3100.3762307999987,3101.3931994999984,e,19,0.6753815000010945,1,+1,1045,1.2195831524735752,-1.4888041491885078,-0.11552517548328223,3098404.0,10.770166941862625,-0.37839727027587866,-0.16088193409708063,3101939.0,49.955878106679606,0.39390873905308066,0.6118745947393942,3109148.0,3093.160401982999,3089.625401982999,3100.369401982999
