,id,age,sex,cued,block,trial,trialinblock,efflev,rewlev,calc,corAns,option1,option2,option3,tstart,ITI1Time,probTime,respTime,selectTime,ITI2Time,fbTime,ITI3Time,key_press,chosenAns,RT,acc,feedback,total_points,cuescr,cuecor,cuezyg,cuetime,probscr,probcor,probzyg,probtime,fbscr,fbcor,fbzyg,fbtime,probtime_c,cuetime_c,fbtime_c
0,54,29,f,0,Practice,,0,1,0,4 + 1 + 9 + 1 + 1,16,14,15,16,50.32149200000276,,50.32149420000496,55.58948360000795,56.36575690000609,56.365763299996615,57.8827076000016,58.9037074999942,e,16,0.7762732999981381,1,Correct,0,,,,,-3.0909002354861403,1.5068307932813951,0.33773881915024173,48148.0,-7.817615766902012,0.5930458689166649,-0.2842496551465774,55463.0,50.574038383501104,,57.8890383835011
1,54,29,f,0,Practice,,1,1,0,3 + 1 + 1 + 8 - 1,12,12,10,11,60.42065770000045,,60.42066060000798,65.44173479999881,66.30966660000558,66.30969700000423,67.82635210000444,68.84413909999421,q,12,0.8679318000067724,1,Correct,0,,,,,10.265803757826529,-0.7167094407892725,0.1139115924977876,58001.0,49.37798413055264,-0.13206174571334195,-0.16907037563068883,65403.0,60.4270383835011,,67.82903838350111
2,54,29,f,0,Practice,,2,2,0,8 + 1 + 6 + 1 - 4,12,11,10,12,70.36195390000648,,70.36195980000775,75.38190150000446,76.99784389999695,76.99784999999974,78.51490979999653,79.53517309999734,w,10,1.6159423999924911,0,Incorrect,0,,,,,-17.921326297937423,0.24508556515318158,-0.391292613153154,67941.0,-6.719806563000983,-0.00856788699267419,0.7685704030707416,76094.0,70.36703838350111,,78.5200383835011
3,54,29,f,0,Practice,,3,2,0,9 + 4 - 6 + 1 - 1,7,7,6,5,81.05311690000235,,81.05311979999533,86.0723369000043,86.89350649999687,86.89351300000271,88.40985929999442,89.42710709999665,q,7,0.8211695999925723,1,Correct,0,,,,,-19.802113915993598,-0.4392835258311836,0.17291063686994246,78631.0,18.183533984337203,-0.2849914206565858,-0.039276475854076676,85986.0,81.05703838350111,,88.41203838350111
4,54,29,f,0,Practice,,4,3,0,9 + 3 - 5 + 6 + 7,20,21,22,20,90.94391970000288,,90.94392279999738,95.96273780000048,97.46948899999552,97.46949529999983,98.985591500008,100.00339600000008,q,21,1.5067511999950511,0,Incorrect,0,,,,,11.405909290281118,0.2577067452774502,0.28691815407403043,88522.0,7.341547357867208,-0.3602744249419061,0.0198338899285595,96562.0,90.94803838350111,,98.9880383835011
5,54,29,f,0,Practice,,5,3,0,2 + 1 + 9 - 7 + 6,11,10,11,9,101.51991350000026,,101.519916499994,106.53893789999712,107.4778132000065,107.47781949999626,108.99586239999915,110.01392189999753,w,11,0.9388753000093856,1,Correct,0,,,,,19.633402771314508,-0.5943223587731641,-0.3838884191685543,99098.0,20.90735347075637,0.7000239201912306,0.16141865963098878,106573.0,101.52403838350111,,108.9990383835011
6,54,29,f,0,Practice,,6,4,0,4 + 8 + 5 - 3 + 7,21,21,22,23,111.53100600000472,,111.53100899999843,116.55128090000652,117.19754760000797,117.19755389999771,118.71451020000676,119.73230879999755,q,21,0.6462667000014335,1,Correct,0,,,,,4.331974580593265,-1.7894998137168505,0.052899703300450795,109110.0,5.054574347005193,0.15872570477168857,0.1603499424051944,116291.0,111.53603838350111,,118.7170383835011
7,54,29,f,0,Practice,,7,4,0,5 + 8 - 4 + 6 + 9,24,22,23,24,121.25007819999882,,121.25008110000635,126.26971429999683,126.93362389999676,126.93363030000182,128.45052539999597,129.46857700000692,q,22,0.6639095999998972,0,Incorrect,0,,,,,-2.3108825737120497,-0.33590876680787396,0.09017214889283043,118829.0,-35.20073560832098,-0.40185012494863326,-0.27280794238125594,126028.0,121.2550383835011,,128.4540383835011
8,54,29,f,1,0,0.0,0,1,low,3 + 1 + 8 + 1 + 1,14,13,14,12,274.7791225999972,276.8053402000078,278.320662099999,283.3390272999968,284.1870605000004,284.1870662000001,285.7036458000075,286.7207999999955,w,14,0.848033200003556,1,+1,1,9.168790635438338,-1.4805732853176483,-5.845250848472636,272364.0,-12.480241103276658,0.19537209070590134,-0.6211059520807583,275897.0,-43.289605455060226,-0.3980745415187039,0.02772413129914275,1267675.0,278.3230383835011,274.7900383835011,1270.101038383501
9,54,29,f,1,0,1.0,1,3,low,9 - 5 - 1 - 6 + 8,5,7,4,5,288.2374287999992,290.273969300004,291.7890689000051,296.80737110000337,298.7950447000039,298.7950497999991,300.31173889999627,301.3285848999949,e,5,1.987673600000562,1,+1,2,-4.954375800914903,0.2889525632159824,-0.13198669584870526,285832.0,3.5749272794540587,-0.37960096213189853,-0.010309360650077704,289366.0,-14.986331681262135,-0.04745453415803169,0.11593548301614875,510414.0,291.7920383835011,288.2580383835011,512.8400383835011
10,54,29,f,1,0,2.0,2,3,low,6 + 1 + 8 + 7 - 9,13,14,13,15,302.8452943000011,304.86890689999564,306.38417990000744,311.40403920000244,312.21901909999724,312.2190246999962,313.735373500007,314.7521823999996,w,13,0.8149798999947961,1,+1,3,-6.582361018922517,-0.07069991915582374,0.13576590825698842,300427.0,23.441746180801395,0.13723440717433633,-0.3910921381642072,303962.0,1.8143733866829983,0.2697471831225222,0.23529087640701274,866765.0,306.3880383835011,302.85303838350114,869.1910383835011
11,54,29,f,1,0,3.0,3,4,low,4 + 7 + 9 - 5 + 7,22,23,22,24,316.26893089999794,318.30552710000484,319.8208326000022,324.8391604000062,325.379068299997,325.3790735000075,326.8957020999951,327.9126389000012,w,22,0.5399078999907942,1,+1,4,10.133683304858296,0.4590347165825337,0.009048290060264197,313863.0,-38.094050024096944,0.02012249941013433,0.10743083538257858,317397.0,51.093076756826,0.3663172100145542,0.052278259797323035,2186903.0,319.8230383835011,316.2890383835011,2189.329038383501
12,54,29,f,1,0,4.0,4,4,low,5 + 7 - 4 - 6 + 9,11,13,11,12,329.4295393000066,331.4564453000057,332.9717997999978,337.9908402000001,338.55500290000055,338.5550084999996,340.07164219999686,341.08844690000114,w,11,0.5641627000004519,1,+1,5,-7.839080326263527,-0.5794340698069078,0.29233410397789417,327015.0,-20.068882585808353,-0.8514144366382439,-0.12225663366265893,330549.0,-1.2071206209310859,0.2174811455270378,0.18463071004502796,2439327.0,332.9750383835011,329.4410383835011,2441.7530383835015
13,54,29,f,1,0,5.0,5,2,high,6 + 1 + 8 + 5 - 1,19,19,17,18,342.6050729999988,344.6837838000065,346.1990802000073,351.21849420000217,351.73905479999667,351.7390605999972,353.2562661999982,354.27371649999986,q,19,0.5205605999944964,1,+10,15,41.037097447969835,0.4514009480362926,0.01782750271863387,340242.0,9.895700163839642,-0.3800804130803046,-0.2769597467857965,343777.0,10.95856658205007,-0.9088772821189313,0.2494024313457146,390743.0,346.2030383835011,342.66803838350114,393.1690383835011
14,54,29,f,1,0,6.0,6,1,low,2 + 9 + 1 + 1 + 1,14,13,12,14,355.7907678000047,357.81747569999425,359.3327013999952,364.3507406999997,365.1629469000036,365.162951899998,366.6794564000011,367.6966775000037,e,14,0.8122062000038568,1,+1,16,-1.5617032071083958,0.528512177167002,-0.10539635618662535,353375.0,10.031627526585208,0.507642974872831,0.3413056326248327,356909.0,-8.371373122808125,-0.03546841383301658,0.06306716294836834,2306344.0,359.3350383835011,355.8010383835011,2308.7700383835013
15,54,29,f,1,0,7.0,7,4,high,7 + 6 - 9 + 8 - 3,9,8,9,7,369.2137731999974,371.2527686999965,372.7683126000047,377.78884890000336,378.4029054999992,378.4029107999959,379.9189437000023,380.9363439000008,w,9,0.6140565999958199,1,+10,26,16.790320134556275,0.4637996590288118,-0.18437823453019186,366811.0,3.3495438753544127,-0.8527569175159808,0.03212985558520165,370347.0,,,,,372.7730383835011,369.2370383835011,
16,54,29,f,1,0,8.0,8,2,high,9 + 4 - 6 + 1 - 1,7,8,7,9,382.4532630000031,384.479834400001,385.9950783999957,391.0133696999983,391.651005199994,391.6510108000075,393.1673475999996,394.18468120000034,e,9,0.6376354999956675,0,+0,26,-17.39794502197479,0.20454727998339095,-0.2967549180558464,380038.0,-20.244830011497445,-0.013430381999899765,0.1719543087874964,383571.0,42.973025499743926,-0.3545512138561291,-0.10617997082177144,2760060.0,385.99703838350115,382.46403838350113,2762.486038383501
17,54,29,f,1,0,9.0,9,3,high,3 - 7 + 5 + 1 + 9,11,12,13,11,395.701384,397.74238910000713,399.25769630000286,404.27661129999615,404.9629739000084,404.9629793000058,406.4800245000079,407.4972495999973,e,11,0.6863626000122167,1,+10,36,3.3573261752228056,-0.44372085242692716,0.025109470157930414,393300.0,-29.783651076771697,0.20715229276404568,-0.07387643407355693,396834.0,3.7553053103299536,0.4834197348501341,0.5988212827292241,1162236.0,399.2600383835011,395.72603838350113,1164.662038383501
18,54,29,f,1,0,10.0,10,2,low,7 + 5 + 1 + 9 + 1,23,22,21,23,409.0139857000031,411.094322799996,412.6096752000012,417.62735120000434,418.2109079000074,418.2109131000034,419.7276020999998,420.74444070000027,e,23,0.5835567000031006,1,+1,37,8.987462331490033,0.20376878075948213,0.04870801072272757,406652.0,-22.487355136047626,0.5064941704753254,0.0769020292300322,410185.0,26.180027188503285,-0.02924741450619006,-0.08947235099191442,2957956.0,412.6110383835011,409.0780383835011,2960.3820383835014
19,54,29,f,1,0,11.0,11,3,low,4 + 1 + 8 + 9 - 5,17,18,19,17,422.261224300004,424.29004639999766,425.805285800001,430.8235219000053,431.426862399996,431.42686750000576,432.9431610000029,433.9599145999964,e,17,0.6033404999907361,1,+1,38,18.843586432533677,0.09653682525389673,-0.14867841171380958,419847.0,8.817500184197934,-0.21408068145544856,0.08654364613456833,423381.0,12.123049188741255,-0.6489095658501731,0.19097023217924392,2145895.0,425.8070383835011,422.2730383835011,2148.321038383501
20,54,29,f,1,0,12.0,12,3,high,8 + 4 + 1 - 7 + 9,15,13,16,15,435.47690870000224,437.50214880000567,439.01756249999744,444.0355137000006,444.7068826000032,444.7068883000029,446.2234613000037,447.24078670000017,e,15,0.6713689000025624,1,+10,48,20.289940478628825,0.5075497563167017,-0.2005918485678193,433060.0,-32.79145337769103,-0.5142447187603336,0.17311185788056616,436594.0,,,,,439.0200383835011,435.4860383835011,
21,54,29,f,1,0,13.0,13,1,high,9 + 8 + 1 + 1 - 1,18,19,18,17,448.7575982999988,450.8344879000069,452.3496868000075,457.36783309999737,458.0191504999966,458.0191558999941,459.5358680000063,460.5529544000019,w,18,0.6513173999992432,1,+10,58,8.701831731812927,0.07124545160588269,-0.5402067352596829,446392.0,14.056408886437882,-0.007190529753407837,-0.004010517883843434,449926.0,-8.692582788615296,-0.3072528682446549,0.1745040381700922,2825645.0,452.3520383835011,448.8180383835011,2828.071038383501
22,54,29,f,1,0,14.0,14,2,high,7 + 5 + 1 - 1 - 8,4,2,4,3,462.0697358000034,464.0962249000004,465.6111804999964,470.6298182000028,471.4109176000056,471.4109231000039,472.9275827999954,473.9447988000029,w,4,0.7810994000028586,1,+10,68,8.717364700242769,0.266189058999279,-0.2802464855755975,459654.0,-3.978872269023121,-0.3189034598184479,0.16375063816690938,463187.0,,,,,465.61303838350113,462.0800383835011,
23,54,29,f,1,0,15.0,15,3,high,7 - 1 + 8 - 6 + 4,12,13,11,12,475.4615663000004,477.487921699998,479.0028923000064,484.0231836000021,484.7948495000019,484.7948547999986,486.3113334999944,487.3284762999974,e,12,0.771665899999789,1,+10,78,49.11832389086762,-0.6411586878101669,-0.1179079229390041,473045.0,25.908237168879108,0.27236616592673357,0.0026104453063000577,476581.0,,,,,479.00703838350114,475.47103838350114,
24,54,29,f,1,0,16.0,16,2,low,6 + 1 + 1 + 7 - 9,6,8,6,4,488.8452285999956,490.87286820000736,492.3880517000071,497.4063781000005,498.03483560000313,498.0348415000044,499.5514678000036,500.5683337000082,w,6,0.6284575000026962,1,+1,79,7.126684803389356,0.31551159124646766,0.16723395292845478,486430.0,-1.7654014385378218,-0.5809100366374533,0.24798151810427527,489964.0,,,,,492.3900383835011,488.85603838350113,
25,54,29,f,1,0,17.0,17,3,high,7 - 1 + 9 - 5 + 4,14,15,14,13,502.08507319999626,504.1110194000066,505.6260449999973,510.64611899999727,511.3229427000042,511.32294790000014,512.8396523999982,513.856734800007,q,15,0.6768237000069348,0,+0,79,23.290345952614302,-0.02273415967197856,-0.2054634129973163,499669.0,38.187479517218264,0.31801538149342523,-0.008968458504083898,503204.0,,,,,505.63003838350113,502.0950383835011,
26,54,29,f,1,0,18.0,18,2,high,6 + 1 + 7 - 8 - 1,5,7,4,5,515.3736128000019,517.3998637000041,518.9150673999975,523.9338775000069,524.5947957000026,524.5948009999993,526.1111870000022,527.1285017000046,e,5,0.660918199995649,1,+10,89,8.966876586931015,-0.33479974154748504,-0.08108176143803947,512957.0,10.83043689281361,0.2793860546798852,0.14392694738942335,516491.0,,,,,518.9170383835011,515.3830383835011,
27,54,29,f,1,0,19.0,19,1,high,7 + 1 + 5 + 1 - 1,13,12,13,14,528.6453426999942,530.6724284000084,532.1878130999976,537.2078951000003,537.7547933000023,537.7547983999975,539.2712330000068,540.2884000000049,w,13,0.5468982000020333,1,+10,99,-40.542738613245795,-0.23036692922669655,-0.2438303945796867,526230.0,34.78791486275372,-0.5507163999342763,0.21590626297907223,529766.0,,,,,532.1920383835011,528.6560383835011,
28,54,29,f,1,0,20.0,20,1,high,6 + 1 + 1 + 7 - 1,14,13,14,12,541.8051812000049,543.8312344000005,545.3465734000056,550.3648213999986,551.0508247999969,551.0508303999959,552.5671870000078,553.584718500002,w,14,0.6860033999982988,1,+10,109,22.936624472608266,-0.1462539501862823,-0.3422530665016832,539389.0,-18.3565380719375,-0.49277799396871824,-0.19968414483070696,542922.0,,,,,545.3480383835011,541.8150383835011,
29,54,29,f,1,0,21.0,21,2,low,2 + 9 + 1 + 1 - 5,8,8,6,7,555.1014752000046,557.1273896000057,558.6422528999974,563.6607515000069,564.3227074000024,564.3227129000006,565.8393582999997,566.8562613999966,q,8,0.6619558999955188,1,+1,110,-9.83239157391518,-0.7782483411230121,-0.0009354517932624873,552685.0,23.83969701571396,0.8392632660260757,0.10440451453896271,556218.0,,,,,558.6440383835011,555.1110383835011,
30,54,29,f,1,0,22.0,22,2,low,9 + 5 - 6 + 1 - 1,8,8,9,7,568.3733472000022,570.3984928999998,571.9135039999965,576.9313447000022,577.5787801999977,577.5787857999967,579.0954048999993,580.1122264000005,q,8,0.6474354999954812,1,+1,111,3.9269120621526223,-0.3441286945138202,0.1549661152451578,565956.0,-32.66949065557189,-0.5705988031524143,-0.10008647496165768,569489.0,,,,,571.9150383835012,568.3820383835011,
31,54,29,f,1,0,23.0,23,4,high,5 + 8 - 6 + 7 + 4,18,17,18,19,581.6289497999969,583.6569548999978,585.1722512999986,590.1914432000049,590.7226937999949,590.7226992000069,592.2392349000002,593.2564591999981,w,18,0.5312505999900168,1,+10,121,-9.499809527586649,-0.5020259046392042,-0.11490636700226409,579214.0,13.642549307129293,0.4558597087077869,0.08078475034211019,582749.0,,,,,585.1750383835011,581.6400383835012,
32,54,29,f,1,0,24.0,24,3,high,8 + 6 - 7 + 1 - 4,4,4,3,5,594.7732565000042,596.7984503000043,598.3137744999985,603.3322853999998,603.9627202999982,603.9627312999946,605.4793355000002,606.4961484999949,q,4,0.6304348999983631,1,+10,131,3.3390592404510056,0.6606881539510399,0.03835652169151027,592356.0,-9.530246560471646,0.16069904971543458,-0.5479549202389236,595890.0,,,,,598.3160383835011,594.7820383835011,
33,54,29,f,1,0,25.0,25,4,low,6 + 9 + 7 - 3 - 5,14,12,14,13,608.0132878000004,610.0395100000023,611.5547273999982,616.5733433999994,617.2427841000026,617.2427898000024,618.7592914999987,619.7760448000045,w,14,0.6694407000031788,1,+1,132,5.181036666505598,-0.013284910630679825,0.13933663146949327,605597.0,18.278191238889008,-0.3168862879610481,-0.07925209360148866,609131.0,,,,,611.5570383835011,608.0230383835011,
34,54,29,f,1,0,26.0,26,3,high,6 + 8 + 7 + 1 - 9,13,15,13,14,621.2928945000021,623.3197282000037,624.8349782000005,629.8535436999955,630.3786913000076,630.3786968000059,631.895044799996,632.9129921999993,w,13,0.5251476000121329,1,+10,142,5.301710148006432,-0.27015409008020264,-0.06061964029520084,618877.0,2.5355942802796534,-0.2980064277959311,0.41702130982438046,622411.0,,,,,624.8370383835011,621.3030383835011,
35,54,29,f,1,0,27.0,27,4,low,4 + 8 + 9 - 3 + 7,25,25,26,24,634.4294910000026,636.4570952000067,637.9724009000056,642.9912574000045,643.9866968999995,643.9867021999962,645.5026747000084,646.5194447999966,q,25,0.9954394999949728,1,+1,143,-69.12819469931776,0.19487456876390752,-0.1556834419498636,632014.0,39.073435557976836,0.3649529955367923,0.09933823400929942,635548.0,,,,,637.9740383835011,634.4400383835011,
36,54,29,f,1,0,28.0,28,1,high,9 + 8 + 1 + 1 - 1,18,17,20,18,648.0363528000016,650.0631433999952,651.5784428000043,656.5964552000078,657.2026836000005,657.2026890999987,658.7197701999976,659.7371381999983,e,18,0.6062283999926876,1,+10,153,-4.976506478016006,-0.11775384661352817,-0.2782244404937595,645620.0,-11.81986443559493,-1.0200699076413589,-0.46816450211871485,649154.0,,,,,651.5800383835011,648.0460383835011,
37,54,29,f,1,0,29.0,29,1,high,5 + 8 - 1 + 1 + 1,14,14,12,16,661.2543138000037,663.2796783999947,664.7947911000083,669.8131236000045,670.4267575999984,670.4267629999958,671.9438650000084,672.9611506000074,q,14,0.6136339999939082,1,+10,163,-9.93472749799662,0.2581084270340055,0.36222765116563815,658836.0,-8.472851084104342,0.7750172891223563,-0.12981117726802927,662370.0,,,,,664.7960383835011,661.2620383835011,
38,54,29,f,1,0,30.0,30,2,low,5 + 1 + 7 - 6 + 1,8,8,7,6,674.4779217000032,676.505365200006,678.0206368000072,683.0391899999959,683.6746355000068,683.6746407000028,685.1916353999986,686.2088008999999,q,8,0.6354455000109738,1,+1,164,-25.319894782008948,-0.05946185973831142,0.2820871072985893,672062.0,-3.36230474564762,0.018828622791525085,-0.12716579354095714,675596.0,,,,,678.0220383835011,674.4880383835011,
39,54,29,f,1,0,31.0,31,3,low,7 - 5 + 9 + 1 - 4,8,9,7,8,687.7255371000065,689.752633600001,691.2686696000019,696.2867905000021,696.9066177000059,696.9066229000018,698.4231652000017,699.4408958999993,e,8,0.6198272000037832,1,+1,165,-45.114134463280045,0.4122107395835233,-0.14956101306925085,685309.0,42.106773342595886,-0.014272596094063061,0.11966337819518191,688844.0,,,,,691.2700383835012,687.7350383835011,
40,54,29,f,1,0,32.0,32,4,high,4 + 7 - 8 + 9 - 4,8,7,8,9,700.9573811000009,702.9809486000013,704.4964488999976,709.5151891999994,709.9786140000069,709.9786194000044,711.4951775000081,712.5131589999946,w,8,0.4634248000074876,1,+10,175,15.425587208495909,0.41989514224729074,-0.32137910118964363,698538.0,5.041772505919386,-0.0780990062248339,0.04423622193531607,702072.0,,,,,704.4980383835011,700.9640383835011,
41,54,29,f,1,0,33.0,33,4,low,7 + 6 + 8 - 4 + 5,22,22,23,21,714.0299799000059,716.0566506000032,717.5718334999983,722.5903195999999,723.2265787000069,723.2265872999997,724.7433147999982,725.7601755000069,q,22,0.6362591000070097,1,+1,176,-0.15724366307773785,0.09551699011630443,9.586925616256181e-05,711613.0,6.241672744731286,0.4429066284330716,-0.171089836566936,715147.0,,,,,717.5730383835012,714.0390383835012,
42,54,29,f,1,0,34.0,34,4,high,9 + 8 - 5 - 7 + 6,11,13,10,11,727.2773045000067,729.3031439000042,730.8180510999955,735.8382320999954,736.4266328999947,736.4266386999952,737.9433514999982,738.9612828999961,e,11,0.5884007999993628,1,+10,186,-3.1931643044233304,0.10211287577392447,-0.26134030007920783,724860.0,-24.11303044977172,0.2598347212721954,0.2592991290906088,728395.0,,,,,730.8210383835011,727.2860383835011,
43,54,29,f,1,0,35.0,35,4,low,3 + 9 - 5 + 6 + 8,21,23,21,22,740.4781897000066,742.5040555000014,744.0191196999949,749.0363657999987,749.7545571999945,749.754562800008,751.2713518999954,752.2881716999982,w,21,0.7181913999957033,1,+1,187,10.901991832024455,-0.6920703321132544,0.14963404975428363,738061.0,21.88605407264477,-0.6377768834158157,-0.012271541226864358,741594.0,,,,,744.0200383835012,740.4870383835012,
44,54,29,f,1,0,36.0,36,3,low,3 + 8 + 1 + 5 - 9,8,9,7,8,753.8051205999946,755.8321310000028,757.3478004000062,762.3660304999939,762.8265358000062,762.8265414000052,764.3433767999959,765.360385299995,e,8,0.4605053000123007,1,+1,188,19.272113173156434,0.24059738457896707,-0.05948719425322668,751389.0,16.6538359241523,-0.2448177345806446,-0.05035467263514448,754923.0,,,,,757.3490383835011,753.8150383835011,
45,54,29,f,1,0,37.0,37,1,low,6 + 9 + 1 + 1 - 1,16,15,14,16,766.8771570999961,768.9037828,770.4190077999956,775.4381925000052,775.9865503000037,775.9865565000073,777.5031596000044,778.5201381000079,e,16,0.5483577999984846,1,+1,189,-19.956170051257264,0.3664017714292962,0.011792887872325686,764460.0,28.58050483621661,-0.5597384533560925,-0.11475321278654294,767994.0,,,,,770.4200383835012,766.8860383835012,
46,54,29,f,1,1,38.0,0,4,low,3 + 9 - 4 + 7 + 6,21,19,20,21,831.2388789999968,833.2670373000001,834.7822105999949,839.8023249999969,840.370496100004,840.3705018000037,841.8875773000036,842.9045706000034,e,21,0.5681711000070209,1,+1,190,10.016310371329919,0.3161385478502545,0.2936227834916272,828823.0,-19.49670782972199,-0.10573313363361114,-0.39054115195586636,832359.0,,,,,834.7850383835012,831.2490383835011,
47,54,29,f,1,1,39.0,1,4,low,5 + 7 - 4 + 8 + 6,22,23,24,22,844.4216870999953,846.4435013000038,847.9582436000055,852.9770452999946,853.5145332999964,853.5145386999939,855.0311995999946,856.0480373000028,e,22,0.5374880000017583,1,+1,191,38.51278261984501,-0.3672721468596132,-0.39045781308192673,842000.0,16.246422557875228,-0.34726940832051545,0.19524990859097002,845533.0,,,,,847.9590383835011,844.4260383835011,
48,54,29,f,1,1,40.0,2,3,high,5 + 6 + 7 - 1 - 9,8,8,9,7,857.5648205000034,859.5919641000073,861.1073978000059,866.127948399997,867.6745893000043,867.6745962999994,869.1912119000044,870.2086914999963,e,7,1.546640900007333,0,+0,191,-44.091879667775316,0.05398538263959285,0.10251058743008601,855148.0,34.297422862670444,-0.6271015312247439,-0.4636262767025503,858685.0,,,,,861.1110383835011,857.5740383835011,
49,54,29,f,1,1,41.0,3,1,high,7 + 1 + 6 + 1 + 1,16,16,17,18,871.7257822999964,873.7476544999954,875.2619491000078,880.2798715999961,880.8104860000021,880.8104919000034,882.3271502999996,883.3442386999959,q,16,0.5306144000060158,1,+10,201,8.135870138463352,0.09273982357805721,0.36378401152825957,869304.0,25.47209241183602,0.12733619171217692,-0.06373877385739313,872836.0,,,,,875.2620383835011,871.7300383835011,
50,54,29,f,1,1,42.0,4,1,low,8 + 1 + 1 - 1 - 4,5,6,5,3,884.8610730000073,886.8865325000079,888.4017104999948,893.4206581000035,893.922756800006,893.9227623000043,895.4391864000063,896.4560140999965,w,5,0.5020987000025343,1,+1,202,-34.31747084941736,0.022053533869097475,0.1250245034487496,882443.0,17.883335231385168,-0.2631890295941206,0.05434783768045515,885976.0,,,,,888.4020383835011,884.8690383835011,
51,54,29,f,1,1,43.0,5,4,low,9 + 3 - 5 + 8 + 6,21,23,21,19,897.9723362999939,900.0003326000005,901.5155438000074,906.5337469000078,907.2584451000002,907.2584502999962,908.775144900006,909.7920073999994,w,21,0.7246981999924174,1,+1,203,7.671697069477493,0.6689266650564583,-0.1270051680044535,895557.0,5.3056460212643834,-0.4565739274187184,0.1811525279961108,899090.0,,,,,901.5160383835012,897.9830383835011,
52,54,29,f,1,1,44.0,6,1,low,9 + 7 + 1 + 1 + 1,19,20,19,18,911.308873899994,913.3347792999994,914.8497129000024,919.8691884,920.4824209000072,920.482426500006,921.9988879000013,923.0161844999966,w,19,0.6132325000071432,1,+1,204,68.20187569071071,0.15752846997425562,0.17481510346813067,908891.0,2.6433031928423434,-0.41524600171171766,0.03159637930047632,912425.0,,,,,914.8510383835011,911.3170383835011,
53,54,29,f,1,1,45.0,7,1,high,6 + 1 + 8 + 1 + 1,17,17,15,16,924.5333416000068,926.5605549000028,928.0754865000054,933.0934276000044,933.8423595000058,933.8423652000056,935.3589257999992,936.3764975999948,q,17,0.7489319000014802,1,+10,214,19.372519095074374,-0.10589842030037211,-0.11615129423974535,922116.0,0.3022576192844859,-0.019561043519823684,-0.17155378537215427,925650.0,,,,,928.0760383835011,924.5420383835011,
54,54,29,f,1,1,46.0,8,4,low,7 + 8 - 4 + 6 - 5,12,12,13,11,937.8940271000027,939.9212360999954,941.4362521000004,946.4561343999958,946.9704293999966,946.9704349999956,948.4870961999986,949.5040874999976,q,12,0.5142950000008568,1,+1,215,22.990188385158483,0.3036278771144554,0.47049742012936724,935477.0,-36.7209900394266,0.24841958139263864,-0.08190054013070691,939012.0,,,,,941.4380383835011,937.9030383835011,
55,54,29,f,1,1,47.0,9,2,high,4 + 7 + 1 + 1 - 8,5,4,5,7,951.0206357999996,953.045484800008,954.5605776000012,959.578742800004,960.1303601999972,960.1303669000044,961.6467993999976,962.6640509999996,w,5,0.5516173999931198,1,+10,225,-40.6747281714771,0.08099923172972012,0.2602955581938895,948602.0,-41.21952207283206,-0.6596009899668385,-0.38815746316926436,952135.0,,,,,954.5610383835011,951.0280383835011,
56,54,29,f,1,1,48.0,10,3,high,3 + 1 + 6 - 8 + 9,11,12,11,13,964.1808392999956,966.2085890000016,967.7238830999996,972.7424690000043,973.3143578000016,973.3143630999984,974.8307468999992,975.8481149,w,11,0.5718887999973958,1,+10,235,8.017863685226072,0.5458305821330822,0.17440805850914343,961765.0,4.706279029693281,-0.29664375311814783,-0.685252141294491,965298.0,,,,,967.7240383835011,964.1910383835011,
57,54,29,f,1,1,49.0,11,4,low,3 + 8 - 5 + 9 - 7,8,7,6,8,977.365326900006,979.393282200006,980.9086778000056,985.9271273000048,987.330405700006,987.3304111000034,988.8470898999948,989.8637620999943,e,8,1.4032784000009997,1,+1,236,6.193779676176703,0.18179641156079995,0.018358163973585473,974950.0,10.803653389181727,0.20359466926681424,0.06110229770684894,978483.0,,,,,980.9090383835011,977.3760383835012,
58,54,29,f,1,1,50.0,12,3,high,3 + 1 + 8 - 5 + 6,13,15,13,14,991.3804460999964,993.4059823999996,994.9218700000056,999.9419514000036,1000.3943501000032,1000.3943555000004,1001.9114820999966,1002.9287359000008,w,13,0.4523986999993212,1,+10,246,-13.448903899667243,-0.0518264519360252,-0.1237834315029045,988962.0,26.867142670626777,0.5233491863687538,-0.1757865274399406,992497.0,,,,,994.9230383835011,991.3880383835011,
59,54,29,f,1,1,51.0,13,2,low,2 + 9 - 4 + 1 + 1,9,11,8,9,1004.4452310000052,1006.4720434000046,1007.9872480000048,1013.0052775000077,1013.442302800002,1013.4423076999956,1014.9588122999994,1015.9758451999952,e,9,0.437025299994275,1,+1,247,12.21604654581055,-0.08314058717022865,-0.11387842366566003,1002028.0,11.35177414767113,0.15216291183664943,-0.2706959238164033,1005561.0,,,,,1007.9870383835012,1004.4540383835011,
60,54,29,f,1,1,52.0,14,4,low,2 + 9 - 4 + 8 + 7,22,21,22,23,1017.492506900002,1019.519894600002,1021.0346791000048,1026.0529667999945,1026.4983480999945,1026.4983537999942,1028.014624500007,1029.0315537999995,w,22,0.4453813000000082,1,+1,248,-42.41138139078656,-0.2899568998676618,-0.309943759296194,1015076.0,1.8800564961619894,-0.2739051622048203,-0.09961218009139294,1018609.0,,,,,1021.0350383835012,1017.5020383835011,
61,54,29,f,1,1,53.0,15,3,low,9 - 1 + 5 - 6 + 8,15,14,15,17,1030.548376000006,1032.575871699999,1034.0912312,1039.1092860000065,1039.5783441999956,1039.5783495000069,1041.0949222000054,1042.111841699996,w,15,0.4690581999893766,1,+1,249,-1.7087641448623954,-0.0811847699341377,-0.12167611554703361,1028131.0,-20.23617803542414,-0.19536738949604926,0.46032514631145194,1031665.0,,,,,1034.091038383501,1030.557038383501,
62,54,29,f,1,1,54.0,16,3,low,6 - 1 + 7 - 8 + 9,13,11,13,12,1043.6287064000062,1045.6519862999994,1047.1672752000013,1052.186016199994,1052.7463416999965,1052.7463467000052,1054.2627623000008,1055.2796316000022,w,13,0.5603255000023637,1,+1,250,-11.291593515246861,0.2495759481271831,-0.045396691808833545,1041208.0,0.3994251100484014,-0.11080656147490053,-0.09783967318036701,1044742.0,,,,,1047.168038383501,1043.634038383501,
63,54,29,f,1,1,55.0,17,1,high,2 + 9 + 1 + 1 + 1,14,12,13,14,1056.7961269999942,1058.8184909999982,1060.3343655000062,1065.3520275000046,1066.082317299995,1066.082322999995,1067.5988723000046,1068.6163076999946,e,14,0.7302897999907145,1,+10,260,22.43848828196738,-0.34145683938944504,0.24494241931904392,1054374.0,-37.108460401442684,-0.27397124336088385,-0.18817428322632646,1057908.0,,,,,1060.334038383501,1056.800038383501,
64,54,29,f,1,1,56.0,18,4,low,5 + 8 - 4 - 6 + 9,12,14,13,12,1070.1331161999988,1072.1594615000067,1073.674396100003,1078.692530500004,1081.1462516000029,1081.146257100001,1082.663852800004,1083.6814009999944,e,12,2.453721099998802,1,+1,261,-0.7213972225206291,0.2087394832508238,-0.040792650485133475,1067715.0,-6.034162218211193,-0.2253976535037534,-0.1287292597632237,1071248.0,,,,,1073.674038383501,1070.141038383501,
65,54,29,f,1,1,57.0,19,4,high,4 + 7 + 8 - 3 + 9,25,26,25,24,1085.1977740000002,1087.2237696000084,1088.7390132,1093.7574167999992,1094.2662268999993,1094.2662319999945,1095.782985400001,1096.800242600002,w,25,0.5088101000001188,1,+10,271,40.10770394105888,-0.28525438313990614,0.08312846211330571,1082779.0,7.552291928651461,0.05213455827262692,0.4549345601909578,1086313.0,,,,,1088.739038383501,1085.205038383501,
66,54,29,f,1,1,58.0,20,2,high,4 + 9 - 7 + 1 - 1,6,8,6,5,1098.317062999995,1100.3429162999964,1101.8579794999969,1106.8766228000022,1108.1862086000035,1108.1862135999982,1109.702688999998,1110.7198268000066,w,6,1.309585800001514,1,+10,281,27.98906110139667,-0.29957924767518573,0.45320330188549596,1095898.0,-1.6628150339448737,0.09414646422087358,-0.035343168996443186,1099432.0,,,,,1101.858038383501,1098.324038383501,
67,54,29,f,1,1,59.0,21,1,low,5 + 1 + 1 + 9 + 1,17,17,16,19,1112.2366168000008,1114.262485900006,1115.7777833,1120.795377100003,1121.698199899998,1121.698205000008,1123.2150063000008,1124.232349400001,q,17,0.9028227999951924,1,+1,282,41.64693625328364,-0.366270366529605,0.04144769185595365,1109818.0,11.026838435660775,0.03193658417793843,0.12362979134354113,1113351.0,,,,,1115.7770383835011,1112.244038383501,
68,54,29,f,1,1,60.0,22,4,high,4 + 7 - 8 + 9 - 3,9,8,9,11,1125.7492150000037,1127.777542099997,1129.292849599995,1134.3119410000072,1134.9622578999988,1134.962263399997,1136.4790904999973,1137.4964020000043,w,9,0.6503168999915943,1,+10,292,-9.075634428036265,-0.12818280902389034,0.19579169867212975,1123333.0,-36.95876041694396,0.08534168014698951,-0.04140390370280578,1126867.0,,,,,1129.293038383501,1125.759038383501,
69,54,29,f,1,1,61.0,23,1,low,8 + 1 + 1 + 1 - 3,8,9,6,8,1139.0131422999984,1141.0413489000057,1142.5566158,1147.5747543000034,1148.1382085000075,1148.1382141000067,1149.6545445999946,1150.6716776999965,e,8,0.5634542000043439,1,+1,293,29.115982482526494,-0.03997992862936561,0.1140761988772736,1136597.0,-14.633173326478971,-0.4996892141053584,-0.18653795085635094,1140130.0,,,,,1142.5560383835011,1139.023038383501,
70,54,29,f,1,1,62.0,24,3,low,7 - 1 + 8 - 6 + 4,12,12,13,11,1152.1885096000042,1154.2142672000043,1155.7293108000013,1160.7480317000009,1163.1461551999964,1163.1461605000077,1164.6629618000006,1165.6803088000015,w,13,2.398123499995563,0,+0,293,-38.2911800662528,-0.11806426478613918,-0.28288230024286554,1149770.0,12.595015598903416,-0.4210644723584016,-0.022931752431869068,1153304.0,,,,,1155.730038383501,1152.196038383501,
71,54,29,f,1,1,63.0,25,4,low,4 + 9 - 7 + 8 + 5,19,20,19,21,1167.1980578000075,1169.2264330000037,1170.741664000001,1175.7603014000051,1176.3221612000052,1176.322166500002,1177.839106600004,1178.856648400004,w,19,0.561859800000093,1,+1,294,-2.891413964390516,0.5250577366106262,-0.13604792431732182,1164782.0,-4.177660362175697,0.12819911820470864,-0.008621145811130493,1168315.0,,,,,1170.741038383501,1167.208038383501,
72,54,29,f,1,1,64.0,26,4,high,3 + 9 - 5 + 8 - 7,8,7,8,9,1180.3736897000051,1182.4002179999952,1183.9151310000016,1188.933450800003,1189.3461180000013,1189.3461229999955,1190.862447499996,1191.8797240999993,w,8,0.4126671999983955,1,+10,304,-6.512829728798348,0.8679653206643008,-0.3009578257420076,1177955.0,-22.890202252532273,0.026773585073470052,0.0699469804947781,1181489.0,,,,,1183.915038383501,1180.381038383501,
73,54,29,f,1,1,65.0,27,4,low,6 + 9 - 7 + 8 - 5,11,12,13,11,1193.3964922000014,1195.4254082999978,1196.940621899994,1201.9602688000014,1202.4741286000062,1202.4741346999945,1203.9908646999977,1205.007788200004,e,11,0.513859800004866,1,+1,305,16.290741840996944,-0.4549336185795192,0.4055266850639341,1190981.0,26.987835024922802,-0.1280505843053561,-0.09834787065237593,1194515.0,,,,,1196.941038383501,1193.407038383501,
74,54,29,f,1,1,66.0,28,2,low,3 + 9 + 1 - 5 + 1,9,7,8,9,1206.5246555000049,1208.5521718999953,1210.0668990999984,1215.084946300005,1215.5700973000055,1215.5701029000047,1217.0872829,1218.104536800005,e,9,0.4851510000007693,1,+1,306,-25.869903018927957,0.15271252507283384,-0.04253480655846564,1204107.0,-13.240046966240929,-0.04775156250179213,-0.32513820054352793,1207640.0,,,,,1210.066038383501,1206.533038383501,
75,54,29,f,1,1,67.0,29,2,low,3 + 9 - 1 - 5 + 1,7,6,5,7,1219.6208697999973,1221.644752799999,1223.1599172999995,1228.1786807000026,1228.8021372000076,1228.8021432999958,1230.3191976999951,1231.3358792000072,e,7,0.623456500004977,1,+1,307,2.205226775138435,-0.07734713835069051,0.6804124056371981,1217200.0,6.598316281918244,-0.0087889929453282,0.15110852908027583,1220733.0,,,,,1223.159038383501,1219.626038383501,
76,54,29,f,1,1,68.0,30,3,low,7 - 6 + 8 + 1 + 7,17,15,17,16,1232.852706799997,1234.880612599998,1236.395890800006,1241.4144965000014,1241.9861980999997,1241.9862033999962,1243.5026552000054,1244.519574100006,w,17,0.5717015999980504,1,+1,308,-46.45333977795849,-0.11833043383414932,0.22476172273077433,1230436.0,-8.44160868441422,-0.3318048705217609,0.22539309131603513,1233970.0,,,,,1236.396038383501,1232.862038383501,
77,54,29,f,1,1,69.0,31,2,low,6 + 8 + 1 + 1 - 7,9,9,8,11,1246.0364549000078,1248.0641944999952,1249.5794049999968,1254.597858299996,1255.4100171000027,1255.4100219999964,1256.926678200005,1257.9444465999986,q,9,0.8121588000067277,1,+1,309,-49.44578693967499,0.3482385804741335,0.12165034489278082,1243619.0,28.421880726895644,-0.6972237163706936,-0.40759917869183804,1247153.0,,,,,1249.579038383501,1246.045038383501,
78,54,29,f,1,1,70.0,32,1,low,5 + 9 - 1 + 1 + 1,15,13,17,15,1259.4612316999992,1261.4872455000004,1263.0021506000048,1268.0203292000078,1268.586026799996,1268.5860316000037,1270.1025993000076,1271.1197837000072,q,13,0.5656975999881979,0,+0,309,-42.14011437060328,-0.013773898267696705,0.6923180875349022,1257042.0,-0.45363528700123723,-0.10764567608290143,-0.48400555048092286,1260576.0,,,,,1263.002038383501,1259.468038383501,
79,54,29,f,1,1,71.0,33,2,high,9 + 6 + 1 + 7 + 1,24,24,25,23,1272.6365233999968,1274.6640574000048,1276.1792939000006,1281.1972122000006,1281.842063899996,1281.842069499995,1283.3588225999993,1284.3761730999977,q,24,0.6448516999953426,1,+10,319,-5.687683294656703,-0.13440845938855794,0.12314991083137938,1270219.0,4.509567244278246,-0.7793849051774662,-0.05577404840618261,1273752.0,,,,,1276.178038383501,1272.645038383501,
80,54,29,f,1,1,72.0,34,2,low,7 + 1 + 9 - 1 - 8,8,6,8,7,1285.8931501000045,1287.919389600007,1289.4343446999992,1294.453309500008,1294.906033799998,1294.906038999994,1296.423438400001,1297.4410274999973,w,8,0.4527242999902228,1,+1,320,-6.957239334969804,0.12648314119578252,0.33652108942064496,1283474.0,-16.50026130998613,0.19342364324655303,-0.5514150352998248,1287008.0,,,,,1289.434038383501,1285.900038383501,
81,54,29,f,1,1,73.0,35,2,high,6 + 1 + 1 + 7 - 9,6,8,6,4,1298.9574734000053,1300.985264700008,1302.500423999998,1307.5191487999982,1308.1220168,1308.1220227000013,1309.6384509000054,1310.655614400006,w,6,0.602868000001763,1,+10,330,13.182377852315078,0.42137081447093605,0.6092572618166576,1296540.0,-16.10258695596548,-0.3253615976060904,-0.4890883802279977,1300074.0,,,,,1302.500038383501,1298.966038383501,
82,54,29,f,1,1,74.0,36,1,high,3 + 1 + 1 + 8 - 1,12,12,14,13,1312.1727767999982,1314.2012490000052,1315.7164332999964,1320.734445800001,1321.377976600008,1321.377982200007,1322.8945045,1323.911762799995,q,12,0.6435308000072837,1,+10,340,-57.83567363212714,-0.1849174559062292,0.2455237330657596,1309756.0,17.45831297821392,-0.03393123509682683,0.09188234240063098,1313289.0,,,,,1315.715038383501,1312.182038383501,
83,54,29,f,1,1,75.0,37,3,low,7 + 5 + 9 + 1 - 6,16,15,16,14,1325.4285530000052,1327.4548448999994,1328.9704974000051,1333.9890957000025,1334.4740696999943,1334.4740751000063,1335.9906740000006,1337.0076556999993,w,16,0.4849739999917801,1,+1,341,-6.051037107424525,-0.45580167887201783,0.41217845268355324,1323010.0,-8.985907527381013,-0.2237249331078246,0.18872973265402493,1326544.0,,,,,1328.970038383501,1325.436038383501,
84,54,29,f,1,2,76.0,0,2,high,3 + 8 + 1 - 5 + 1,8,9,8,6,1408.1982597000024,1410.225959400006,1411.7411663999956,1416.7607306999998,1417.2818561000022,1417.2818616000004,1418.7983469000028,1419.8157850999996,w,8,0.5211254000023473,1,+10,351,-16.502753044973176,0.2222346610947703,0.20193751479279998,1405781.0,15.578011565796315,0.09542155147428488,-0.5091260481050863,1409315.0,,,,,1411.741038383501,1408.207038383501,
85,54,29,f,1,2,77.0,1,4,high,5 + 6 - 4 + 7 + 9,23,25,23,24,1421.3325158999942,1423.3591947999955,1424.874161300002,1429.8923215999966,1430.313830900006,1430.313836500005,1431.8310563999985,1432.8478041000053,w,23,0.4215093000093475,1,+10,361,19.447263193653512,-0.405854988161205,-0.24006357199930406,1418914.0,5.461486862263754,0.32356661419051225,-0.03455057100160008,1422447.0,,,,,1424.873038383501,1421.340038383501,
86,54,29,f,1,2,78.0,2,3,low,4 + 7 + 1 + 9 - 5,16,16,18,17,1434.364220699994,1436.3884532000084,1437.9043191999954,1442.9225570999988,1443.4978549999942,1443.497860500007,1445.0143248999957,1446.0315709999995,q,16,0.5752978999953484,1,+1,362,-5.352800058757974,0.4019978799814323,0.09072787293923712,1431943.0,-10.170890249213492,0.20452551095584237,-0.16688656940038582,1435477.0,,,,,1437.903038383501,1434.369038383501,
87,54,29,f,1,2,79.0,3,4,high,9 + 4 - 6 + 8 + 7,22,21,24,22,1447.548349500008,1449.5748211000027,1451.0901539000042,1456.1085760999997,1456.6338861999975,1456.633891400008,1458.1502630000032,1459.1675051000057,e,22,0.5253100999980234,1,+10,372,-37.9981109386503,0.47806118013268284,0.04265043067219665,1445130.0,-8.29633973238202,-0.03849542565181796,-0.03995761637985806,1448663.0,,,,,1451.089038383501,1447.5560383835011,
88,54,29,f,1,2,80.0,4,1,low,7 - 1 + 9 + 1 - 1,15,14,15,13,1460.684105799999,1462.7111391000071,1464.226178500001,1469.2446569000022,1469.785824999999,1469.785830599998,1471.3025224000012,1472.3194024999975,w,15,0.5411680999968667,1,+1,373,-7.430382375460626,-0.006510680583937223,-0.12096085622937203,1458266.0,-4.770650668872555,-0.38561678172571057,0.012736485240351314,1461799.0,,,,,1464.225038383501,1460.692038383501,
89,54,29,f,1,2,81.0,5,4,high,2 + 5 - 3 + 9 + 8,21,21,22,19,1473.8362697999985,1475.863207500006,1477.3784272000048,1482.3973190999968,1483.1458399999974,1483.1458454999956,1484.6622924999974,1485.6795762999973,q,21,0.7485209000005852,1,+10,383,-15.840439016669045,-0.4971269946172274,0.1953554344364279,1471417.0,16.846274111759897,0.512628005159967,-0.0749445889760505,1474952.0,,,,,1477.378038383501,1473.843038383501,
90,54,29,f,1,2,82.0,6,1,high,2 + 1 + 1 + 9 - 1,12,12,11,13,1487.196419800006,1489.2211656,1490.7361515999946,1495.7541000000056,1496.313857400004,1496.3138628000015,1497.8301494000043,1498.847192999994,q,12,0.5597573999984888,1,+10,393,5.206529128014715,-0.18303556931354326,0.009325542550752797,1484775.0,7.819071613425493,-0.06398745253002325,-0.21678718459491586,1488309.0,,,,,1490.735038383501,1487.201038383501,
91,54,29,f,1,2,83.0,7,2,low,4 + 9 + 1 - 7 - 1,6,6,5,8,1500.3636913999944,1502.392340799997,1503.9076092000032,1508.9260851,1509.417864899995,1509.4178705999948,1510.9343260000023,1511.9512494999944,q,6,0.491779799995129,1,+1,394,9.03267308016902,-0.009414529938151617,-0.007869815025556282,1497947.0,2.716189947994433,-0.3364977075320219,0.014330756299048453,1501480.0,,,,,1503.906038383501,1500.373038383501,
92,54,29,f,1,2,84.0,8,1,low,8 + 1 + 4 + 1 + 1,15,15,16,14,1513.468725300001,1515.4962435000052,1517.0114849999954,1522.0295337999996,1522.8338303000055,1522.8338359000045,1524.3503092000028,1525.3669510000036,q,15,0.8042965000058757,1,+1,395,-2.0246176222343646,-0.5346050860422746,-0.20813982850344503,1511051.0,-21.126693472464602,0.805875427043623,-0.17047302026515387,1514584.0,,,,,1517.010038383501,1513.477038383501,
93,54,29,f,1,2,85.0,9,3,high,6 + 7 + 8 + 1 - 9,13,13,15,14,1526.883699099999,1528.9102296000056,1530.425510800007,1535.445709199994,1535.977801400004,1535.9778067000009,1537.4944930000056,1538.5116908000057,q,13,0.5320922000100836,1,+10,405,-21.248335113546897,0.06170170269893838,0.0138015282109194,1524464.0,-27.460336929679258,0.30817714212583525,-0.2353431506578354,1528000.0,,,,,1530.426038383501,1526.890038383501,
94,54,29,f,1,2,86.0,10,4,high,2 + 9 - 3 + 5 + 8,21,22,21,23,1540.0285184999957,1542.0525549000013,1543.5676926000017,1548.5858628999997,1549.297765700001,1549.2977711999993,1550.8143485000037,1551.831996499997,w,21,0.7119028000015533,1,+10,415,8.54995101991396,-0.6421118782046835,0.029189565774548232,1537607.0,-10.537091011512677,0.20931238367620342,-0.08175399054268784,1541140.0,,,,,1543.566038383501,1540.033038383501,
95,54,29,f,1,2,87.0,11,4,high,8 + 4 + 7 - 5 - 6,8,8,9,6,1553.3488259000003,1555.3739779000025,1556.8897829000052,1561.9086118999985,1562.3698070999965,1562.369812799996,1563.886269900002,1564.9032401000004,q,8,0.4611951999977464,1,+10,425,19.417476479170848,0.41438835585151645,0.055926773418068176,1550928.0,61.389842189651965,0.23860929280734444,-0.0648676074355139,1554463.0,,,,,1556.889038383501,1553.3540383835011,
96,54,29,f,1,2,88.0,12,3,low,3 + 8 - 7 - 1 + 9,12,13,12,14,1566.419687600006,1568.4474382000044,1569.9624693000078,1574.9810698000074,1575.4577406000026,1575.457746500004,1576.974761000005,1577.991798600007,w,12,0.4766707999951904,1,+1,426,29.35598316079043,-0.2008687312381645,0.11062982452014047,1564001.0,-40.69737419397279,0.10000102017614765,0.0317148587486078,1567535.0,,,,,1569.961038383501,1566.427038383501,
97,54,29,f,1,2,89.0,13,1,low,2 + 1 + 9 + 1 - 1,12,11,12,13,1579.5086364000017,1581.5359210000024,1583.0511559000006,1588.069184299995,1588.6096655,1588.6096708999976,1590.126248600005,1591.1432258999994,w,12,0.5404812000051606,1,+1,427,33.038988199797444,-0.0017345984766099498,0.003545729031466216,1577090.0,-2.527067195788021,-0.049603751752286485,0.15208540357111167,1580623.0,,,,,1583.049038383501,1579.516038383501,
98,54,29,f,1,2,90.0,14,2,low,4 + 9 - 7 + 1 - 1,6,8,6,5,1592.6597337999992,1594.6860279999964,1596.2016957000014,1601.2221471999949,1601.8657441999967,1601.8657497999957,1603.382303799997,1604.399165900002,w,6,0.6435970000020461,1,+1,428,5.884657584454204,0.3285001117205999,-0.036544154229448456,1590240.0,23.512703653170217,0.17941614554335183,0.08446019954476647,1593776.0,,,,,1596.202038383501,1592.666038383501,
99,54,29,f,1,2,91.0,15,4,high,5 + 9 - 4 + 7 + 6,23,23,25,24,1605.9159799000045,1607.9428998000076,1609.4579793000012,1614.4762920000069,1615.025683800006,1615.025689000002,1616.542100599996,1617.559341,q,23,0.5493917999992846,1,+10,438,-1.6971858112926874,0.39214273600594485,0.034030758423308605,1603497.0,47.96941086588808,0.535701607111513,-0.2269109794216404,1607031.0,,,,,1609.457038383501,1605.923038383501,
100,54,29,f,1,2,92.0,16,3,high,6 - 1 + 7 - 8 + 9,13,12,11,13,1619.0763355999952,1621.1000978999946,1622.6152429000067,1627.6333458000008,1629.3457591000042,1629.345764400001,1630.8621325999993,1631.8792807999998,e,13,1.7124133000033908,1,+10,448,2.79790141690796,-0.06338663171073522,0.4284266768898646,1616654.0,1.0917481068386792,0.20529150262645768,-0.5872911931548415,1620188.0,,,,,1622.614038383501,1619.080038383501,
101,54,29,f,1,2,93.0,17,1,high,3 + 1 + 1 + 9 - 1,13,12,14,13,1633.3963476000065,1635.417876499996,1636.9328019999955,1641.9509053000074,1642.593657400008,1642.5936662000022,1644.1101506999985,1645.1275670000032,e,13,0.6427521000005072,1,+10,458,-28.481426236914125,-0.1344082060546259,0.43872693244107763,1630972.0,-12.247286528635971,-0.43354394252855677,-0.5661295435112521,1634505.0,,,,,1636.9310383835011,1633.398038383501,
102,54,29,f,1,2,94.0,18,4,high,6 + 9 + 7 - 3 - 5,14,14,15,13,1646.6438902999944,1648.6700310000017,1650.184892499994,1655.2034358999954,1655.697636500001,1655.6976417999977,1657.2138242000074,1658.230680000008,q,14,0.4942006000055698,1,+10,468,3.830048535061195,0.2627645105814844,-0.045293278390118985,1644224.0,-13.591206473379875,-0.15390680477981888,0.173655217466949,1647757.0,,,,,1650.183038383501,1646.650038383501,
103,54,29,f,1,2,95.0,19,1,high,7 + 1 + 4 + 1 - 1,12,12,14,13,1659.747558700008,1661.7720178000018,1663.2869942999969,1668.3068144999995,1668.7856024000066,1668.7856075000018,1670.3020094999956,1671.319911300001,q,12,0.4787879000068642,1,+10,478,-41.39538753680629,-0.32798025380816487,-0.24648194603538487,1657326.0,-31.573443859156086,0.02799670850387903,-0.10532367790932495,1660861.0,,,,,1663.287038383501,1659.752038383501,
104,54,29,f,1,2,96.0,20,4,low,5 + 7 - 4 - 6 + 9,11,12,13,11,1672.8378513000062,1674.8645307999975,1676.3801308999973,1681.3989075999998,1682.0256823999953,1682.025687900008,1683.5422875000077,1684.559217899994,e,11,0.6267747999954736,1,+1,479,13.626839189288521,0.3867205749407834,-0.37260667138599857,1670419.0,16.12127550492476,-0.4181863750436925,0.0839184185658528,1673953.0,,,,,1676.379038383501,1672.845038383501,
105,54,29,f,1,2,97.0,21,1,low,5 + 6 + 1 + 1 + 1,14,14,16,15,1686.0761119999952,1688.1011867000052,1689.6165391999966,1694.6346095000044,1695.2496178,1695.2496231999976,1696.7660274000082,1697.7829378000024,q,14,0.6150082999956794,1,+1,480,-71.1277853705867,-0.1484454324897735,-0.045723193252451555,1683655.0,12.474378658234201,0.13139813721701898,-0.10964885901418775,1687189.0,,,,,1689.615038383501,1686.081038383501,
106,54,29,f,1,2,98.0,22,3,high,2 + 1 + 9 - 5 + 6,13,14,13,11,1699.2996493999965,1701.327063100005,1702.8423707000038,1707.860248900004,1708.345623900008,1708.345629400006,1709.8619557000056,1710.878867499996,w,13,0.4853750000038417,1,+10,490,-2.1076952468791372,-0.3683230912328508,-0.2797993665319636,1696881.0,21.241841684822305,-0.3910187611576461,0.017905691999750672,1700414.0,,,,,1702.840038383501,1699.307038383501,
107,54,29,f,1,2,99.0,23,1,low,2 + 1 + 9 + 1 - 1,12,13,12,11,1712.3956521000073,1714.4211862000084,1715.9363449999946,1720.955542399999,1721.4415767000028,1721.4415827000048,1722.9579646000057,1723.974559599999,w,12,0.4860343000036664,1,+1,491,-2.407015915426416,0.5052370420030057,0.1480078848692168,1709975.0,1.088011613821307,-0.17734882022003085,-0.12480156488221938,1713509.0,,,,,1715.935038383501,1712.401038383501,
108,54,29,f,1,2,100.0,24,1,low,7 - 1 + 8 + 1 - 1,14,13,14,12,1725.491472499998,1727.5160766000045,1729.0320678999997,1734.050565700003,1734.6496120000083,1734.649617899995,1736.165953699994,1737.182406100008,w,14,0.5990463000052841,1,+1,492,-14.531287792254624,-0.2944354612367013,0.010190250896891406,1723070.0,-19.40904109718016,-0.5481333905287142,0.1013754683475585,1726604.0,,,,,1729.030038383501,1725.496038383501,
109,54,29,f,1,2,101.0,25,1,low,7 + 1 + 4 + 1 - 1,12,13,12,11,1738.6991625000082,1740.725187899996,1742.2409139000083,1747.2598159000045,1747.8015676000068,1747.8015730000045,1749.3180797999958,1750.3350490000012,w,12,0.5417517000023508,1,+1,493,23.76318391289738,0.4219857779823277,-0.1605595660186694,1736279.0,8.709632335549387,-0.6340451521812787,-0.1315755391310942,1739813.0,,,,,1742.239038383501,1738.705038383501,
110,54,29,f,1,2,102.0,26,1,low,3 + 1 + 9 + 1 - 1,13,13,12,14,1751.852232300007,1753.883228599996,1755.398543000003,1760.4175325999968,1761.329597799995,1761.3296031000064,1762.8459479000012,1763.8629330999977,q,13,0.9120651999983238,1,+1,494,-8.57523559187624,-0.04110496166057853,0.3832166466776399,1749437.0,1.8268707303086966,0.22091268489036242,-0.003464735273639885,1752970.0,,,,,1755.396038383501,1751.863038383501,
111,54,29,f,1,2,103.0,27,4,low,8 + 7 - 4 + 5 + 9,25,24,26,25,1765.3797810999968,1767.4066568999988,1768.9215704999951,1773.9402836999943,1774.5055844000017,1774.505590000001,1776.0222637999975,1777.0389080000025,e,25,0.5653007000073558,1,+1,495,13.41443474457365,0.07574851041928987,0.38883218509251716,1762960.0,-3.9093034191218337,-0.0020645762384381428,0.009038073466118401,1766494.0,,,,,1768.920038383501,1765.386038383501,
112,54,29,f,1,2,104.0,28,4,high,4 + 7 + 8 - 3 + 9,25,24,26,25,1778.555707899999,1780.5826101999992,1782.098171000005,1787.1182426000014,1788.009525600006,1788.009530700001,1789.5260344999988,1790.5440282000054,e,25,0.8912830000044778,1,+10,505,-7.178940745295041,-0.24831496525162144,-0.10911457946842873,1776136.0,-11.604304381569335,-0.4830464909957941,0.09413412870185756,1779672.0,,,,,1782.098038383501,1778.562038383501,
113,54,29,f,1,2,105.0,29,4,low,7 + 6 - 9 + 8 - 3,9,7,8,9,1792.0607140000066,1794.0846045000071,1795.5999398999993,1800.6204720999958,1801.2254742000075,1801.2254796000052,1802.741985700006,1803.759032300004,e,9,0.6050021000119159,1,+1,506,12.49930033178442,0.519379001212597,0.22638462181943098,1789638.0,18.863953030978045,-0.721687471664282,0.1540870234029108,1793174.0,,,,,1795.600038383501,1792.064038383501,
114,54,29,f,1,2,106.0,30,3,high,2 + 1 + 9 - 4 + 6,14,14,16,15,1805.2760755000052,1807.3019282000023,1808.816693300003,1813.8366582000017,1814.369487899996,1814.369493399994,1815.8859248999945,1816.903126499994,q,14,0.5328296999941813,1,+10,516,1.4204377267047281,-0.12588955989346573,-0.1891396038610389,1802855.0,9.65702814770018,-0.37128296806220096,-0.1223424016789223,1806389.0,,,,,1808.815038383501,1805.281038383501,
115,54,29,f,1,2,107.0,31,2,low,3 + 1 + 8 - 5 - 1,6,5,6,7,1818.420008900008,1820.445065299995,1821.9602700999967,1826.9798635000045,1827.5055390000048,1827.5055445000037,1829.0214028000048,1830.0386541000044,w,6,0.5256755000009434,1,+1,517,-5.516057515792375,0.5425665094552556,-0.26640164741309125,1815998.0,21.21761479627547,-0.360278921777744,0.14829939416853044,1819533.0,,,,,1821.959038383501,1818.424038383501,
116,54,29,f,1,2,108.0,32,1,high,8 + 1 + 5 + 1 + 1,16,17,15,16,1831.5552436,1833.5810367999948,1835.096286,1840.115536199999,1840.6977547999995,1840.6977604999995,1842.2142376999984,1843.2316589999973,e,16,0.5822186000004876,1,+10,527,26.55122987061867,0.25869072702869467,-0.5145650808257383,1829134.0,5.909339247632975,-0.07462487713983013,0.5188287465836945,1832669.0,,,,,1835.095038383501,1831.560038383501,
117,54,29,f,1,2,109.0,33,1,high,3 + 1 + 9 + 1 + 1,15,17,15,14,1844.748721099997,1846.7731077000064,1848.2881800000032,1853.305423400001,1853.8896185000049,1853.889624400006,1855.406016299996,1856.4233442999976,w,15,0.5841951000038534,1,+10,537,4.0268731696170965,-0.27401777072798783,-0.47521491088161794,1842327.0,-12.738662323940154,0.03636833672908324,0.16942062995506868,1845860.0,,,,,1848.286038383501,1844.753038383501,
118,54,29,f,1,2,110.0,34,2,high,6 + 1 + 8 + 7 - 1,21,19,21,23,1857.9400617000065,1859.967306100007,1861.4825226999965,1866.501035299996,1867.001479300001,1867.0014851000012,1868.5181254000051,1869.5357331999985,w,21,0.5004440000047907,1,+10,547,22.108713196251205,0.22122386968252172,-0.03159526883815822,1855520.0,-0.6892068918150134,-0.3150797361050808,0.1432017178135423,1859054.0,,,,,1861.480038383501,1857.946038383501,
119,54,29,f,1,2,111.0,35,2,high,9 + 1 + 6 + 7 + 1,24,23,25,24,1871.052416100007,1873.0770243000009,1874.5919492999965,1879.6097493999987,1880.3534083999984,1880.353414199999,1881.8702261,1882.887439700004,e,24,0.7436589999997523,1,+10,557,7.538125753760905,-0.037795123463151725,0.16045960197898612,1868630.0,12.095117234076536,-0.10991668940241706,0.16085608982422395,1872163.0,,,,,1874.589038383501,1871.0560383835011,
120,54,29,f,1,2,112.0,36,3,low,6 - 1 + 7 - 8 + 9,13,11,13,12,1884.404326200005,1886.432788200007,1887.948017700008,1892.966444000005,1893.4413798000023,1893.4413852,1894.9580931999956,1895.975118200004,w,13,0.4749357999971835,1,+1,558,12.591139948716895,-0.06864216476931606,-0.20005299363466555,1881986.0,10.8696493354982,-0.18166709982863338,-0.37368211486287706,1885520.0,,,,,1887.946038383501,1884.412038383501,
121,54,29,f,1,2,113.0,37,2,high,8 + 1 + 7 + 1 - 4,13,12,14,13,1897.4916333,1899.5194061000077,1901.034441099997,1906.052491399998,1907.0094257000017,1907.0094314000016,1908.5259384999956,1909.5432454999973,e,13,0.9569343000039224,1,+10,568,-30.414660385698113,-0.7645234531605798,0.22840467960991306,1895072.0,-21.107924807110784,-0.3195626842532313,-0.05350446935133801,1898606.0,,,,,1901.032038383501,1897.498038383501,
122,54,29,f,1,3,114.0,0,4,high,3 + 8 - 7 + 9 - 5,8,8,9,7,1939.5975482000067,1941.6236059000075,1943.139560800002,1948.1578754000077,1948.6653299000027,1948.6653349999976,1950.181730199998,1951.199011500008,q,8,0.5074544999952195,1,+10,578,7.77989005104666,0.4155428780678654,0.002157005370593268,1937177.0,32.00247423058322,0.3710826775643912,0.1765601089146811,1940711.0,,,,,1943.137038383501,1939.603038383501,
123,54,29,f,1,3,115.0,1,4,low,7 + 8 - 4 + 6 + 5,22,21,22,23,1952.7159881999976,1954.7420033999952,1956.257196300008,1961.2766053999949,1961.809348099996,1961.8093534000072,1963.3260398999992,1964.3429379000008,w,22,0.5327427000011085,1,+1,579,18.247498339998838,0.48932971026968763,-0.10637769149031229,1950295.0,1.4469033121439758,-0.8141693212438219,-0.019471569432788716,1953829.0,,,,,1956.255038383501,1952.721038383501,
124,54,29,f,1,3,116.0,2,1,high,2 + 1 + 9 + 1 + 1,14,13,14,12,1965.859427100004,1967.886157300003,1969.4013702000084,1974.420405900004,1974.897402600007,1974.897408899997,1976.413947699999,1977.4313924000016,w,14,0.4769967000029282,1,+10,589,4.954320279980478,0.011322019961221397,-0.03640776597644413,1963439.0,14.989938167793786,0.19211241731772066,0.0024964378015601696,1966973.0,,,,,1969.399038383501,1965.865038383501,
125,54,29,f,1,3,117.0,3,2,low,5 - 1 + 1 + 8 + 9,22,22,23,21,1978.947992100002,1980.9747057000056,1982.4899880000007,1987.5082538999995,1988.1132724000051,1988.1132776000013,1989.629869299999,1990.646707199994,q,22,0.6050185000058264,1,+1,590,-63.616057549489376,-0.1691360001392388,-0.29495938500220387,1976527.0,-16.325083153739982,-0.02778188776143553,-0.2512855579261295,1980061.0,,,,,1982.487038383501,1978.953038383501,
126,54,29,f,1,3,118.0,4,3,high,5 - 1 - 4 + 6 + 7,13,14,13,15,1992.1635690999972,1994.189769100005,1995.7051643000011,2000.725360700002,2001.2253084999973,2001.2253144999995,2002.7418208000015,2003.7591844999988,w,13,0.4999477999954251,1,+10,600,41.08228153034149,-0.1713554146210332,-0.11462376561876164,1989743.0,12.842579200055207,-0.3113521983108063,-0.056051759280990154,1993278.0,,,,,1995.704038383501,1992.169038383501,
127,54,29,f,1,3,119.0,5,3,high,2 - 4 + 9 + 7 + 1,15,13,16,15,2005.2761885000075,2007.3001907,2008.8151626000035,2013.833484600007,2014.3612938000008,2014.361299199998,2015.8780109000072,2016.8952951999963,e,15,0.5278091999934986,1,+10,610,8.966237240895623,0.40978591636915596,0.09553878361728385,2002853.0,19.904303613574214,-0.16160003872346484,0.03367226884797114,2006386.0,,,,,2008.812038383501,2005.279038383501,
128,54,29,f,1,3,120.0,6,2,low,8 + 1 + 9 + 1 - 4,15,15,16,14,2018.4119489000004,2020.4373548000003,2021.952619600008,2026.9709322999988,2027.4652584,2027.4652636999965,2028.9816842,2029.9984747999988,q,15,0.4943261000007624,1,+1,611,-30.249138926984557,0.10065130703051128,-0.10512016364374865,2015990.0,-18.930241823731194,0.03646349677921856,-0.14597623543410299,2019524.0,,,,,2021.950038383501,2018.416038383501,
129,54,29,f,1,3,121.0,7,2,high,8 + 1 + 4 - 7 + 1,7,7,6,5,2031.5157222999987,2033.5432921000029,2035.0586792999968,2040.0770527999996,2040.6492377999969,2040.6492429000064,2042.165694299998,2043.1828945000016,q,7,0.5721849999972619,1,+10,621,-8.01343364840664,-0.35627247839658605,-0.14638990847956057,2029096.0,2.7509780729449576,-0.030922715135415224,-0.3062914772987957,2032630.0,,,,,2035.0560383835011,2031.522038383501,
130,54,29,f,1,3,122.0,8,1,high,6 + 9 + 1 + 1 - 1,16,16,14,15,2044.699519300004,2046.7250873000007,2048.240391,2053.259867400004,2053.793212699995,2053.793218200008,2055.3097131999966,2056.327372300002,q,16,0.533345299991197,1,+10,631,11.76440855809656,0.1992284406689917,0.041257470906125304,2042278.0,16.23073265548459,0.12842539162286837,-0.1293867763237171,2045812.0,,,,,2048.238038383501,2044.704038383501,
131,54,29,f,1,3,123.0,9,2,high,8 + 1 + 1 + 9 - 4,15,16,15,14,2057.844194699996,2059.871695900001,2061.3869208999968,2066.405773899998,2066.881200699994,2066.8812214000063,2068.3973076999973,2069.4145182000066,w,15,0.4754267999960575,1,+10,641,15.23520055311016,-0.14557587380860415,0.1144996515324026,2055424.0,-3.6466812525317973,0.04646921379864466,0.022519916204860824,2058957.0,,,,,2061.383038383501,2057.850038383501,
132,54,29,f,1,3,124.0,10,1,low,4 + 8 + 1 - 1 - 1,11,13,11,9,2070.9315552000044,2072.9588800000056,2074.474134000004,2079.493574299995,2079.9531995,2079.953204999998,2081.4698905999976,2082.487342799999,w,11,0.4596252000046661,1,+1,642,-8.836840697799447,-0.22679647957898474,0.0712843196989823,2068511.0,6.62412426947113,-0.0700051509647599,0.1641553520119201,2072046.0,,,,,2074.472038383501,2070.937038383501,
133,54,29,f,1,3,125.0,11,1,low,5 + 1 + 1 + 6 + 1,14,16,13,14,2084.004178300005,2086.028962099997,2087.544050099997,2092.561787300001,2093.2171890000027,2093.217194199998,2094.733898899998,2095.7507937000046,e,14,0.6554017000016756,1,+1,643,-11.242113542927815,0.14689075746029445,0.07764067471037084,2081581.0,21.961607226502764,-0.08338440631550403,-0.1900209125083645,2085114.0,,,,,2087.5400383835013,2084.0070383835014,
134,54,29,f,1,3,126.0,12,1,low,5 + 6 + 1 + 1 + 1,14,16,13,14,2097.2683298000047,2099.292777399998,2100.808027299994,2105.8263152,2106.321217200006,2106.321222300001,2107.8376968999946,2108.854626900007,e,14,0.4949020000058226,1,+1,644,-20.988460087039485,-0.07992261160378433,-0.013378196288367228,2094845.0,11.139226360294405,0.014651653285949529,-0.020559710042918677,2098379.0,,,,,2100.805038383501,2097.271038383501,
135,54,29,f,1,3,127.0,13,3,high,3 + 1 + 8 - 5 + 9,16,15,16,17,2110.371055800002,2112.3986803000007,2113.9143713999947,2118.933397200002,2119.537184400004,2119.537189800001,2121.053602400003,2122.0712634999945,w,16,0.6037872000015341,1,+10,654,-23.159900636323247,0.2984168159587375,0.2573844754062464,2107951.0,6.789774914919521,0.19455653750152457,-0.1394635618304072,2111485.0,,,,,2113.9110383835014,2110.3770383835013,
136,54,29,f,1,3,128.0,14,3,high,8 - 1 + 6 - 7 + 5,11,13,12,11,2123.588109599994,2125.611933599997,2127.1272968999983,2132.145594500005,2133.313200599994,2133.313206200008,2134.8297503000067,2135.847233099994,e,11,1.167606099988916,1,+10,664,-15.608286292609675,-0.5042801315140482,-0.1802036295081857,2121164.0,19.00508969359434,0.13740451775538354,-0.10955596628773145,2124698.0,,,,,2127.124038383501,2123.5900383835015,
137,54,29,f,1,3,129.0,15,3,high,5 + 7 + 1 - 4 + 6,15,13,15,17,2137.363988500001,2139.386507899995,2140.901811899996,2145.920996900008,2146.8092019000032,2146.8092078000045,2148.325466399998,2149.342340000003,q,13,0.8882049999956507,0,+0,664,-1.5587476841973888,-0.11203275372961397,-0.21059854679602275,2134939.0,5.548439550415974,-0.6200401463330572,-0.09014827260229863,2138473.0,,,,,2140.899038383501,2137.365038383501,
138,54,29,f,1,3,130.0,16,3,low,8 + 3 + 1 - 7 + 9,14,12,15,14,2150.859383999996,2152.8860327,2154.4011536000035,2159.419937600004,2159.9211295999994,2159.921134899996,2161.438408200004,2162.456338300006,e,14,0.501191999996081,1,+1,665,12.944553707644186,0.45824924444120096,0.180461076967251,2148438.0,10.34794135527235,0.3608903753960515,0.08543815090559281,2151972.0,,,,,2154.3980383835014,2150.8640383835013,
139,54,29,f,1,3,131.0,17,3,low,5 + 6 - 4 - 1 + 8,14,15,14,16,2163.9731542999943,2165.997478000005,2167.512886700002,2172.532679900003,2174.3931899000017,2174.393195800003,2175.911067699999,2176.927678100008,w,14,1.8605099999986123,1,+1,666,18.8894551149954,0.42105088694460235,0.12982114673310363,2161550.0,-22.798065387481103,-0.17624526422424402,-0.2158089916022221,2165085.0,,,,,2167.5110383835013,2163.9760383835014,
140,54,29,f,1,3,132.0,18,4,high,7 + 6 - 4 + 9 - 5,13,14,12,13,2178.444483600004,2180.470737800002,2181.9859039000003,2187.0042582000024,2187.817089400007,2187.8170947000035,2189.333735399996,2190.3511443000025,w,12,0.8128312000044389,0,+0,666,-5.134021213717251,-0.08326143900798222,0.21479557071045718,2176023.0,4.63610628416005,0.3578583306478107,-0.12159099764143111,2179556.0,,,,,2181.9820383835013,2178.4490383835014,
141,54,29,f,1,3,133.0,19,4,high,2 + 9 - 6 + 8 - 4,9,9,11,7,2191.867836599995,2193.894762600001,2195.410585300008,2200.428683799997,2202.1450989000004,2202.145103999996,2203.661901600004,2204.678993099995,q,9,1.7164151000033598,1,+10,676,-8.84391057418977,0.2607442682884482,0.0947506064605057,2189447.0,-11.468950420155945,-0.26336176408760803,0.07975219943905287,2192981.0,,,,,2195.4070383835015,2191.8730383835014,
142,54,29,f,1,3,134.0,20,1,low,6 + 1 + 8 + 1 - 1,15,13,14,15,2206.1958348000044,2208.222758500008,2209.7377691,2214.7558863000013,2215.3131214000023,2215.3131268,2216.8296998000005,2217.846642000004,e,15,0.5572351000009803,1,+1,677,7.83579870799935,0.23980888966768976,0.0672646804615793,2203775.0,19.13999671016087,-0.1366796775949375,-0.06557346195178448,2207308.0,,,,,2209.7340383835012,2206.2010383835013,
143,54,29,f,1,3,135.0,21,2,low,9 + 4 + 5 + 1 - 1,18,17,19,18,2219.3633537999995,2221.390505999996,2222.9058216999983,2227.924849899995,2228.4092534000083,2228.4092586000043,2229.9257985000004,2230.942484300001,e,18,0.4844035000132862,1,+1,678,6.94180323538049,0.36993072662435456,-0.07463959148034016,2216943.0,-68.3207138731379,0.6059890717646077,0.07314521249815886,2220476.0,,,,,2222.9020383835013,2219.3690383835014,
144,54,29,f,1,3,136.0,22,1,high,7 - 1 + 1 + 9 - 1,15,15,13,14,2232.459241400007,2234.4862705999985,2236.0011638,2241.019802900002,2241.5930753,2241.5930807999976,2243.1084095999977,2244.125862700006,q,15,0.5732723999972222,1,+10,688,-16.420281779293706,0.44524458956753143,0.012925860879382522,2230038.0,0.26759919716811353,-0.4360659866348282,-0.08138609778021655,2233572.0,,,,,2235.9980383835014,2232.4640383835012,
145,54,29,f,1,3,137.0,23,3,high,4 + 8 - 9 + 1 + 7,11,11,13,9,2245.6426177999965,2247.665112700008,2249.180078999998,2254.1989796999987,2254.7610618000035,2254.7610674000025,2256.2775989000074,2257.294575299995,q,11,0.5620821000047727,1,+10,698,6.759342329829668,-0.7818907723082447,-0.02782371941123918,2243217.0,4.997208406495423,-0.07994935880479836,-0.034596220540442424,2246750.0,,,,,2249.1760383835012,2245.6430383835013,
146,54,29,f,1,3,138.0,24,4,low,6 + 7 + 9 - 3 + 5,24,23,22,24,2258.8116500000037,2260.8359299000003,2262.3511340999976,2267.369314399999,2267.9370196999957,2267.937024900006,2269.4534697000054,2270.470259599999,e,24,0.5677052999963053,1,+1,699,11.93508857381984,-0.48505739031829354,0.11316885096573337,2256387.0,-4.521263971134118,0.06900023331460048,0.01220687703912482,2259921.0,,,,,2262.347038383501,2258.8130383835014,
147,54,29,f,1,3,139.0,25,2,low,4 + 8 + 1 + 1 - 6,8,8,9,7,2271.9871488000063,2274.0146149000066,2275.5297700999945,2280.547560499996,2281.0651190000062,2281.0651245000045,2282.581188600001,2283.598099199997,q,8,0.5175585000106366,1,+1,700,-2.2342651287220594,-0.28713633881360856,0.1560599208450526,2269567.0,26.046038163695233,-0.46717614029644317,0.21900568788583064,2273100.0,,,,,2275.526038383501,2271.9930383835012,
148,54,29,f,1,3,140.0,26,3,low,4 + 7 - 3 + 5 - 1,12,11,13,12,2285.114891499994,2287.139520900004,2288.6544727,2293.674603499996,2294.192993000004,2294.1929980999994,2295.7094630000065,2296.7263711999985,e,12,0.5183895000081975,1,+1,701,6.18444881090486,0.6306285426306673,0.2924669423100532,2282692.0,-0.3660897200650659,-0.12423886331084866,-0.19757421498376937,2286226.0,,,,,2288.6520383835013,2285.1180383835012,
149,54,29,f,1,3,141.0,27,1,high,6 + 1 + 1 + 9 - 1,16,16,15,14,2298.243068800002,2300.2683131999947,2301.7834952999983,2306.801603400003,2307.2569861000084,2307.256991700008,2308.7747464999998,2309.791857799996,w,15,0.4553827000054298,0,+0,701,7.457555548208443,0.24967644082656637,0.014632651446384592,2295819.0,16.991837604682736,-0.20453425541574966,0.25664515146150446,2299353.0,,,,,2301.7790383835013,2298.245038383501,
150,54,29,f,1,3,142.0,28,2,high,5 + 7 - 8 + 1 + 1,6,7,6,8,2311.308602499994,2313.334767499997,2314.849996200006,2319.868371699995,2320.2889600000053,2320.288964899999,2321.805721800003,2322.8231680000026,w,6,0.4205883000104222,1,+10,711,11.084252684937042,0.19103492971926528,-0.14933235921318255,2308886.0,-4.81384364548369,-0.6821978275694329,0.08661362078955426,2312420.0,,,,,2314.8460383835013,2311.312038383501,
151,54,29,f,1,3,143.0,29,4,low,5 + 7 - 4 + 6 + 9,23,24,23,25,2324.339911999996,2326.364784699996,2327.8805738999945,2332.8986868000065,2333.512912300008,2333.512917500004,2335.0295381000037,2336.046584099997,w,23,0.6142255000013392,1,+1,712,14.875494192500451,-0.36933443601004967,0.13459195548334257,2321916.0,-1.9254948068056805,0.8161482177753827,-0.020223963380167298,2325451.0,,,,,2327.8770383835013,2324.3420383835014,
152,54,29,f,1,3,144.0,30,1,high,8 + 1 + 1 + 1 - 4,7,5,8,7,2337.563380899999,2339.590943700008,2341.106140200005,2346.124082099996,2346.6329395000066,2346.6329447000026,2348.1493990000017,2349.1666190999968,e,7,0.5088574000110384,1,+10,722,40.80972562648184,0.48763292050509754,-0.025793443892676127,2335143.0,-22.658227211998742,0.11818633469858852,-0.0800500102814774,2338676.0,,,,,2341.102038383501,2337.5690383835013,
153,54,29,f,1,3,145.0,31,2,high,5 + 8 + 1 - 1 + 9,22,22,23,21,2350.6836104999966,2352.710610199996,2354.2258421000006,2359.243926299998,2359.792962000007,2359.7929673000035,2361.309207700004,2362.3262065000017,q,22,0.5490357000089716,1,+10,732,-5.173018949271295,0.6189292638541692,-0.1545000261130598,2348262.0,34.93608216130273,-0.1195567282315313,0.08350980828251986,2351795.0,,,,,2354.2210383835013,2350.6880383835014,
154,54,29,f,1,3,146.0,32,1,high,3 + 1 + 8 - 1 + 1,12,13,12,10,2363.843359599996,2365.871318000005,2367.386321800004,2372.404506100007,2372.8169968,2372.817002900003,2374.3341525,2375.351068600008,w,12,0.4124906999932136,1,+10,742,16.28674863737174,-0.09295511224414366,0.013287504241783932,2361422.0,1.896515967201676,-0.5073279781288775,-0.2379478302239968,2364956.0,,,,,2367.3820383835014,2363.8480383835013,
155,54,29,f,1,3,147.0,33,2,high,9 + 6 + 1 + 7 + 1,24,25,23,24,2376.867666599996,2378.895572900001,2380.410792800001,2385.428945599997,2386.0249291000077,2386.024934600005,2387.5415030000004,2388.5587898999947,e,24,0.595983500010334,1,+10,752,-8.768754468678207,0.06016213790812497,0.008040226657466176,2374447.0,4.0501542616752015,0.2572033424772835,-0.013285882335611898,2377980.0,,,,,2380.4060383835013,2376.8730383835014,
156,54,29,f,1,3,148.0,34,3,low,3 + 8 - 7 + 1 + 9,14,13,14,12,2390.0755049,2392.103503399994,2393.6187595000083,2398.637390799995,2399.0968910999945,2399.0968962000043,2400.613271199996,2401.630081700001,w,14,0.4595002999994904,1,+1,753,4.883031484190909,-0.17921051466873816,-0.07473875164199884,2387655.0,7.448300052438798,-0.8774603576088316,0.10987323565722074,2391189.0,,,,,2393.615038383501,2390.0810383835014,
157,54,29,f,1,3,149.0,35,2,low,4 + 8 + 1 + 1 - 5,9,8,11,9,2403.1478719000006,2405.1743976,2406.689667300001,2411.7076458000083,2412.2248877999955,2412.224893599996,2413.7414258000063,2414.758312499994,e,9,0.5172419999871636,1,+1,754,-25.745250247388334,0.08019792756999422,-0.13510315944335227,2400726.0,-12.202737385692979,-0.5992661374358397,0.021389043707969346,2404259.0,,,,,2406.6850383835013,2403.1520383835013,
158,54,29,f,1,3,150.0,36,3,low,2 + 9 - 3 + 4 + 1,13,13,11,14,2416.274989500001,2418.302184800006,2419.817146100002,2424.835366900006,2425.360868600008,2425.360873800004,2426.877120799996,2427.8940803000005,q,13,0.5255017000017688,1,+1,755,-21.516071907735416,-0.17192954714076247,0.10592393483862095,2413854.0,-24.97938609439112,-0.10084411624701417,0.1985400432251203,2417387.0,,,,,2419.8130383835014,2416.280038383501,
159,54,29,f,1,3,151.0,37,4,high,9 + 7 - 5 + 8 + 6,25,27,25,24,2429.411144700003,2431.4361172000063,2432.951437399999,2437.9696865000005,2440.241887299999,2440.2418930999997,2441.758392000004,2442.7754618000035,e,24,2.272200799998245,0,+0,755,-3.450945730132227,-0.3054420662242121,-0.12218937560452181,2426987.0,-52.39847714160997,0.22760787682704375,0.2268383611390361,2430521.0,,,,,2432.9470383835014,2429.4130383835013,
160,54,29,f,1,4,152.0,0,2,low,5 + 9 - 8 + 1 + 1,8,9,8,7,2462.613758899999,2464.6408265000064,2466.154865400007,2471.174118499999,2471.5528482999944,2471.5528537000064,2473.0694124,2474.086459500002,w,8,0.3787297999951988,1,+1,756,4.058136339591829,-0.7133273053297691,1.595537721684642,2460192.0,-0.9918478770048074,-0.8803024964061157,0.5785740286645953,2463725.0,,,,,2466.151038383501,2462.6180383835012,
161,54,29,f,1,4,153.0,1,1,high,4 + 9 + 1 - 1 - 1,12,12,13,11,2475.6032315000048,2477.630996100008,2479.146062700005,2484.164156300001,2484.6652031999984,2484.6652105999965,2486.1824376000004,2487.2002842000074,q,12,0.5010468999971636,1,+10,766,-104.30194635687224,0.045078923230406964,-0.023648726841888124,2473182.0,7.326015643612939,-0.38996516506372103,0.1480629556222648,2476715.0,,,,,2479.1410383835014,2475.608038383501,
162,54,29,f,1,4,154.0,2,3,low,5 + 1 + 7 - 8 + 6,11,11,13,9,2488.7169154000003,2490.739790599997,2492.2549500000023,2497.273164600003,2497.736778100006,2497.7367833000026,2499.253133899998,2500.2700343000038,q,11,0.4636135000037029,1,+1,767,26.14383301829135,0.17585543867505482,-0.03692913941942866,2486291.0,3.7118096192282675,-0.5170238418194035,-0.46960522747813727,2489824.0,,,,,2492.2500383835013,2488.7170383835014,
163,54,29,f,1,4,155.0,3,2,low,2 + 1 + 9 - 4 + 1,9,8,11,9,2501.7867941000004,2503.8106151999964,2505.325952500003,2510.3442198999983,2510.8808495999983,2510.880854999996,2512.3974572000006,2513.414485100002,e,9,0.5366297000000486,1,+1,768,-5.262217971314534,-0.0012176102528700383,-0.08254741682429945,2499361.0,-16.72330609607719,-0.3871950134901363,-0.3645700025115661,2502895.0,,,,,2505.321038383501,2501.787038383501,
164,54,29,f,1,4,156.0,4,1,low,6 + 9 + 1 + 1 - 1,16,16,15,14,2514.9315681000007,2516.959467000008,2518.474543500008,2523.492587300003,2524.088791400005,2524.088797000004,2525.6054274000053,2526.622371300007,q,16,0.596204100002069,1,+1,769,-5.591156011517068,0.36157990860995515,-0.14095533294440266,2512510.0,12.883742164363882,-0.047004067871780464,0.08586068568034833,2516044.0,,,,,2518.470038383501,2514.9360383835015,
165,54,29,f,1,4,157.0,5,2,high,3 + 8 - 5 + 1 + 1,8,6,8,9,2528.139166699999,2530.1652099000057,2531.681275499999,2536.6993032000028,2538.320711799999,2538.320717399998,2539.837077400007,2540.8543068,w,8,1.6214085999963572,1,+10,779,9.200497518729795,-0.1529589712749546,-0.11743439791931332,2525716.0,-37.00976875099363,-0.13040241734652902,0.11361716077145712,2529250.0,,,,,2531.6760383835012,2528.142038383501,
166,54,29,f,1,4,158.0,6,3,low,9 + 3 - 4 + 6 + 7,21,21,23,22,2542.3710431000072,2544.3970889000047,2545.912330499996,2550.9307239000045,2551.528760100002,2551.5287663000054,2553.0450844000006,2554.062021400008,q,21,0.5980361999972956,1,+1,780,53.68724801087942,0.010086594233358781,0.18856124534957774,2539948.0,15.170708001239447,0.1441029814789534,-0.014877786586515729,2543482.0,,,,,2545.908038383501,2542.374038383501,
167,54,29,f,1,4,159.0,7,2,high,7 + 8 + 1 + 9 + 1,26,26,25,24,2555.5789196999976,2557.6067602999974,2559.122022900003,2564.140507899996,2564.656685399997,2564.656691299999,2566.173428299997,2567.190743600004,q,26,0.5161775000015041,1,+10,790,-16.433463246877167,0.2777318463062963,0.09956226543195523,2553158.0,40.39442141814019,-0.4262900539909378,-0.0788638882498458,2556691.0,,,,,2559.117038383501,2555.584038383501,
168,54,29,f,1,4,160.0,8,4,high,8 + 5 - 4 + 7 + 9,25,24,25,26,2568.707160399994,2570.7353458,2572.2506079000013,2577.2689626000065,2577.760639400003,2577.7606444999983,2579.2782145999954,2580.2952574000083,w,25,0.4916767999966396,1,+10,800,-2.7808630506618854,0.3749487685878674,0.13074199979680712,2566285.0,-41.11962969308786,0.06519681611198003,0.02790661450479015,2569820.0,,,,,2572.2460383835014,2568.711038383501,
169,54,29,f,1,4,161.0,9,1,high,4 + 7 + 1 - 1 - 1,10,10,9,11,2581.8119283999986,2583.836083999995,2585.350768000004,2590.369241000008,2590.8967028000043,2590.8967084000037,2592.4133565999946,2593.4306259000005,q,10,0.5274617999966722,1,+10,810,-14.562790765546843,0.6223654083534575,0.06158770103543354,2579387.0,26.9623829995062,-0.4279612014009455,-0.08050141508310893,2582920.0,,,,,2585.3460383835013,2581.8130383835014,
170,54,29,f,1,4,162.0,10,3,high,5 + 6 - 4 - 1 + 7,13,15,14,13,2594.947023600005,2596.9737952,2598.488883900005,2603.507519699997,2604.1607187000045,2604.1607243000035,2605.6772618999967,2606.6947910000017,e,13,0.6531990000075893,1,+10,820,-2.6743108478798074,0.692185079530792,0.08739609191441233,2592524.0,54.67530429041683,-0.11086932776617031,-0.20358256189364288,2596058.0,,,,,2598.4840383835012,2594.950038383501,
171,54,29,f,1,4,163.0,11,3,high,2 + 1 + 9 - 7 + 6,11,11,13,12,2608.211255800008,2610.238389599996,2611.753955299995,2616.771875999999,2617.2246644999977,2617.224669700008,2618.742095900001,2619.759264399996,q,11,0.45278849999886,1,+10,830,-10.862300360547644,-0.21929510030411148,-0.10747306223720066,2605789.0,-11.775628373704363,-0.3082550566141995,0.09481172925543913,2609323.0,,,,,2611.749038383501,2608.2150383835015,
172,54,29,f,1,4,164.0,12,1,low,3 + 1 + 8 + 1 + 1,14,13,16,14,2621.276208199997,2623.3031592000043,2624.8182640000014,2629.836297200003,2630.328644699999,2630.328649700008,2631.845000400004,2632.861697100001,e,14,0.492347499995958,1,+1,831,3.282022437893037,-0.04046273749944351,-0.1494010798909371,2618854.0,-22.815471021279322,0.6738997965239188,-0.0749506648249747,2622387.0,,,,,2624.8130383835014,2621.280038383501,
173,54,29,f,1,4,165.0,13,4,high,8 + 4 + 7 - 5 - 6,8,9,7,8,2634.3784650000016,2636.406393199999,2637.9216514,2642.9400994000025,2643.352692500004,2643.3526979000017,2644.8692146999965,2645.886496399995,e,8,0.4125931000016862,1,+10,841,-5.951785591220347,0.367495419993197,0.14632926365306775,2631957.0,-100.17311752438019,0.1333275945411616,0.033250890949428014,2635491.0,,,,,2637.917038383501,2634.383038383501,
174,54,29,f,1,4,166.0,14,2,high,7 + 6 + 1 - 1 - 8,5,4,3,5,2647.403317999997,2649.4293435,2650.944373599996,2655.964447599996,2656.368627799995,2656.368633300008,2657.8850833000038,2658.902426700006,e,5,0.4041801999992458,1,+10,851,12.724835030051398,0.34342570435327735,-0.18242349036771177,2644980.0,49.51463320643376,0.306764908783542,0.011344814242485013,2648515.0,,,,,2650.941038383501,2647.4060383835013,
175,54,29,f,1,4,167.0,15,4,low,8 + 4 + 7 - 5 - 6,8,8,9,6,2660.4188261999952,2662.4442133999983,2663.959409300005,2668.977701099997,2669.5046807000035,2669.5046863000025,2671.021270700003,2672.0382831000024,q,8,0.526979600006598,1,+1,852,-8.318533365517697,-0.27637962012616324,-0.12934123093753613,2657994.0,-33.36180946312391,-0.18401451775092648,0.16092389436756416,2661528.0,,,,,2663.954038383501,2660.4200383835014,
176,54,29,f,1,4,168.0,16,2,high,6 + 1 + 1 + 8 - 9,7,9,7,5,2673.5548369000026,2675.5800461000035,2677.095266400007,2682.113152200007,2682.520559700002,2682.520564899998,2684.036919999998,2685.054195500008,w,7,0.4074074999953154,1,+10,862,4.3406368448459,-0.19176520502655858,-0.016188220314293122,2671130.0,10.190331547326402,-0.4696554152937713,0.12408390332883212,2674664.0,,,,,2677.0900383835015,2673.5560383835013,
177,54,29,f,1,4,169.0,17,4,high,8 + 3 - 4 + 5 + 9,21,22,21,23,2686.571227399996,2688.5990811999945,2690.1143687000003,2695.132812700001,2695.7206478000007,2695.7206534,2697.237157399999,2698.2544395000004,w,21,0.5878350999992108,1,+10,872,27.07017366259279,-0.4275143950242595,-0.18704075846805424,2684150.0,2.257213549775802,-0.24701431768873494,0.07480392525112856,2687683.0,,,,,2690.1090383835012,2686.5760383835013,
178,54,29,f,1,4,170.0,18,2,low,3 - 1 + 9 - 5 + 1,7,6,7,5,2699.7715538000048,2701.7990714000043,2703.313804000005,2708.332984000008,2708.720583000002,2708.720588199998,2710.2369940000062,2711.2538309000083,w,7,0.3875989999942248,1,+1,873,-1.4143543055830392,0.4830723510611099,-0.4872975595103308,2697349.0,-4.535673051179755,0.1830782251060903,0.0726593509252269,2700883.0,,,,,2703.309038383501,2699.7750383835014,
179,54,29,f,1,4,171.0,19,1,high,8 - 1 + 1 + 6 + 1,15,14,16,15,2712.770147400006,2714.7978784000006,2716.312777500003,2721.331388599996,2721.816625499996,2721.8166312999965,2723.3332450000016,2724.3507613999973,e,15,0.485236900000018,1,+10,883,8.782561003223668,-0.16461730317231016,0.14765207900665356,2710348.0,-52.479014233396626,-0.21734635417394,-0.1722895602237815,2713881.0,,,,,2716.307038383501,2712.774038383501,
180,54,29,f,1,4,172.0,20,2,high,5 - 8 + 7 + 1 + 1,6,7,6,8,2725.867585200001,2727.892925100008,2729.407928600005,2734.427802599996,2734.824560299996,2734.8245655000064,2736.3410401,2737.3581957999995,w,6,0.3967577000003075,1,+10,893,-34.04895547392607,-0.057133936294166965,0.10705821724732134,2723443.0,2.1532956669126193,-0.6668439552326246,0.06815891764906445,2726978.0,,,,,2729.4040383835013,2725.8690383835014,
181,54,29,f,1,4,173.0,21,2,low,4 + 1 + 9 + 1 - 6,9,9,8,7,2738.874855400005,2740.9019271,2742.4173666999995,2747.4353784999985,2747.9205411000003,2747.9205461999954,2749.4372506000072,2750.453528900005,q,9,0.4851626000017859,1,+1,894,-0.4658115744711804,-0.5589056784254884,0.21934806691401842,2736452.0,-17.59747134193498,-0.23928400832779229,-0.3337284655477646,2739986.0,,,,,2742.412038383501,2738.8780383835015,
182,54,29,f,1,4,174.0,22,2,high,6 + 1 + 7 + 5 - 1,18,18,17,16,2751.970210300002,2753.996053099996,2755.511176500004,2760.530358899996,2760.9765106999985,2760.976515999995,2762.493119000006,2763.510242899996,w,17,0.4461518000025535,0,+0,894,33.94696844210251,-0.16611798785704135,0.13960508725930953,2749546.0,-18.37421049907931,-0.005122162881379566,0.1475788261993305,2753080.0,,,,,2755.506038383501,2751.972038383501,
183,54,29,f,1,4,175.0,23,3,high,4 + 8 - 3 + 5 - 1,13,12,14,13,2765.027571700004,2767.0541148000048,2768.569277500006,2773.5881905999995,2774.0886086999963,2774.0886139000067,2775.6057826000037,2776.6235693000053,e,13,0.5004180999967502,1,+10,904,-4.831325365369075,-0.06492264141851489,-0.07414722323036238,2762604.0,22.85369424188527,0.5020370522394968,-0.1725056233420501,2766138.0,,,,,2768.564038383501,2765.030038383501,
184,54,29,f,1,4,176.0,24,4,low,8 + 4 - 5 + 7 - 6,8,8,6,7,2778.140499400004,2780.168920099997,2781.6837527000025,2786.702142599999,2787.272624100005,2787.272629500003,2788.789336800008,2789.806984900002,q,8,0.5704815000062808,1,+1,905,7.764638265281491,0.4281299656128583,0.12745083665903834,2775719.0,35.25922356058379,-0.32538648364847234,-0.31306040003499147,2779252.0,,,,,2781.678038383501,2778.1450383835013,
185,54,29,f,1,4,177.0,25,3,low,4 + 1 + 8 + 9 - 5,17,17,19,18,2791.323584800004,2793.3500810999976,2794.866131300005,2799.884406199999,2800.4004930999945,2800.400498300005,2801.9169590999954,2802.934030500008,q,17,0.516086899995571,1,+1,906,11.33108170853831,0.20282252887944363,-0.13660148003305372,2788900.0,-1.011635513746544,-0.36018049251091977,-0.010926711476966666,2792435.0,,,,,2794.861038383501,2791.3260383835013,
186,54,29,f,1,4,178.0,26,1,low,4 + 1 + 1 + 7 - 1,12,14,13,12,2804.450615599999,2806.476733999996,2807.992054000002,2813.0106754000008,2813.520537200005,2813.520543000006,2815.037108999997,2816.0533135000005,e,12,0.5098618000047281,1,+1,907,-15.962616489693364,-0.09423776803311679,0.11275573284162088,2802027.0,6.648364521522058,0.3358066647313702,0.022304025667026828,2805561.0,,,,,2807.9870383835014,2804.4530383835013,
187,54,29,f,1,4,179.0,27,1,low,9 + 1 + 1 + 7 - 1,17,17,16,19,2817.570075399999,2819.593839299996,2821.1087393000053,2826.127127500004,2826.560494000005,2826.5605025999976,2828.077218200008,2829.094782900007,w,16,0.4333665000012843,0,+0,907,1.3520015380448571,0.5021412318367187,0.23266753401320295,2815144.0,42.990681778591195,-0.29019347655205685,0.04085930455528186,2818677.0,,,,,2821.1030383835014,2817.570038383501,
188,54,29,f,1,4,180.0,28,4,low,6 + 5 - 7 + 8 - 9,3,5,4,3,2830.611500400002,2832.6370482000057,2834.152583999996,2839.170645399994,2839.640530100005,2839.6405355000024,2841.1576554000058,2842.1746518,e,3,0.4698847000108799,1,+1,908,24.015969782282685,-0.021142801677313194,0.057848191133625715,2828187.0,1.6768327518473711,0.23133424026546034,-0.10022288023696824,2831721.0,,,,,2834.1470383835012,2830.613038383501,
189,54,29,f,1,4,181.0,29,3,low,8 - 7 + 9 + 1 + 4,15,15,14,16,2843.694398199994,2845.7220922999986,2847.237485100006,2852.2558890000078,2852.824417099997,2852.824422400008,2854.340853200003,2855.3576532000006,q,15,0.5685280999896349,1,+1,909,-5.504405164467215,-0.430969483918179,0.010181524035258516,2841272.0,1.8978868022776236,-0.6079775971236163,0.05152260751725257,2844806.0,,,,,2847.2320383835013,2843.698038383501,
190,54,29,f,1,4,182.0,30,3,high,2 + 9 + 1 - 5 + 7,14,14,15,12,2856.874403900001,2858.898773299996,2860.413993900001,2865.432472500004,2865.968409900001,2865.9684150999965,2867.485137900003,2868.502608099996,q,14,0.5359373999963282,1,+10,919,-2.478957636104375,-1.0413867540297588,-0.18540991336901747,2854449.0,0.3892185035047788,0.5133747199618863,0.13774426946784746,2857983.0,,,,,2860.4090383835014,2856.8750383835013,
191,54,29,f,1,4,183.0,31,4,high,3 + 8 - 4 + 9 + 7,23,24,23,22,2870.019632199997,2872.0447864000016,2873.560071700005,2878.5784862,2879.040479400006,2879.040484900004,2880.557014100006,2881.5741815000074,w,23,0.4619932000059634,1,+10,929,-35.91889111923642,-0.03326245237861247,0.2819558151654957,2867595.0,-13.076671873982061,0.04593609203652438,-0.04509760665327445,2871128.0,,,,,2873.5540383835014,2870.021038383501,
192,54,29,f,1,4,184.0,32,3,low,8 + 5 + 1 - 7 + 9,16,16,17,14,2883.0909607000067,2885.117033700008,2886.632345399994,2891.6511740999995,2892.704420099996,2892.704425899996,2894.2212438999995,2895.2374750000017,q,16,1.053245999995852,1,+1,930,16.496487203208552,0.7594335788835767,0.43204201220790805,2880667.0,-5.58490090336042,-0.7342486304995628,0.08617743632350128,2884201.0,,,,,2886.6270383835013,2883.093038383501,
193,54,29,f,1,4,185.0,33,4,high,3 + 8 - 4 + 9 + 6,22,21,22,23,2896.7543042000034,2898.7808694999985,2900.295882599996,2905.3149009000044,2905.768527399996,2905.7685326000064,2907.285245200008,2908.302590200008,w,22,0.4536264999915147,1,+10,940,4.486798120909886,-0.48272945243919585,0.020600011073439894,2894331.0,15.123836181002714,-0.4966120478392151,-0.11430562132465694,2897864.0,,,,,2900.2900383835013,2896.7570383835014,
194,54,29,f,1,4,186.0,34,3,high,7 + 1 + 9 + 5 - 6,16,14,15,16,2909.819078600005,2911.846172699996,2913.361181,2918.3798415000056,2918.8883677999984,2918.888373199996,2920.4047988999955,2921.422227600008,e,16,0.5085262999928091,1,+10,950,-20.677367623841903,-0.046578723383520426,-0.005039927577575876,2907396.0,15.339128474921393,-0.22215574365965463,0.11345629999536344,2910930.0,,,,,2913.356038383501,2909.8220383835014,
195,54,29,f,1,4,187.0,35,1,high,7 + 1 + 4 + 1 - 1,12,12,11,13,2922.939581700004,2924.9656429000024,2926.4805051000003,2931.4990248999966,2932.096334899994,2932.096340300006,2933.612940100007,2934.630120300004,q,12,0.5973099999973783,1,+10,960,-15.6567802613688,-0.26506327617702974,0.006516036935991343,2920516.0,37.19360392568127,-0.5854826817036289,0.07004906000287825,2924049.0,,,,,2926.475038383501,2922.9420383835013,
196,54,29,f,1,4,188.0,36,2,low,8 + 1 + 9 + 1 - 5,14,14,13,15,2936.1469992000057,2938.1752704999963,2939.690543799996,2944.7083985000063,2945.304398599997,2945.3044042999973,2946.8209598999965,2947.8380831999966,q,14,0.5960000999912154,1,+1,961,1.8082368865818754,-0.3986028073827237,-0.021504854314743138,2933724.0,-54.63481030385964,0.13298154270953866,0.21490504041272374,2937258.0,,,,,2939.684038383501,2936.1500383835014,
197,54,29,f,1,4,189.0,37,2,high,2 + 1 + 9 - 4 + 1,9,8,11,9,2949.354861100001,2951.380401100003,2952.8956990000006,2957.914918900002,2958.8723330000066,2958.872338300004,2960.3890762000083,2961.4060400000017,q,8,0.9574141000048256,0,+0,961,-23.55127122756026,0.14381078621480992,0.06924117440009891,2946931.0,7.452222822971136,-0.271591436656176,0.16179912289757614,2950465.0,,,,,2952.8910383835014,2949.3570383835013,
198,54,29,f,1,5,190.0,0,2,low,7 + 6 + 1 + 8 + 1,23,22,23,21,2981.2122664000053,2983.238954500004,2984.7542698000034,2989.7739015999978,2990.2162927000027,2990.2162978999986,2991.7339987000014,2992.7517356000026,w,23,0.4423911000048974,1,+1,962,5.197831453182661,0.8156961769145639,-3.1131102404025564,2978788.0,-11.817373261592532,-0.5358256889907782,0.19176252723379905,2982324.0,,,,,2984.7500383835013,2981.2140383835012,
199,54,29,f,1,5,191.0,1,3,low,4 + 5 - 3 + 7 - 1,12,11,13,12,2994.2687617000047,2996.2961188000045,2997.8110394999967,3002.830497799994,3003.352243400004,3003.352249100004,3004.8690687000053,3005.886774900005,e,12,0.5217456000100356,1,+1,963,7.1327080008559625,-0.19015523500935494,0.3423268576516483,2991846.0,-7.465155971802854,0.0015194758448418,-0.15658485542483636,2995380.0,,,,,2997.8060383835013,2994.2720383835012,
