,id,age,sex,cued,block,trial,trialinblock,efflev,rewlev,calc,corAns,option1,option2,option3,tstart,ITI1Time,probTime,respTime,selectTime,ITI2Time,fbTime,ITI3Time,key_press,chosenAns,RT,acc,feedback,total_points,cuescr,cuecor,cuezyg,cuetime,probscr,probcor,probzyg,probtime,fbscr,fbcor,fbzyg,fbtime,probtime_c,cuetime_c,fbtime_c
0,55,26,f,0,Practice,,0,1,0,4 + 1 + 9 + 1 + 1,16,15,16,14,154.01557550000143,,154.01557769998908,159.23236159999217,168.99577609999687,168.99578230000043,170.51325360000192,171.53652229999716,w,16.0,9.763414500004728,1,Correct,0,,,,,-17.464775639284067,0.7635780013190878,-0.03998558206829106,150649.0,-31.99252111791102,0.37424833340726593,1.7985071126713168,166953.0,154.21796054799617,,170.52196054799617
1,55,26,f,0,Practice,,1,1,0,3 + 1 + 1 + 8 - 1,12,11,12,10,173.06256320000102,,173.06258810000145,178.08506519999355,188.13172739998845,188.13173339999048,189.64858660000027,190.6668024999963,w,12.0,10.046662199994898,1,Correct,0,,,,,17.790664621829535,0.5632537769084971,-2.0504183847615756,169501.0,-19.89783424075123,-0.6808502154810379,1.5711418984958399,186083.0,173.06996054799617,,189.65196054799617
2,55,26,f,0,Practice,,2,2,0,8 + 1 + 6 + 1 - 4,12,10,12,11,192.18492999998853,,192.1849528000021,197.20493239999632,200.25982799999477,200.259833899996,201.7765833000012,202.79379250000056,w,12.0,3.0548955999984173,1,Correct,0,,,,,1.440062671034214,-0.22098065605768547,0.12996458777863795,188621.0,-51.873186127717396,-0.24661647759334215,0.003990586149517972,198210.0,192.18996054799618,,201.77896054799618
3,55,26,f,0,Practice,,3,2,0,9 + 4 - 6 + 1 - 1,7,7,5,6,204.3111295999988,,204.31113259999256,209.33032690000252,218.41958829999203,218.4195949999994,219.9369260999956,220.9565134000004,e,6.0,9.089261399989482,0,Incorrect,0,,,,,16.038945075954707,-0.2246496138093761,0.0375450378457578,200746.0,21.509185434366984,-1.630359028541073,0.3041852289882383,216373.0,204.31496054799618,,219.94196054799616
4,55,26,f,0,Practice,,4,3,0,9 + 3 - 5 + 6 + 7,20,20,22,21,222.4734238999954,,222.47342729999215,227.49376679999116,233.22770579998905,233.22771189999185,234.7448590999993,235.7630138999957,w,22.0,5.733938999997918,0,Incorrect,0,,,,,9.163402051325392,-0.16378814524271412,-0.5489497835714001,218910.0,-1.4259801818354725,-1.234655349502038,0.9070976685866801,231179.0,222.47896054799617,,234.74796054799617
5,55,26,f,0,Practice,,5,3,0,2 + 1 + 9 - 7 + 6,11,11,10,9,237.28013199999987,,237.2801350999944,242.30007040000052,245.6916235999961,245.6916302000027,247.2082145000022,248.22659099999876,w,10.0,3.391553199995542,0,Incorrect,0,,,,,2.150563894745728,0.43391370561232456,-0.2668715321936994,233717.0,-11.299731756341618,-1.434021687849513,1.8484643984367914,243643.0,237.28596054799618,,247.21196054799617
6,55,26,f,0,Practice,,6,4,0,4 + 8 + 5 - 3 + 7,21,21,23,22,249.74376979999943,,249.7437726999924,254.76424229999247,257.09165589998884,257.09166189999087,258.60864009999204,259.626506399989,q,21.0,2.327413599996362,1,Correct,0,,,,,-15.952203046772475,1.2303455871976618,-4.605845995763015,246180.0,16.687124601160118,0.21742272263766615,0.030351792552919532,255043.0,249.74896054799618,,258.6119605479962
7,55,26,f,0,Practice,,7,4,0,5 + 8 - 4 + 6 + 9,24,23,24,22,261.14386679999006,,261.1438697999984,266.16357119999884,269.89206129999366,269.89206769999873,271.4091713999951,272.427451800002,w,24.0,3.728490099994815,1,Correct,0,,,,,-1.768780204968035,-0.4497673351363467,-0.04781339436460175,257580.0,20.102024576332482,0.27962356361395635,0.035580189136254825,267843.0,261.1489605479962,,271.4119605479962
8,55,26,f,1,0,0.0,0,4,high,8 + 4 - 5 + 7 - 6,8,8,7,6,455.5050699999993,457.5818260999949,459.09704690000217,464.16581959999166,467.2891010000021,467.28910670000187,468.80546809999214,469.82271199999377,w,7.0,3.1232814000104554,0,+0,0,2.292451593493692,0.009553882432912886,0.1201383786708059,451997.0,-19.181156817012095,-0.39946978039925085,0.2297482430280322,455581.0,7.895043104912446,0.3045858296717032,0.11443274010633209,543583.0,459.1499605479962,455.5659605479962,547.1519605479962
9,55,26,f,1,0,1.0,1,1,high,4 + 8 + 1 - 1 - 1,11,9,11,13,471.3397829000023,473.37434829999984,474.8896353000018,479.9080934999947,482.3290949999937,482.3291001999896,483.8457187000022,484.8628810999944,w,11.0,2.4210014999989653,1,+10,10,4.611082718677159,-0.06306563624151718,-6.637599773161607,467790.0,-18.236256603112654,-0.743660554679396,-0.3585705418452645,471323.0,0.006096265007202284,0.4840666842384218,0.1588165272858726,480278.0,474.8919605479962,471.3589605479962,483.8469605479962
10,55,26,f,1,0,2.0,2,4,high,2 + 5 - 3 + 9 + 8,21,21,19,22,486.3798508999898,488.4046489999892,489.91963479999686,494.93794399999024,499.9553770999919,499.95537969999714,501.4721690000006,502.5748145999969,,,,0,Too Slow!,10,-3.233818246798677,-0.6241689622840312,-0.17400214586397023,482820.0,-1.046956468983759,-0.00677256496598222,0.25072844939429495,486353.0,11.462593199602061,-1.1865176770391725,0.09707210743990591,497990.0,489.9219605479962,486.3889605479962,501.5589605479962
11,55,26,f,1,0,3.0,3,1,low,2 + 1 + 1 + 9 - 1,12,11,13,12,504.091797999994,506.1185666999954,507.6338125999901,512.6537960999995,514.4730790999893,514.4730840999982,515.990184299997,517.0084823999932,w,13.0,1.8192829999898092,0,+0,10,19.319452496612872,-0.7943098484951916,0.10096162411137,500534.0,3.0811897096923406,0.9552510921176296,0.08016263173957783,504068.0,-61.177470805116464,-0.13323404138793293,0.14936992067696053,1621519.0,507.6369605479962,504.1029605479962,1625.087960547996
12,55,26,f,1,0,4.0,4,3,low,2 + 1 + 9 - 4 + 6,14,16,15,14,518.5254524999909,520.5643964999908,522.0797041999904,527.0986528999929,529.0091044000001,529.0091093999945,530.526205599992,531.5440890000027,w,15.0,1.910451500007184,0,+0,10,21.57728310277211,1.2736966255749973,-0.33737404311912744,514979.0,-27.898325712524127,1.010548742103639,0.07180249004515837,518514.0,-26.46625927903419,1.8744070393297112,-0.2467823043930908,2667331.0,522.0829605479962,518.5479605479962,2670.899960547996
13,55,26,f,1,0,5.0,5,4,low,9 + 7 - 5 + 8 + 6,25,24,25,27,533.0611471000011,535.0990359999996,536.6140473999985,541.6331512999895,545.6346668999904,545.6346725999902,547.1512538999959,548.1683276999975,w,25.0,4.001515600000857,1,+1,11,-34.61808608430205,0.8902298159459203,0.004503727313928341,529513.0,0.07409119610472314,0.825123129361713,0.13887934395387713,533048.0,,,,,536.6169605479962,533.0819605479962,
14,55,26,f,1,0,6.0,6,1,low,8 + 1 + 1 - 1 - 4,5,3,6,5,549.6851250999898,551.7120494999981,553.2274519999919,558.246867599999,558.9690244999947,558.9690297999914,560.485778000002,561.5031000000017,e,5.0,0.7221568999957526,1,+1,12,7.152324797332088,0.21212622605145004,-0.02365842244917027,546127.0,24.64458527683563,1.09850141602272,-0.1388883852431233,549662.0,,,,,553.2309605479962,549.6959605479962,
15,55,26,f,1,0,7.0,7,3,high,2 + 1 + 9 - 5 + 6,13,11,13,14,563.019323200002,565.0670583000028,566.5825255999953,571.6006876999891,574.6488914999936,574.6488966999896,576.1655461999908,577.1827934999892,w,13.0,3.0482038000045577,1,+10,22,-8.394117023626976,0.11894369485784306,0.015412104474531452,559482.0,14.33396146271043,0.5339164813012074,0.097993548138263,563016.0,,,,,566.5849605479962,563.0509605479962,
16,55,26,f,1,0,8.0,8,4,low,5 + 6 - 4 + 7 + 9,23,25,24,23,578.699569199991,580.7246629000001,582.2399729999888,587.2600859999948,589.8889281000011,589.8889330999955,591.405067300002,592.421674199999,e,23.0,2.628842100006296,1,+1,23,-22.714401099697504,-1.1193220427007882,0.038976407259155854,575140.0,20.13410070697517,0.3144926839812827,0.06085462997323021,578675.0,,,,,582.2439605479962,578.7089605479962,
17,55,26,f,1,0,9.0,9,1,high,9 + 1 + 1 + 7 - 1,17,16,17,19,593.9387571999978,595.9659994999965,597.4812684999924,602.4998307999922,603.088966299998,603.0889714999939,604.6053124000027,605.6236356000009,w,17.0,0.5891355000057956,1,+10,33,12.714263028138285,0.8382602853109056,0.5110170940548833,590381.0,44.20267770837118,1.620277165212764,-0.17695584039163603,593915.0,,,,,597.4839605479962,593.9499605479962,
18,55,26,f,1,0,10.0,10,3,low,5 + 6 + 7 - 1 - 9,8,9,7,8,607.14024719999,609.1646019999898,610.6795509999938,615.6999549000029,619.072946100001,619.0729517,620.58981949999,621.6067360000015,e,8.0,3.3729911999980686,1,+1,34,-33.334985457055865,0.2978364876930888,-0.11295013409317733,603579.0,13.738470247697027,0.7128448573595536,-0.014111348576980154,607115.0,,,,,610.6839605479962,607.1479605479961,
19,55,26,f,1,0,11.0,11,2,high,9 + 4 - 6 + 1 - 1,7,9,7,8,623.123803399998,625.1525151999958,626.6677614999935,631.6861293999973,633.4969223999942,633.4969276999909,635.0135769999906,636.0307974999887,w,7.0,1.81079299999692,1,+10,44,-0.2008968018460231,0.2485390650671162,0.1169473101725127,619567.0,17.709032307413544,0.10566527026344819,0.12434752688128459,623101.0,,,,,626.6699605479962,623.1359605479962,
20,55,26,f,1,0,12.0,12,4,low,4 + 9 - 7 + 8 + 5,19,20,21,19,637.5477378999931,639.5745846999926,641.0898038000014,646.1079446999938,650.0809914999991,650.080996699995,651.5975652999914,652.6145375999913,w,21.0,3.9730468000052497,0,+0,44,16.27418594025466,0.1858680546187257,0.18033002823858046,633989.0,-8.392832117956388,1.1110254573280827,0.01049631927488992,637523.0,,,,,641.0919605479962,637.5579605479962,
21,55,26,f,1,0,13.0,13,2,low,5 + 7 - 8 + 1 + 1,6,6,8,7,654.1311385000008,656.159064499996,657.6743546999933,662.6945370999892,665.5848337999923,665.5848419999966,667.1010880999966,668.1182415999938,w,8.0,2.8902967000030912,0,+0,44,-23.03582063699305,-0.6332537158626375,1.728490435809455,650574.0,-22.816382778968645,0.404776336489312,0.007944318960725782,654109.0,,,,,657.6779605479962,654.1429605479962,
22,55,26,f,1,0,14.0,14,3,high,7 - 1 + 9 - 5 + 4,14,13,15,14,669.6354387999891,671.6628431999998,673.1780431999941,678.1961038000009,679.4407600999984,679.4407651999936,680.9575189000025,681.9747035999899,e,14.0,1.2446562999975868,1,+10,54,8.826477458717818,1.355479927750011,0.020931266360858514,666077.0,16.64370844580829,-0.07193175216489944,0.12041158791070683,669611.0,,,,,673.1799605479962,669.6459605479962,
23,55,26,f,1,0,15.0,15,2,low,6 + 1 + 7 - 8 - 1,5,4,5,7,683.4912947999983,685.5191926999978,687.0343073999975,692.0529749999987,695.6327983999945,695.632803200002,697.149513700002,698.1668550999893,w,5.0,3.579823399995803,1,+1,55,8.078880623007942,0.45929244794521296,0.024393747663649767,679934.0,16.046231487276874,0.8342796314943479,-0.08117057125536697,683468.0,,,,,687.0369605479962,683.5029605479962,
24,55,26,f,1,0,16.0,16,4,low,2 + 9 - 3 + 5 + 8,21,21,22,23,699.6836583999975,701.7076039999956,703.2229608999914,708.2413259999885,709.6487933999888,709.648798299997,711.1650202000019,712.1822286999959,w,22.0,1.4074674000003142,0,+0,55,-19.87642410217574,0.7313759754370288,0.19905383763018714,696123.0,-21.61310779667865,0.20804698429734625,0.01283952603760663,699656.0,,,,,703.2249605479961,699.6919605479962,
25,55,26,f,1,0,17.0,17,1,low,5 + 1 + 1 + 9 + 1,17,17,16,19,713.6992727999896,715.7273310000019,717.2422999999981,722.2606784999953,723.0568214999948,723.0568269999931,724.5742094000016,725.5914187000017,q,17.0,0.7961429999995744,1,+1,56,-5.466902930961765,0.3098935450541802,0.10987187937230614,710142.0,-27.792130517454492,0.9609849675727471,-0.078125695169728,713675.0,,,,,717.2439605479962,713.7109605479963,
26,55,26,f,1,0,18.0,18,4,low,3 + 8 - 4 + 9 + 6,22,21,22,23,727.1087315999903,729.1337081999955,730.6495217999909,735.6685296999931,739.3208089999971,739.3208142999938,740.8373645999964,741.8540421999933,w,22.0,3.652279300004011,1,+1,57,-21.670724126103394,1.0168866065038662,0.01344150484083495,723548.0,11.17422230243594,1.6435878572149525,0.10450815363318355,727083.0,,,,,730.6519605479962,727.1169605479962,
27,55,26,f,1,0,19.0,19,4,high,7 + 6 + 8 - 4 + 5,22,22,23,21,743.3713231000002,745.3951959999977,746.9103539999924,751.9287429999968,754.1687501999986,754.1687550999923,755.6853930999932,756.702587199994,e,21.0,2.2400072000018554,0,+0,57,13.599002439180769,-0.36796849945428,0.13318440382245567,739810.0,1.6944857511065976,0.5541351909985437,0.18941228051823567,743344.0,,,,,746.9129605479962,743.3789605479961,
28,55,26,f,1,0,20.0,20,1,high,8 + 1 + 5 + 1 + 1,16,17,16,15,758.2193723999953,760.2443627999892,761.7596927999984,766.7783369999961,768.120749499998,768.1207549999963,769.6371868999995,770.6543947000027,w,16.0,1.3424125000019558,1,+10,67,26.324571474587387,0.5412550463973922,0.010237134102684786,754659.0,-30.022463622212182,0.4698424522581188,-0.012745645305150655,758192.0,,,,,761.7609605479962,758.2279605479962,
29,55,26,f,1,0,21.0,21,2,high,5 - 8 + 7 + 1 + 1,6,8,6,7,772.1713154000026,774.1982198999904,775.713393500002,780.7333193999948,784.2727049999958,784.272710099991,785.788904999994,786.8061526999954,q,8.0,3.539385600000969,0,+0,67,8.03599724414239,-0.2242558531115444,0.09034335866254684,768612.0,13.226466296620092,0.440511060141211,0.20343102952882175,772148.0,,,,,775.7169605479962,772.1809605479962,
30,55,26,f,1,0,22.0,22,2,high,7 + 6 + 1 - 1 - 8,5,3,5,4,788.3229923999897,790.3465319999959,791.8617774000013,796.8795096999966,799.4087703999976,799.4087754999928,800.9250713999936,801.9423455999931,q,3.0,2.529260700001032,0,+0,67,17.838352774508422,-0.3532540366733272,-5.598806414937147,784761.0,-26.32867147052415,0.3936015177314962,0.046320664803334965,788295.0,,,,,791.8639605479962,788.3299605479962,
31,55,26,f,1,0,23.0,23,3,low,9 - 1 + 5 - 6 + 8,15,17,14,15,803.4601158000005,805.4882998999965,807.0038816000015,812.0218213999906,814.5767976999923,814.5768031999905,816.0928827999887,817.1099710999988,w,14.0,2.5549763000017265,0,+0,67,9.988998611178332,1.8850602631125728,-0.12355512102626198,799903.0,20.387210179117083,0.8957974101313946,-0.1254608277094591,803436.0,,,,,807.0049605479962,803.4719605479962,
32,55,26,f,1,0,24.0,24,4,high,7 + 8 - 4 + 6 + 5,22,23,22,21,818.626737899991,820.6504864000017,822.1656412000011,827.1838872999942,830.1687383999961,830.1687436999928,831.6852295999997,832.7022950999963,w,22.0,2.9848511000018334,1,+10,77,-4.0290514587491675,-0.08369417195183182,-0.04262660501990023,815065.0,16.11097163050363,0.1109959080001488,-0.05649765554339847,818598.0,,,,,822.1669605479962,818.6339605479963,
33,55,26,f,1,0,25.0,25,3,low,7 - 5 + 9 + 1 - 4,8,9,7,8,834.2192225999897,836.2414073999971,837.7563566000026,842.7746700999996,844.8327808999893,844.8327860999998,846.3491247999918,847.3659866999951,e,8.0,2.058110799989663,1,+1,78,17.52127961492745,-0.15660560883500274,0.2341433219970792,830656.0,-1.5755463176198727,0.0926492121364415,0.23382036181374666,834189.0,,,,,837.7579605479962,834.2249605479961,
34,55,26,f,1,0,26.0,26,3,low,6 - 1 + 7 - 8 + 9,13,12,13,11,848.8827519999904,850.9088446999958,852.424128899991,857.4434257999965,859.9846973999956,859.9847024999908,861.5014856999915,862.5190137999889,w,13.0,2.5412715999991637,1,+1,79,-9.294725796276069,-1.5147375693023521,3.5446519432285815,845323.0,-3.736191469438463,0.7746272562329155,-0.14331943936599068,848857.0,,,,,852.4259605479962,848.8919605479962,
35,55,26,f,1,0,27.0,27,1,high,2 + 9 + 1 + 1 + 1,14,14,13,12,864.0359211999894,866.0612918999977,867.5765438999952,872.5955318999913,875.0486047000013,875.0486106000026,876.5658572999964,877.5835453999898,q,14.0,2.453072800009977,1,+10,89,-25.527933148147465,1.7897523634561407,-1.6154705981433755,860476.0,2.4645453517750244,0.05310695072232097,0.061199943060930906,864010.0,,,,,867.5789605479962,864.0449605479962,
36,55,26,f,1,0,28.0,28,2,high,2 + 9 - 4 + 1 + 1,9,9,11,8,879.1002646999987,881.1268024000019,882.6419872999977,887.6604184000025,889.3446152999968,889.3446205999935,890.8608856999927,891.8774554999982,w,11.0,1.6841968999942765,0,+0,89,-6.389824434273759,0.23723580627276064,-0.020639233322433448,875541.0,7.336894022907281,0.37875639234849245,-0.11796196588517605,879075.0,,,,,882.6439605479962,879.1099605479963,
37,55,26,f,1,0,29.0,29,2,low,9 + 6 + 1 + 7 + 1,24,24,23,25,893.3938819999894,895.4205480999954,896.9358622,901.9539968999889,905.040651999996,905.0406573999936,906.5573729000024,907.5747430999908,w,23.0,3.086655100007192,0,+0,89,11.663072118524509,0.746719879107351,-0.2642190491577052,889835.0,-3.632074988728284,0.5506930944515878,0.024844278810121967,893368.0,,,,,896.9369605479963,893.4039605479962,
38,55,26,f,1,0,30.0,30,2,high,8 + 1 + 9 + 1 - 5,14,14,15,13,909.092080699993,911.1196259999996,912.6348828999908,917.6528146999916,920.712606000001,920.7126113999984,922.229338899997,923.2464927999972,e,13.0,3.0597913000092376,0,+0,89,14.600207269353852,1.2230175232300855,-3.087164132054137,905533.0,6.273296393813753,-0.10627324383067371,-0.122548100583725,909067.0,,,,,912.6359605479962,909.1019605479962,
39,55,26,f,1,0,31.0,31,3,high,3 + 1 + 6 - 8 + 9,11,13,12,11,924.7639895000028,926.7919559000002,928.307006899995,933.3249926999996,934.3045321999962,934.3045372999914,935.8212104999984,936.838327199992,e,11.0,0.9795394999964628,1,+10,99,8.506751048853403,0.2370923737407047,0.004516371464230673,921206.0,-9.031226640472456,0.18222253447957826,0.1233381482758884,924739.0,,,,,928.3079605479962,924.7749605479962,
40,55,26,f,1,0,32.0,32,1,low,8 + 1 + 4 + 1 + 1,15,15,16,14,938.3557718999946,940.3827765000024,941.8981588000024,946.9168492000026,947.5205552999978,947.5205602999922,949.0367352999892,950.0530137999884,q,15.0,0.6037060999951791,1,+1,100,16.091071239124382,-0.6917943981519814,0.167501381300875,934797.0,-31.56169190397765,-1.1307684300489687,0.14340696870534897,938331.0,,,,,941.8999605479962,938.3659605479962,
41,55,26,f,1,0,33.0,33,2,low,6 + 1 + 7 + 5 - 1,18,16,18,17,951.5698895999958,953.5953666999994,955.1106002000016,960.1293879000004,961.7285310000008,961.728536399998,963.244791499994,964.2613579000026,w,18.0,1.5991431000002194,1,+1,101,26.260127770370993,0.7072215597846743,0.14381526371762465,948009.0,-1.513382704996836,0.3990723838613599,0.25527630069729357,951543.0,,,,,955.1119605479962,951.5779605479962,
42,55,26,f,1,0,34.0,34,3,high,6 + 7 + 8 + 1 - 9,13,15,13,14,965.77819669999,967.804600699994,969.319804400002,974.3384166999896,977.968461299999,977.9684661999928,979.4847481999896,980.5020409999996,w,13.0,3.630044600009569,1,+10,111,5.087641401860285,0.17893508658603796,0.061532789972591484,962218.0,11.311088564572849,0.8456485123643622,-0.013664201627368922,965752.0,,,,,969.3209605479962,965.7869605479962,
43,55,26,f,1,0,35.0,35,1,high,6 + 9 + 1 + 1 - 1,16,15,14,16,982.0189329999994,984.0417173000023,985.557624299996,990.5755707999924,991.384514499994,991.3845194999884,992.9013438999972,993.9186289999924,e,16.0,0.8089437000016915,1,+10,121,-8.92633610877824,0.5370311039426205,0.1628585422339257,978456.0,-4.878805095921846,0.90274953887329,-0.14437449059424434,981990.0,,,,,985.5589605479962,982.0249605479962,
44,55,26,f,1,0,36.0,36,3,high,8 + 5 + 1 - 7 + 9,16,16,14,17,995.4354599999932,997.4589287999988,998.9738429999998,1003.99249579999,1006.5206609000016,1006.520665899996,1008.0373913999938,1009.0545063999888,w,14.0,2.5281651000113925,0,+0,121,0.5251699070808744,0.27671332635145074,0.07652649955086543,991873.0,24.278113309115014,0.1412512034756066,0.047109910152259626,995406.0,,,,,998.9749605479961,995.4419605479962,
45,55,26,f,1,0,37.0,37,4,high,9 + 3 - 5 + 8 + 6,21,19,21,23,1010.5712140999968,1012.5940669999982,1014.1095550999888,1019.1277370000024,1022.4406021999894,1022.4406083999928,1023.9572008999968,1024.974826099991,w,21.0,3.3128651999868453,1,+10,131,-3.3644046481311722,-0.6261047872899788,0.012427518439407592,1007008.0,-49.90613216212179,-0.5408062248998622,-0.11802959415002334,1010542.0,,,,,1014.1109605479962,1010.5769605479962,
46,55,26,f,1,1,38.0,0,2,low,9 + 4 + 5 + 1 - 1,18,17,18,19,1091.5647108999983,1093.5938334999955,1095.1086679,1100.1279145000008,1102.0163673999923,1102.0163728999903,1103.5336887000012,1104.5507877999917,w,18.0,1.8884528999915349,1,+1,132,17.736393343780136,-0.40881386809530973,-3.057975377064065,1088007.0,-18.75498007362213,-0.0891294405339611,0.13891795050959677,1091541.0,,,,,1095.109960547996,1091.5759605479961,
47,55,26,f,1,1,39.0,1,1,high,4 + 1 + 1 + 7 - 1,12,12,14,13,1106.0680602999928,1108.096029399996,1109.6115008999914,1114.6319080999965,1116.4885081999964,1116.4885133999924,1118.0059681999992,1119.0239672999887,w,14.0,1.8566000999999237,0,+0,132,-0.19186319882518887,-0.991381857618518,0.07987356844225624,1102509.0,12.734840205805744,0.026463650644583225,0.10646926566590675,1106045.0,,,,,1109.6139605479962,1106.077960547996,
48,55,26,f,1,1,40.0,2,4,high,2 + 9 - 6 + 8 - 4,9,7,11,9,1120.5416160000025,1122.5644514000014,1124.0797729999904,1129.0977188999968,1131.72840729999,1131.7284125000006,1133.2454111999978,1134.2625550999946,q,7.0,2.6306883999932325,0,+0,132,30.07797430588244,1.1552102102230597,4.618665272420521,1116978.0,-0.574325926080899,0.21708794129018028,1.6373382024894791,1120511.0,,,,,1124.079960547996,1120.5469605479962,
49,55,26,f,1,1,41.0,3,2,low,3 + 8 - 5 + 1 + 1,8,6,8,9,1135.7794863000015,1137.805711299996,1139.3206805999944,1144.3389004999915,1146.2963082999922,1146.2963133000012,1147.812607999993,1148.8299541000015,w,8.0,1.9574078000005104,1,+1,133,8.99085678343662,0.2604391154476584,-0.1061925935421435,1132219.0,-2.5321039913844015,1.013403181739311,0.1325988770409876,1135752.0,,,,,1139.320960547996,1135.7879605479961,
50,55,26,f,1,1,42.0,4,1,high,3 + 1 + 1 + 8 - 1,12,12,14,13,1150.34753069999,1152.374397499996,1153.8897385000018,1158.9079679999995,1161.7283285000012,1161.7283338999987,1163.2443422999931,1164.2615418999922,e,13.0,2.820360500001698,0,+0,133,15.547552584350932,0.7133533409519668,0.1560085703707761,1146788.0,6.721858725306792,0.054144361722205936,0.03133314617286276,1150321.0,,,,,1153.889960547996,1150.356960547996,
51,55,26,f,1,1,43.0,5,1,low,7 + 1 + 4 + 1 - 1,12,12,11,13,1165.7783382999914,1167.805210599996,1169.3205780999997,1174.3391450999916,1175.69631449999,1175.6963193999982,1177.2124970000004,1178.2294433999923,q,12.0,1.3571693999983836,1,+1,134,-13.694529215306542,0.2406260560014939,-4.394199618950713,1162219.0,35.907655843912124,-0.15021206884588523,-0.11214707185826644,1165752.0,,,,,1169.320960547996,1165.7879605479961,
52,55,26,f,1,1,44.0,6,2,low,7 + 1 + 9 - 1 - 8,8,6,7,8,1179.746394299989,1181.77367889999,1183.2887141999963,1188.3072334999888,1189.1844077999997,1189.184412799994,1190.700914000001,1191.7177359999914,e,8.0,0.8771743000106653,1,+1,135,1.3980042275044227,0.22000743672461898,0.014192691160193727,1176187.0,-8.540891765217513,-0.6123937760700944,-0.10478877460657854,1179720.0,,,,,1183.288960547996,1179.755960547996,
53,55,26,f,1,1,45.0,7,2,low,2 + 9 + 1 + 1 - 5,8,8,7,6,1193.2343553999965,1195.2580342,1196.7733848999924,1201.7927737999998,1205.2003345999983,1205.200340299998,1206.7164746999915,1207.7333038999932,q,8.0,3.407560799998464,1,+1,136,8.558461542408306,-0.3322055482953763,0.09529506500958074,1189671.0,7.8492369253462755,0.47217426020463993,0.12318600617556297,1193206.0,,,,,1196.774960547996,1193.2399605479961,
54,55,26,f,1,1,46.0,8,1,low,8 + 1 + 1 + 1 - 4,7,7,5,8,1209.2500850999932,1211.2771592999925,1212.792508899991,1217.8114570999896,1222.224342699992,1222.2243481999903,1223.7408910999948,1224.757826599991,q,7.0,4.4128856000024825,1,+1,137,-5.654440373712863,0.013514771618762467,-0.09421835620732999,1205690.0,-3.4787360057743726,1.0515667214287454,-0.006273035265653482,1209225.0,,,,,1212.793960547996,1209.2589605479961,
55,55,26,f,1,1,47.0,9,4,low,3 + 8 - 4 + 9 + 7,23,24,23,22,1226.2746563999972,1228.3018369999918,1229.8169117999932,1234.8353026999976,1237.952281299993,1237.952286499989,1239.4688555999892,1240.4860317999992,e,22.0,3.116978599995491,0,+0,137,-38.75073052201874,-0.19693251614321738,0.18422207314357664,1222715.0,-25.684911743792437,1.493598721692095,0.004489488918246298,1226249.0,,,,,1229.817960547996,1226.283960547996,
56,55,26,f,1,1,48.0,10,4,low,5 + 7 - 4 - 6 + 9,11,11,12,13,1242.0026003999956,1244.0273556999891,1245.5427089000004,1250.5612604999917,1252.5603012999927,1252.5603064000024,1254.0765541,1255.093780999989,w,12.0,1.9990408000012396,0,+0,137,-13.572761226730375,0.2229872688397334,0.1058335065368965,1238440.0,17.614033803535534,0.9520506378472691,-1.288424083054422,1241974.0,,,,,1245.542960547996,1242.0089605479961,
57,55,26,f,1,1,49.0,11,1,low,3 + 1 + 8 + 1 + 1,14,14,16,13,1256.6108633999977,1258.637493599992,1260.1526719999963,1265.1707859000016,1265.8962542999943,1265.8962596999918,1267.4128704999894,1268.429755899997,q,14.0,0.7254683999926783,1,+1,138,7.058793644572045,0.03272725092624018,-5.072376652209976,1253050.0,-8.635661064861356,-0.39162823894152776,-0.1968317820396246,1256584.0,,,,,1260.1529605479961,1256.618960547996,
58,55,26,f,1,1,50.0,12,3,low,7 + 1 + 9 + 5 - 6,16,16,14,15,1269.9464709000022,1271.9736209999974,1273.4887990999996,1278.5075877999916,1280.4721860999998,1280.4721909999937,1281.9890352999937,1283.0061372999917,w,14.0,1.96459830000822,0,+0,138,-10.73790522168412,0.552976774577246,-0.10207252425307356,1266387.0,-6.6498228504164345,0.4188740639440036,0.21430292897761816,1269920.0,,,,,1273.4889605479962,1269.955960547996,
59,55,26,f,1,1,51.0,13,4,low,6 + 9 - 7 + 8 - 5,11,11,13,12,1284.5227922999911,1286.5499597000016,1288.0651821999927,1293.0839596000003,1295.2881884999952,1295.2881933999888,1296.8055760999996,1297.8224361999892,w,13.0,2.204228899994632,0,+0,138,-1.3648827045012961,1.4279790511828168,0.004946226714937829,1280963.0,-20.16223704105714,0.9913142739831615,0.007810692935642738,1284497.0,,,,,1288.0659605479962,1284.531960547996,
60,55,26,f,1,1,52.0,14,4,low,3 + 9 - 5 + 6 + 8,21,22,23,21,1299.3392282999994,1301.3625870999967,1302.8774446000025,1307.8955576000008,1309.7442134000012,1309.744218699998,1311.26088419999,1312.278150400001,w,23.0,1.8486558000004152,0,+0,138,-29.034180345717406,1.4056719509391842,-0.16734677067311798,1295776.0,-0.8109970379442792,0.293630004312047,0.041745079329336576,1299308.0,,,,,1302.876960547996,1299.3449605479962,
61,55,26,f,1,1,53.0,15,3,low,3 + 1 + 8 - 5 + 9,16,16,15,17,1313.79493009999,1315.8211183999956,1317.3363845999993,1322.354780900001,1325.8241235999883,1325.8241293000028,1327.340908099999,1328.3581753999897,w,15.0,3.4693426999874646,0,+0,138,-5.691582416650674,-0.500400479002769,0.023415013657911654,1310234.0,-55.178919369052494,-0.47870634004912826,0.0720706927245951,1313767.0,,,,,1317.3359605479961,1313.802960547996,
62,55,26,f,1,1,54.0,16,3,high,6 - 1 + 7 - 8 + 9,13,11,13,12,1329.8750863999885,1331.9015617999976,1333.4160959,1338.435024499995,1341.9601981000014,1341.9602032999974,1343.4773805000004,1344.4949718999997,w,13.0,3.525173600006383,1,+10,148,-18.64050888061374,0.093126157375921,-0.03311444759828985,1326313.0,31.499827144307034,0.4805443664962441,0.07508065541200715,1329847.0,,,,,1333.415960547996,1329.8819605479962,
63,55,26,f,1,1,55.0,17,4,high,8 + 3 - 4 + 5 + 9,21,21,22,23,1346.0116960000014,1348.0385392999888,1349.554416899991,1354.5736649000028,1357.1841609999974,1357.184166299994,1358.7005115999928,1359.717728299991,e,23.0,2.6104960999946343,0,+0,148,4.194445012580539,0.5398193325044955,0.15964772648566283,1342451.0,16.355555743176737,0.6216406516579198,-0.13627577511332367,1345986.0,,,,,1349.5549605479962,1346.019960547996,
64,55,26,f,1,1,56.0,18,1,low,2 + 9 + 1 + 1 + 1,14,14,12,13,1361.234557499993,1363.260173399991,1364.7754153999997,1369.794017799999,1370.368052299993,1370.3680577999912,1371.8842162999936,1372.9012032000028,q,14.0,0.5740344999940135,1,+1,149,15.537383604478865,0.9099194731535878,0.2725205143777232,1357673.0,4.8071416708543,0.1857865804718868,-0.006495943038936414,1361206.0,,,,,1364.774960547996,1361.241960547996,
65,55,26,f,1,1,57.0,19,1,low,7 + 1 + 6 + 1 + 1,16,18,16,17,1374.4178804999974,1376.4396066999907,1377.9549514999962,1382.9727772999904,1383.760167200002,1383.7601725999994,1385.2768053999898,1386.2937173999962,w,16.0,0.7873899000114761,1,+1,150,-36.984479044438835,0.793227546703906,-0.11364370476399355,1370852.0,12.825331179034158,0.10208757955788794,0.14249111199834985,1374385.0,,,,,1377.953960547996,1374.4209605479962,
66,55,26,f,1,1,58.0,20,4,high,7 + 6 - 4 + 9 - 5,13,13,14,12,1387.8102900999947,1389.8441027999943,1391.3593600000022,1396.37886289999,1399.6881366000016,1399.6881420999998,1401.2045319000026,1402.2213496999902,e,12.0,3.309273700011545,0,+0,150,4.317071977648201,0.418968681477228,0.1369134937913037,1384257.0,-0.9398242070467564,0.21447145264322298,-0.07393410242975396,1387791.0,,,,,1391.359960547996,1387.8259605479961,
67,55,26,f,1,1,59.0,21,4,high,4 + 7 + 8 - 3 + 9,25,25,26,24,1403.737884999995,1405.7616439999983,1407.277010699996,1412.2974135999975,1414.4159988000029,1414.416003899998,1415.9322829000012,1416.9494771000027,w,26.0,2.118585200005328,0,+0,150,9.406093460941054,-0.3488246235503345,0.016415403622499714,1400174.0,-4.970404409647806,1.0707056138005742,0.229950852119845,1403710.0,,,,,1407.2789605479961,1403.742960547996,
68,55,26,f,1,1,60.0,22,4,low,8 + 5 - 4 + 7 + 9,25,26,25,24,1418.4663188999984,1420.4925434999896,1422.007774400001,1427.0259034999908,1429.0720236999914,1429.0720288000011,1430.5880505999958,1431.6056654999993,w,25.0,2.046120200000587,1,+1,151,20.94160917430731,-1.631482502239722,-5.422129632180785,1414905.0,45.44032444916196,0.44557379419429033,0.13415904951667845,1418439.0,,,,,1422.0079605479962,1418.473960547996,
69,55,26,f,1,1,61.0,23,3,high,3 + 8 - 7 + 1 + 9,14,14,13,12,1433.1232280999975,1435.1496667000029,1436.6647920999967,1441.683132899998,1442.368078200001,1442.3680834999975,1443.8842241999955,1444.9011115999892,q,14.0,0.6849453000031644,1,+10,161,10.150597484796645,0.3040460588277165,-10.357786367720433,1429563.0,-5.599950147110082,0.253155522461471,0.00037559050773916525,1433096.0,,,,,1436.664960547996,1433.1319605479962,
70,55,26,f,1,1,62.0,24,2,low,6 + 1 + 8 + 5 - 1,19,19,18,17,1446.417943399996,1448.4440868999957,1449.9594816999888,1454.9775058999949,1457.0880907999965,1457.0880957999907,1458.6047752000013,1459.621507399992,q,19.0,2.110584900001413,1,+1,162,2.0441629553684897,1.358462194152085,0.020753204047389673,1442857.0,-3.4902782664569862,-0.040299176133579806,0.11720770917389878,1446390.0,,,,,1449.9589605479962,1446.425960547996,
71,55,26,f,1,1,63.0,25,1,low,2 + 1 + 9 + 1 + 1,14,14,12,13,1461.137948699994,1463.1648415999953,1464.6800894999906,1469.6981031999894,1470.247986699993,1470.2479920999904,1471.7645052000007,1472.7811080999963,q,14.0,0.5498835000034887,1,+1,163,4.46474628824631,-0.7508341871891169,0.17424030716621708,1457577.0,10.857961841256369,-1.0822299849670625,0.19554254667889848,1461110.0,,,,,1464.678960547996,1461.145960547996,
72,55,26,f,1,1,64.0,26,4,low,7 + 6 - 9 + 8 - 3,9,7,8,9,1474.2978994000005,1476.3247697999905,1477.840035999994,1482.8584934999965,1484.376071599996,1484.3760772999958,1485.8926308999944,1486.9097387999936,w,8.0,1.5175780999998096,0,+0,163,-33.04168262955075,0.19729479806162686,0.11741069222238654,1470737.0,16.032820004628796,0.568423365837547,0.052078452340277526,1474271.0,,,,,1477.839960547996,1474.3059605479962,
73,55,26,f,1,1,65.0,27,2,low,8 + 1 + 4 - 7 + 1,7,7,5,6,1488.4269512000028,1490.4540368000016,1491.9700852999958,1496.988970099992,1500.127963699997,1500.1279690999943,1501.6440844999888,1502.6617219999898,q,7.0,3.138993600005051,1,+1,164,9.727152665915662,0.6256667644000213,0.4966192142218113,1484866.0,4.056362745942435,0.6863170190105343,-1.2704320660725381,1488401.0,,,,,1491.9699605479962,1488.434960547996,
74,55,26,f,1,1,66.0,28,1,low,9 + 8 + 1 + 1 - 1,18,18,17,20,1504.178599699997,1506.2010774999944,1507.7164342999895,1512.7347500999897,1513.199926100002,1513.1999310999963,1514.716071699993,1515.7329899999895,q,18.0,0.4651760000124341,1,+1,165,-20.33440526119349,-0.3298375018781501,0.11651879936386811,1500614.0,5.259504155583173,0.5472882288456997,0.0274499192314015,1504147.0,,,,,1507.715960547996,1504.1829605479961,
75,55,26,f,1,1,67.0,29,4,high,8 + 4 + 7 - 5 - 6,8,6,9,8,1517.2498564999987,1519.2755618999945,1520.7910189999966,1525.8096779999903,1529.327959999995,1529.3279656999948,1530.8446953999955,1531.861917599992,w,9.0,3.5182820000045467,0,+0,165,-3.173993529662262,0.8440953790015042,-0.08512698944028729,1513688.0,30.585998409050962,-0.5615060763156183,0.1872291808764217,1517222.0,,,,,1520.790960547996,1517.2569605479962,
76,55,26,f,1,1,68.0,30,3,low,2 - 4 + 9 + 7 + 1,15,16,15,13,1533.3788917999918,1535.401789099997,1536.917060199994,1541.93569079999,1544.9680017999926,1544.9680069999886,1546.4846707999968,1547.501355799992,w,15.0,3.0323110000026645,1,+1,166,-27.437415955738,0.7129658163228383,0.04764741098014147,1529814.0,-11.738040883702304,-0.48845527301071634,0.07094808598934321,1533348.0,,,,,1536.916960547996,1533.3829605479962,
77,55,26,f,1,1,69.0,31,4,low,5 + 7 - 4 + 8 + 6,22,23,22,24,1549.018200999999,1551.0420432999963,1552.5576184999954,1557.576909199997,1561.9358769999965,1561.935881999991,1563.452088799997,1564.4693695999886,e,24.0,4.358967799998936,0,+0,166,4.921569005283786,-0.16830663427901094,0.41681722589579495,1545454.0,2.81791087242296,0.5826922969976405,0.15846708296652423,1548988.0,,,,,1552.5569605479961,1549.022960547996,
78,55,26,f,1,1,70.0,32,3,low,8 + 6 - 7 + 1 - 4,4,4,5,3,1565.9869041999918,1568.0137931999925,1569.5298630999896,1574.5485581999965,1577.6559611999985,1577.6559666999965,1579.1725713999913,1580.1890829999902,q,4.0,3.107403000001796,1,+1,167,-3.8413057613632553,0.5415192376424889,0.2060754319030762,1562426.0,-27.42835397024663,-0.8192874561139449,-0.0230866064182913,1565961.0,,,,,1569.529960547996,1565.994960547996,
79,55,26,f,1,1,71.0,33,2,low,3 + 9 - 1 - 5 + 1,7,6,7,5,1581.7058879999968,1583.7330052999896,1585.2482001999888,1590.2666536999895,1592.4318435000023,1592.4318486999982,1593.9485404000006,1594.9656128999925,w,7.0,2.1651898000127403,1,+1,168,13.132570942601983,0.7048531407343557,0.20478309900476166,1578145.0,-13.836020804255943,0.6663139275714096,0.12831425827174714,1581679.0,,,,,1585.2479605479962,1581.713960547996,
80,55,26,f,1,1,72.0,34,1,low,7 - 1 + 8 + 1 - 1,14,14,12,13,1596.4821415999904,1598.509942699995,1600.0251528999945,1605.0439324999898,1605.9438566999888,1605.943862,1607.4606575999933,1608.4774838000012,q,14.0,0.8999241999990772,1,+1,169,-33.95130390348065,0.8141260706822928,0.28991439453043144,1592922.0,30.669710992804198,0.05110569959040312,6.164587950608993,1596456.0,,,,,1600.024960547996,1596.490960547996,
81,55,26,f,1,1,73.0,35,3,high,5 + 7 + 1 - 4 + 6,15,15,17,13,1609.9941454999937,1612.0204834999895,1613.5356879000028,1618.5555022999906,1623.5718421999918,1623.5718446999963,1625.0885423,1626.1071497999949,,,,0,Too Slow!,169,21.490269047762087,0.4632663773547234,0.053357023715224994,1606432.0,16.796782066901123,0.2174380772875928,0.08350360072593999,1609967.0,,,,,1613.5359605479962,1610.000960547996,
82,55,26,f,1,1,74.0,36,4,low,3 + 8 - 7 + 9 - 5,8,9,7,8,1627.623676499992,1629.6482044000004,1631.1635286999954,1636.182250400001,1637.199789199993,1637.19979459999,1638.7160754999932,1639.7328815999936,e,8.0,1.0175387999915984,1,+1,170,3.7828843903141696,-0.4289852141496233,-0.019225387110461956,1624060.0,-5.939998942356192,0.6519934269693817,0.09308412062424587,1627594.0,,,,,1631.1629605479961,1627.628960547996,
83,55,26,f,1,1,75.0,37,3,low,2 + 1 + 9 - 7 + 6,11,13,11,12,1641.2495990000025,1643.274756999992,1644.789811099996,1649.8082981999903,1650.4798314999937,1650.4798364000017,1651.9959916999942,1653.01286599999,w,11.0,0.6715333000029204,1,+1,171,11.127210339106487,0.05579940291789587,0.056299803937478465,1637687.0,14.922896928040377,0.15543292068105963,0.09216605070695616,1641220.0,,,,,1644.788960547996,1641.255960547996,
84,55,26,f,1,2,76.0,0,2,low,9 + 5 - 6 + 1 - 1,8,7,8,9,1710.3673689999996,1712.3931685999996,1713.908414599995,1718.9275113999902,1719.5117508999974,1719.511755799991,1721.0280790999968,1722.0450683999952,w,8.0,0.5842395000072429,1,+1,172,6.960169876352648,1.1195902364292518,0.3049415084884224,1706805.0,10.736942510377638,0.8428368787166427,-0.030613970157898684,1710339.0,,,,,1713.907960547996,1710.3739605479961,
85,55,26,f,1,2,77.0,1,3,low,7 - 1 + 8 - 6 + 4,12,13,11,12,1723.561559499998,1725.5872636999993,1727.1021600999957,1732.120615699998,1733.823836999989,1733.8238426000023,1735.3405132999906,1736.3573898999894,e,12.0,1.703221299991128,1,+1,173,36.140766570573916,-0.39566452762761717,-0.055888484843565234,1719999.0,9.46749073255663,0.8244523869952483,0.10156815407523645,1723532.0,,,,,1727.100960547996,1723.567960547996,
86,55,26,f,1,2,78.0,2,4,low,5 + 7 - 4 - 6 + 9,11,13,11,12,1737.874592799999,1739.900722899998,1741.416026699997,1746.43648199999,1747.207733999996,1747.2077393999934,1748.7240710999904,1749.7409625,w,11.0,0.7712520000059158,1,+1,174,-18.133783797577095,0.12619783357088465,1.3344919597953124,1734312.0,3.9787072604426967,0.3913561073417702,-0.08618960002297227,1737848.0,,,,,1741.416960547996,1737.880960547996,
87,55,26,f,1,2,79.0,3,3,low,3 + 8 - 7 - 1 + 9,12,13,14,12,1751.2578049000003,1753.284666399995,1754.799586299996,1759.8184964999964,1760.5597845000011,1760.5597895999963,1762.0760099999898,1763.0928212,e,12.0,0.7412880000047153,1,+1,175,28.428873385703312,0.37801798405665377,-0.06273462997913803,1747697.0,-26.678674343024102,0.6295511301494532,0.22736146402029256,1751230.0,,,,,1754.798960547996,1751.265960547996,
88,55,26,f,1,2,80.0,4,4,low,6 + 5 - 7 + 8 - 9,3,4,5,3,1764.6095413000005,1766.636698199989,1768.1519376999931,1773.1705250999948,1775.6637647000025,1775.6637699999992,1777.1798114999983,1778.1964968999964,e,3.0,2.493239600007655,1,+1,176,0.8659171830198495,0.31557473208341325,-0.0606703058658038,1761048.0,1.7911581858331536,0.5473232776494914,-0.12647837567110143,1764582.0,,,,,1768.1509605479962,1764.616960547996,
89,55,26,f,1,2,81.0,5,3,low,8 + 4 + 1 - 7 + 9,15,13,16,15,1779.7125511999911,1781.7397401999915,1783.2549252000026,1788.2735047000024,1789.3757473000005,1789.3757532000018,1790.8924434999935,1791.9090232000017,e,15.0,1.1022425999981351,1,+1,177,-11.145935793818296,0.6866178088533532,-0.09172036137529682,1776151.0,-8.232569362774623,0.4585735016995667,0.0572657633224285,1779685.0,,,,,1783.253960547996,1779.7199605479962,
90,55,26,f,1,2,82.0,6,4,low,7 + 8 - 4 + 6 - 5,12,13,11,12,1793.4258839999966,1795.4526713999949,1796.96845819999,1801.9868076999992,1803.0157330999937,1803.0157386999929,1804.532245499999,1805.5496207999968,e,12.0,1.0289253999944776,1,+1,178,13.97242200397911,0.8322505005580485,0.18410342589508621,1789864.0,14.897276863671397,0.8448559824478723,0.01549577201953678,1793398.0,,,,,1796.966960547996,1793.4329605479961,
91,55,26,f,1,2,83.0,7,1,high,5 + 6 + 1 + 1 + 1,14,14,13,16,1807.0663799999893,1809.092386599994,1810.6076588,1815.625806899989,1816.447592899989,1816.4475977999973,1817.963855599999,1818.9813809999905,q,14.0,0.8217860000004293,1,+10,188,6.217883002795666,-0.05640109787436742,0.026566535212580344,1803504.0,3.816454078649916,-0.9860053168549188,0.20133479509875585,1807037.0,,,,,1810.6059605479961,1807.072960547996,
92,55,26,f,1,2,84.0,8,4,low,6 + 9 + 7 - 3 - 5,14,14,13,12,1820.4978370000024,1822.5239224999968,1824.039278700002,1829.0578577999984,1829.735648899994,1829.7356542999917,1831.2519909999971,1832.2687015999984,q,14.0,0.6777910999953747,1,+1,189,14.545371408120424,0.5923699025629094,-0.00040049418508880663,1816935.0,17.54913127117306,0.0898443654068668,0.17506082249990707,1820469.0,,,,,1824.0379605479961,1820.503960547996,
93,55,26,f,1,2,85.0,9,3,low,9 + 3 - 4 + 6 + 7,21,23,21,22,1833.7853244,1835.8101250999896,1837.3253827000008,1842.345434399991,1845.439672199995,1845.439677699993,1846.9559397999983,1847.9731748999911,q,23.0,3.0942378000036115,0,+0,189,17.37358286131135,-0.0757489189626872,-0.014255397809916026,1830221.0,2.2874134469691363,0.04600033136344006,0.16790569065557004,1833757.0,,,,,1837.3259605479961,1833.789960547996,
94,55,26,f,1,2,86.0,10,1,high,8 - 1 + 1 + 6 + 1,15,16,14,15,1849.4899675999916,1851.5164657999997,1853.0320127000011,1858.0500453999996,1858.7516781000013,1858.751683800001,1860.268031200001,1861.2852331999893,e,15.0,0.7016327000019373,1,+10,199,-25.756316455431097,-0.08467006227950957,-0.32484487092491277,1845928.0,26.06913766523418,0.6557747022221561,-0.0777339373299557,1849461.0,,,,,1853.029960547996,1849.4969605479962,
95,55,26,f,1,2,87.0,11,4,low,3 + 9 - 5 + 8 - 7,8,9,8,7,1862.8029008000008,1864.8302314999887,1866.3454317,1871.365674799992,1872.223643699996,1872.2236495999969,1873.740283499996,1874.7572037999928,w,8.0,0.8579689000034705,1,+1,200,-20.207246523996556,1.2828695049781453,0.1031857037373376,1859241.0,14.006174729724332,-0.3850391548721639,0.2732377026655106,1862777.0,,,,,1866.3459605479961,1862.809960547996,
96,55,26,f,1,2,88.0,12,2,high,4 + 9 - 7 + 1 - 1,6,8,5,6,1876.2737898999912,1878.298659699998,1879.8139677,1884.832562800002,1885.5355729000005,1885.535577899995,1887.0517391999888,1888.069736199992,e,6.0,0.7030100999982096,1,+10,210,-13.95814961918472,0.4747182729343322,0.13272234811788142,1872710.0,6.513187625155447,0.4049949798052097,0.09504522382160951,1876244.0,,,,,1879.812960547996,1876.2789605479961,
97,55,26,f,1,2,89.0,13,1,low,4 + 9 + 1 - 1 - 1,12,12,11,13,1889.5867252000023,1891.6127583999917,1893.127986499996,1898.1459696999957,1901.463587899998,1901.463592999993,1902.980085099989,1903.9973521999927,w,11.0,3.317618200002471,0,+0,210,-45.087170972517846,0.5929697325662193,0.06525527935470032,1886024.0,20.089821805258282,0.37058237941892536,-0.014038321539946885,1889557.0,,,,,1893.125960547996,1889.592960547996,
98,55,26,f,1,2,90.0,14,1,high,3 + 1 + 8 + 1 + 1,14,14,12,13,1905.5141748000024,1907.539416,1909.0539594,1914.0719467000015,1914.6556341999967,1914.6556393999929,1916.1718330000003,1917.1890887999907,q,14.0,0.5836874999949941,1,+10,220,-29.267521324642388,-1.583320856958113,2.9818928200491754,1901950.0,-28.634777471682206,0.2605955600028338,0.0985661854157831,1905483.0,,,,,1909.051960547996,1905.5189605479961,
99,55,26,f,1,2,91.0,15,3,high,3 + 8 + 1 + 5 - 9,8,9,7,8,1918.7058555999972,1920.731369999994,1922.2466763999985,1927.2640143999888,1929.3674955000024,1929.3675006999983,1930.8836155999888,1931.900890399993,e,8.0,2.103481100013596,1,+10,230,19.933993814942564,0.8520691395253399,-0.019415082164121245,1915142.0,5.528414896945007,0.3414488135442886,-0.06710646995261849,1918676.0,,,,,1922.244960547996,1918.7109605479961,
100,55,26,f,1,2,92.0,16,4,high,5 + 8 - 6 + 7 + 4,18,18,19,17,1933.4175441999976,1935.4420087999897,1936.956997000001,1941.9774301,1943.383625100003,1943.383630700002,1944.9000216999996,1945.917131299997,q,18.0,1.4061950000032084,1,+10,240,23.661315219826264,0.6323178326373347,-1.1858209106477156,1929853.0,-12.633928061850119,0.27517977587118736,0.0431757893259892,1933388.0,,,,,1936.956960547996,1933.4219605479962,
101,55,26,f,1,2,93.0,17,1,high,5 + 8 - 1 + 1 + 1,14,14,12,16,1947.4338766,1949.4600590999908,1950.975354199996,1955.9938934999957,1958.9355224000028,1958.935527900001,1960.4524868000008,1961.46971569999,q,14.0,2.941628900007345,1,+10,250,-4.453244633794677,-1.0177454759479767,0.49064190117321616,1943871.0,2.171594723019446,0.04407622825541502,0.12004551198280211,1947404.0,,,,,1950.972960547996,1947.4399605479962,
102,55,26,f,1,2,94.0,18,2,high,5 + 9 - 8 + 1 + 1,8,8,9,7,1962.9868121999896,1965.014223399994,1966.5293362999944,1971.5474837999936,1972.151489099997,1972.151494299993,1973.667982400002,1974.6851327999905,q,8.0,0.6040053000033367,1,+10,260,-26.806945249179634,0.13604776379056904,-5.591468235169336,1959425.0,19.326831119213658,-0.1936941691891345,0.007353395759285064,1962958.0,,,,,1966.5269605479962,1962.993960547996,
103,55,26,f,1,2,95.0,19,4,low,2 + 9 - 4 + 8 + 7,22,21,22,23,1976.2019677999924,1978.2243000000017,1979.739573999992,1984.7579448999893,1986.7195576999948,1986.719563099992,1988.2361520999984,1989.2533594999984,q,21.0,1.9616128000052413,0,+0,260,-3.74487742105765,0.02606575471818484,-0.00017943095138317489,1972635.0,-33.3260006791184,0.6648921081646666,0.8216813214841836,1976169.0,,,,,1979.7379605479962,1976.203960547996,
104,55,26,f,1,2,96.0,20,3,high,7 - 1 + 8 - 6 + 4,12,11,13,12,1990.7700208999888,1992.796988999995,1994.3120776,1999.3301154999936,2000.151483900001,2000.1514892999985,2001.6680357000005,2002.6853573999977,e,12.0,0.8213684000074863,1,+10,270,-7.036548734893877,0.1118926784170915,-0.15463889370682526,1987208.0,24.58440069716675,-0.221651202181242,-0.1291207919603088,1990741.0,,,,,1994.309960547996,1990.7769605479962,
105,55,26,f,1,2,97.0,21,2,high,7 + 6 + 1 + 8 + 1,23,21,22,23,2004.2021843999971,2006.2281546000013,2007.743356499996,2012.762775999989,2015.4314414999967,2015.431447199997,2016.9479654000024,2017.9650079999992,e,23.0,2.668665500008501,1,+10,280,-6.649390406141328,0.6137030894665685,-0.5824261487094975,2000639.0,32.13930113596021,0.27763662626600993,-0.06419308032526283,2004174.0,,,,,2007.742960547996,2004.207960547996,
106,55,26,f,1,2,98.0,22,1,high,6 + 1 + 1 + 9 - 1,16,14,16,15,2019.4817078999915,2021.5072212999949,2023.022595699993,2028.0418302999897,2028.7594137999984,2028.759419599999,2030.2759657999995,2031.293027499996,w,16.0,0.7175835000089137,1,+10,290,5.996212607705556,0.11736392487527514,-0.4268121565312888,2015918.0,4.3245481921383195,0.44467081622573357,0.1012036164576382,2019452.0,,,,,2023.020960547996,2019.486960547996,
107,55,26,f,1,2,99.0,23,3,low,5 + 6 - 4 - 1 + 7,13,15,14,13,2032.810150899997,2034.8339968999933,2036.349554100001,2041.3700159,2043.0954391999985,2043.095444199993,2044.6124113999977,2045.6295632999968,e,13.0,1.7254232999985106,1,+1,291,17.084386657639858,0.1588437932284954,-0.02586351820034838,2029245.0,15.899604064310068,-0.8813426420574055,-0.014163207342702488,2032781.0,,,,,2036.349960547996,2032.813960547996,
108,55,26,f,1,2,100.0,24,4,low,3 + 9 - 4 + 7 + 6,21,21,20,19,2047.1461752999892,2049.17272219999,2050.688611699996,2055.707286799996,2058.975390099993,2058.9753954999906,2060.4916433999897,2061.5089061999897,e,19.0,3.268103299997165,0,+0,291,-38.72849061959053,0.3317950489366748,-0.015188316860272444,2043582.0,19.143860451742928,0.7673330208772215,0.13472343742914017,2047118.0,,,,,2050.686960547996,2047.1509605479962,
109,55,26,f,1,2,101.0,25,2,low,8 + 1 + 1 + 9 - 4,15,15,16,14,2063.0255684000003,2065.0491459999903,2066.5644245000003,2071.582448399989,2072.071377799992,2072.0713827,2073.5882404000004,2074.604989799991,q,15.0,0.4889294000022346,1,+1,292,-28.17938025771653,0.1023038009924182,0.47523781156415,2059459.0,16.91623652199214,0.7755534292816506,-1.3677606349809706,2062993.0,,,,,2066.561960547996,2063.027960547996,
110,55,26,f,1,2,102.0,26,4,high,6 + 9 + 7 - 3 - 5,14,15,14,13,2076.1431808999914,2078.1710839000007,2079.686388000002,2084.7064882999985,2085.8635090000025,2085.863514299999,2087.3801288999966,2088.3972686999914,w,14.0,1.1570207000040682,1,+10,302,10.251852813640575,0.17738314401554778,0.08841679743312447,2072581.0,-3.077062993414886,0.3117655121362981,0.18948613131099212,2076117.0,,,,,2079.6859605479963,2076.149960547996,
111,55,26,f,1,2,103.0,27,3,high,4 + 8 - 9 + 1 + 7,11,9,11,13,2089.9139541999903,2091.9360577999905,2093.451411999995,2098.4701146000007,2101.0634462000016,2101.063451599999,2102.580225999991,2103.597611499994,e,13.0,2.5933316000009654,0,+0,302,13.615289037176437,0.13109379789398456,-0.9180579855791189,2086346.0,39.63908132274549,0.3307919843287568,0.035680810097745486,2089881.0,,,,,2093.449960547996,2089.914960547996,
112,55,26,f,1,2,104.0,28,2,high,4 + 1 + 9 + 1 - 6,9,8,9,7,2105.1143591,2107.1374705999915,2108.651564899992,2113.6695535999897,2116.2873783999967,2116.2873835999926,2117.804613699991,2118.8214242999966,e,7.0,2.617824800006929,0,+0,302,-20.759459017584327,0.8451656017337585,0.9731762025708734,2101548.0,7.215280805483948,-0.09864928028797237,0.024861224775641233,2105080.0,,,,,2108.648960547996,2105.116960547996,
113,55,26,f,1,2,105.0,29,4,high,8 + 7 - 4 + 5 + 9,25,24,26,25,2120.33823529999,2122.366799099997,2123.882052899993,2128.9002972000017,2131.3593065000023,2131.3593120000005,2132.875476000001,2133.8925632000028,w,26.0,2.4590093000006163,0,+0,302,-30.746661029060142,1.5881987051535424,-0.0247070417303199,2116776.0,11.417222508350577,0.20964893491596914,-0.06403982956426013,2120311.0,,,,,2123.8799605479962,2120.344960547996,
114,55,26,f,1,2,106.0,30,1,high,5 + 6 + 1 + 1 + 1,14,15,14,16,2135.4092902999982,2137.433438799999,2138.9485896999977,2143.966241799993,2144.4232607000013,2144.423265899997,2145.9398793,2146.9571480000013,w,14.0,0.4570189000078244,1,+10,312,-9.99577480776045,1.4263476960714039,-0.04315614235558973,2131844.0,-39.20397960574265,-0.5276198447334624,0.1292628743300117,2135377.0,,,,,2138.945960547996,2135.412960547996,
115,55,26,f,1,2,107.0,31,2,high,7 + 5 + 1 - 1 - 8,4,4,2,3,2148.474094799996,2150.5006501000025,2152.0157144999976,2157.0339940999984,2160.711545600003,2160.711551399989,2162.2285249999986,2163.2456256000005,q,4.0,3.6775515000044834,1,+10,322,16.938298852755715,-0.1874228065173007,0.06311293706453469,2144911.0,3.547625379469898,-0.11042583639745462,-0.07643435846998914,2148444.0,,,,,2152.012960547996,2148.479960547996,
116,55,26,f,1,2,108.0,32,2,low,5 - 1 + 1 + 8 + 9,22,23,22,21,2164.762895699998,2166.787674199993,2168.303046599991,2173.3211505999934,2176.3913383999898,2176.3913434999995,2177.9078897,2178.925031199993,q,23.0,3.070187799996347,0,+0,322,3.7660309243269996,-0.317117983058842,4.766263959433498,2161198.0,-12.308769239117009,0.40537121005154564,-0.07423900994651556,2164731.0,,,,,2168.2999605479963,2164.766960547996,
117,55,26,f,1,2,109.0,33,1,low,6 + 1 + 1 + 7 - 1,14,14,13,12,2180.4418939000025,2182.468328799994,2183.983513599989,2189.0018241999933,2191.887275599991,2191.887280499999,2193.404242799996,2194.4212407000014,q,14.0,2.885451399997692,1,+1,323,17.068964445648664,0.9406739888845674,-0.16804768509935286,2176879.0,-58.77001858466898,0.5954393509576761,-0.06098162139734242,2180412.0,,,,,2183.980960547996,2180.447960547996,
118,55,26,f,1,2,110.0,34,3,high,2 + 9 + 1 - 5 + 7,14,14,15,12,2195.938169000001,2197.9655652999936,2199.4805283999885,2204.4995567000005,2206.447323799992,2206.4473290000024,2207.964497699999,2208.981853699996,q,14.0,1.9477670999913244,1,+10,333,5.719897572309105,0.5370295198596047,-1.1519479282810097,2192376.0,-18.852791629473284,-0.2399435214719059,-0.3503578142279058,2195909.0,,,,,2199.477960547996,2195.9449605479963,
119,55,26,f,1,2,111.0,35,1,low,4 + 7 + 1 - 1 - 1,10,9,10,11,2210.4987832999905,2212.5256217999995,2214.0404677999904,2219.059214399997,2220.0073059999995,2220.007311299996,2221.5240171999903,2222.541310300003,q,9.0,0.9480916000029538,0,+0,333,-18.86784791751745,-0.8602636792629772,1.4663703316819294,2206936.0,26.77799884878609,0.7273011133961287,4.510246942525848,2210469.0,,,,,2214.037960547996,2210.5049605479962,
120,55,26,f,1,2,112.0,36,2,high,8 + 1 + 9 + 1 - 4,15,16,15,14,2224.058344899997,2226.085006299996,2227.599726100001,2232.6178789999976,2234.591167199993,2234.591172100001,2236.1073965999967,2237.124496999997,w,15.0,1.9732881999952951,1,+10,343,-15.10373990513676,0.3592524711189462,0.07156559358222347,2220495.0,-13.643393641143792,0.428197250829208,0.18224657301105296,2224028.0,,,,,2227.596960547996,2224.063960547996,
121,55,26,f,1,2,113.0,37,3,low,4 + 1 + 8 + 9 - 5,17,19,18,17,2238.641290799991,2240.6674724999903,2242.182805599994,2247.2020035999885,2249.447295699996,2249.447300999993,2250.963900799994,2251.9807192000007,e,17.0,2.245292100007646,1,+1,344,22.24498450606027,0.3648622287703809,-1.0423428506404484,2235078.0,-23.485613821948622,0.6862005252465462,0.050639369189413586,2238612.0,,,,,2242.180960547996,2238.646960547996,
122,55,26,f,1,3,114.0,0,1,low,6 + 1 + 8 + 1 - 1,15,15,13,14,2280.5072531999904,2282.5352437999973,2284.0504911999888,2289.0697651999944,2291.879288600001,2291.8792939999985,2293.3957539999974,2294.4128326999926,e,14.0,2.809523400006583,0,+0,344,-18.722185847606784,0.6096811349584281,0.1411636674784995,2276945.0,-15.392621625434764,0.230336567766928,0.012322608993440065,2280480.0,,,,,2284.048960547996,2280.5139605479962,
123,55,26,f,1,3,115.0,1,4,low,5 + 8 - 4 - 6 + 9,12,13,12,14,2295.9294450000016,2297.9539533999923,2299.4692127000017,2304.48849589999,2306.055190500003,2306.0551958,2307.571874599991,2308.588871,q,13.0,1.566694600012852,0,+0,344,4.4428525132785355,0.4744052580037996,0.37133473823082763,2292364.0,10.419997753029731,0.6125296940494671,0.0653837599148126,2295898.0,,,,,2299.466960547996,2295.932960547996,
124,55,26,f,1,3,116.0,2,2,high,4 + 8 + 1 + 1 - 6,8,9,8,7,2310.1055315999984,2312.1304567999905,2313.645384399992,2318.663443199999,2321.079117100002,2321.0791225,2322.5960987,2323.613176400002,w,8.0,2.41567390000273,1,+10,354,30.500144109237798,1.093010279063547,0.12544678417030397,2306540.0,3.4063371538000666,0.5759578679294917,0.11237492794305148,2310073.0,,,,,2313.641960547996,2310.108960547996,
125,55,26,f,1,3,117.0,3,2,high,3 + 8 + 1 - 5 + 1,8,6,8,9,2325.129986899992,2327.155723399992,2328.6703806000005,2333.689123499993,2335.975319799996,2335.9753262000013,2337.491783599995,2338.5088907000027,w,8.0,2.286196300003212,1,+10,364,-45.28365238496485,-0.7292747363580983,-6.265679391287166,2321566.0,-30.643906785372554,0.33260695686981023,-0.04790949809281564,2325099.0,,,,,2328.6679605479962,2325.134960547996,
126,55,26,f,1,3,118.0,4,1,low,7 + 1 + 4 + 1 - 1,12,13,11,12,2340.0264526999963,2342.0540587,2343.569370600002,2348.5878716000007,2350.8790769999905,2350.879082200001,2352.3952281999955,2353.412162599998,e,12.0,2.291205399989849,1,+1,365,0.13478244479301793,-0.010677147003705478,-0.01030516655411473,2336464.0,9.11696748010398,0.49644827663238367,0.07554595194814007,2339998.0,,,,,2343.566960547996,2340.032960547996,
127,55,26,f,1,3,119.0,5,3,low,3 - 7 + 5 + 1 + 9,11,13,11,12,2354.929016099996,2356.955895499996,2358.470862599992,2363.489326199997,2366.191073299997,2366.1910781999904,2367.7073376999906,2368.724405699992,w,11.0,2.7017470999999205,1,+1,366,6.275958354467707,-0.2513630089458765,-0.005243233224448751,2351366.0,-14.63881063871774,0.6071426571681817,-0.16888092371321095,2354899.0,,,,,2358.467960547996,2354.934960547996,
128,55,26,f,1,3,120.0,6,2,low,4 + 9 - 7 + 1 - 1,6,8,6,5,2370.241318799992,2372.2680646999943,2373.783177699996,2378.801379800003,2379.535136499995,2379.535141799992,2381.051697099989,2382.068774899992,w,6.0,0.7337566999922274,1,+1,367,-16.205390758568406,1.1066562208354807,-0.033197846581804136,2366678.0,3.5011950975598936,0.3664720287477401,0.06831738024204381,2370211.0,,,,,2373.779960547996,2370.246960547996,
129,55,26,f,1,3,121.0,7,3,low,9 - 5 - 1 - 6 + 8,5,5,7,4,2383.5854993999965,2385.611816999997,2387.1270383999945,2392.145086199991,2395.431132999991,2395.43113859999,2396.9481993999943,2397.9652379999898,w,7.0,3.2860467999998946,0,+0,367,-0.408146671913344,-0.006318868345514872,0.17151627015337212,2380021.0,-19.387580815507484,0.42279019371646953,-0.0249926960720539,2383555.0,,,,,2387.123960547996,2383.5899605479963,
130,55,26,f,1,3,122.0,8,1,low,7 + 1 + 5 + 1 - 1,13,13,12,14,2399.4818021999963,2401.5090804999927,2403.0242885999905,2408.042707799992,2408.727106499995,2408.7271114999894,2410.243422899992,2411.260756099989,w,12.0,0.6843987000029301,0,+0,367,-24.917678675146995,-0.09282345002973447,-0.019732003260918507,2395919.0,-8.153859599814961,-0.4251835753280737,-0.022885227095819527,2399452.0,,,,,2403.0209605479963,2399.487960547996,
131,55,26,f,1,3,123.0,9,4,high,4 + 7 - 8 + 9 - 3,9,11,8,9,2412.777348399992,2414.8031461999926,2416.318360499994,2421.3370914999978,2423.4231267,2423.423132099997,2424.939700499992,2425.9566621999984,e,9.0,2.0860352000017883,1,+10,377,27.56877374897562,0.9333515492181235,-0.2009724757828093,2409213.0,12.832564034522752,0.2907994939191978,0.01851174303367875,2412747.0,,,,,2416.315960547996,2412.7819605479963,
132,55,26,f,1,3,124.0,10,1,high,9 + 7 + 1 + 1 + 1,19,18,19,20,2427.4735088000016,2429.4971066,2431.012548400002,2436.030666599996,2436.5350275999954,2436.535032899992,2438.0514580000017,2439.0687375999987,w,19.0,0.504360999999335,1,+10,387,23.308763560296157,-1.1408224374793212,0.030646128124265593,2423907.0,1.187312005628808,-0.7101702566194703,0.18329056670057375,2427440.0,,,,,2431.008960547996,2427.4759605479962,
133,55,26,f,1,3,125.0,11,1,high,3 + 1 + 1 + 9 - 1,13,12,14,13,2440.585575199992,2442.611833999996,2444.1270917999937,2449.145241399994,2451.791038800002,2451.791043999998,2453.3072692999995,2454.3245529999986,e,13.0,2.645797400007723,1,+10,397,-6.793613677063332,0.16214152822370487,-1.003505095471271,2437021.0,3.9935097195840905,-0.8474881331149167,0.01921566267054753,2440555.0,,,,,2444.123960547996,2440.5899605479963,
134,55,26,f,1,3,126.0,12,3,low,5 + 1 + 7 - 8 + 6,11,11,9,13,2455.841916699996,2457.877609999996,2459.3928696999938,2464.4111400999973,2465.511010000002,2465.511015199998,2467.027323100003,2468.043940699994,q,11.0,1.0998699000047054,1,+1,398,3.966639218284552,-0.07253519354081117,0.010383792817088677,2452287.0,-5.909485498577245,1.048517865018848,0.04602219858828338,2455821.0,,,,,2459.389960547996,2455.855960547996,
135,55,26,f,1,3,127.0,13,1,high,6 + 1 + 8 + 1 + 1,17,16,15,17,2469.561065899994,2471.586916799992,2473.1022604000027,2478.1204117000016,2478.59109799999,2478.5911032000004,2480.1073288999905,2481.124902900003,e,17.0,0.4706862999883014,1,+10,408,4.131501533040381,-0.5623624856870091,-0.47584301293876896,2465996.0,4.388949122734715,-0.3806233439586384,-0.07031115337312421,2469530.0,,,,,2473.0989605479963,2469.564960547996,
136,55,26,f,1,3,128.0,14,2,high,7 + 5 + 1 + 9 + 1,23,22,23,21,2482.641754600001,2484.667778899995,2486.1831366999977,2491.202101899995,2491.862966300003,2491.8629717000003,2493.379334799989,2494.3964643999934,w,23.0,0.6608644000079948,1,+10,418,25.61395371067923,-0.5195382043268522,0.10560297101448324,2479077.0,-21.130194493790327,1.2195714848961243,0.09631514824103737,2482611.0,,,,,2486.179960547996,2482.6459605479963,
137,55,26,f,1,3,129.0,15,2,low,6 + 1 + 8 + 7 - 1,21,19,23,21,2495.912883099998,2497.9401602,2499.4555491999927,2504.474214899994,2506.094987199991,2506.09499279999,2507.61168999999,2508.628761200001,w,23.0,1.6207722999970429,0,+0,418,-32.186301261764314,0.17209773826827401,0.12217150400169485,2492349.0,-0.17035876739859557,-0.06751004186418097,-0.02552509996054564,2495883.0,,,,,2499.451960547996,2495.9179605479962,
138,55,26,f,1,3,130.0,16,4,high,4 + 7 + 8 - 3 + 9,25,24,25,26,2510.1452124999923,2512.171979999999,2513.6872844000027,2518.705870299993,2521.7990513999976,2521.7990566999943,2523.315580800001,2524.3326332,w,25.0,3.093181100004585,1,+10,428,0.505369389904462,0.16647587656220697,0.10434705203459327,2506581.0,-22.251402954550084,1.0484940592263774,0.07237060125102879,2510115.0,,,,,2513.683960547996,2510.149960547996,
139,55,26,f,1,3,131.0,17,1,low,2 + 1 + 9 + 1 - 1,12,11,12,13,2525.849527300001,2527.8761447,2529.391320900002,2534.411057999998,2535.0629322000023,2535.062937299997,2536.5794056000013,2537.596216699996,w,12.0,0.6518742000043858,1,+1,429,-60.52823802708592,-0.37125545525067505,0.27110444085222873,2522286.0,10.14425107093994,0.2638226413947429,-0.07020706938981158,2525820.0,,,,,2529.3889605479962,2525.854960547996,
140,55,26,f,1,3,132.0,18,3,high,4 + 7 + 1 + 9 - 5,16,17,16,18,2539.113357800001,2541.1406861,2542.6558773,2547.6743346000003,2550.6549290999974,2550.654934099992,2552.170926199993,2553.1883695,w,16.0,2.980594499997096,1,+10,439,-43.0323009084414,-0.10575529204978906,-0.1793884662124512,2535550.0,-1.013217670730608,0.7901525404961571,0.06253199069650162,2539083.0,,,,,2542.651960547996,2539.1189605479963,
141,55,26,f,1,3,133.0,19,2,low,8 + 1 + 7 + 1 - 4,13,12,14,13,2554.705082200002,2556.732672600003,2558.2478715999896,2563.267810699996,2563.958956100003,2563.9589615000004,2565.475366899991,2566.4921607,e,13.0,0.6911454000073718,1,+1,440,-16.56360170715348,0.5491762140318182,-0.1761175576842735,2551142.0,16.640851877293112,1.2175698099938792,0.03495284286190037,2554677.0,,,,,2558.245960547996,2554.710960547996,
142,55,26,f,1,3,134.0,20,2,high,2 + 1 + 9 - 4 + 1,9,8,9,11,2568.00886989999,2570.035792399998,2571.551037799989,2576.5689445000025,2577.9109801000013,2577.9109857000003,2579.4283252000023,2580.4456879999925,w,9.0,1.3420355999987803,1,+10,450,4.776086215653493,0.5955824754446191,0.056678725376460015,2564445.0,21.994601514737678,0.5068097595228256,0.01100035012238676,2567978.0,,,,,2571.546960547996,2568.0139605479962,
143,55,26,f,1,3,135.0,21,4,low,9 + 4 - 6 + 8 + 7,22,24,21,22,2581.962522799993,2583.986665999997,2585.501870699998,2590.520065799996,2595.47889649999,2595.478901900002,2596.995507499989,2598.0123895,e,22.0,4.958830699993996,1,+1,451,-26.676839813177395,1.1753633535656247,-0.0920724417536154,2578396.0,36.09284251217815,0.34440355672110634,0.02539205138314804,2581929.0,,,,,2585.497960547996,2581.9649605479963,
144,55,26,f,1,3,136.0,22,3,high,7 - 6 + 8 + 1 + 7,17,16,15,17,2599.5291550999973,2601.5557635000005,2603.071104399991,2608.089570700002,2608.822847999996,2608.822853199992,2610.3390650999936,2611.356038600002,e,17.0,0.73327729999437,1,+10,461,-27.48087044675943,-0.7548584713853552,-6.1626326300899645,2595965.0,-21.31676351462169,0.4897016996168846,-0.017986494476541104,2599499.0,,,,,2603.067960547996,2599.5339605479962,
145,55,26,f,1,3,137.0,23,4,high,9 + 8 - 5 - 7 + 6,11,13,10,11,2612.872868899998,2614.896716499992,2616.4121878000005,2621.4310348,2623.2789016999886,2623.278906599997,2624.7952096999943,2625.8125408999917,e,11.0,1.8478668999887304,1,+10,471,-3.567111102664768,-0.6991939895114578,-0.011821166308670694,2609306.0,15.60644259735024,0.10121061719774271,0.192921872126953,2612840.0,,,,,2616.4089605479962,2612.874960547996,
146,55,26,f,1,3,138.0,24,1,high,3 + 1 + 9 + 1 - 1,13,14,12,13,2627.3294841999887,2629.355432899989,2630.8713578999887,2635.8892436999886,2636.48684659999,2636.4868518000003,2638.003462599998,2639.020714600003,e,13.0,0.5976029000012204,1,+10,481,-6.8729092262515605,-0.3864534552330907,0.01160253699417746,2623764.0,6.318435926704023,0.2215936473222584,-0.01172450270235359,2627298.0,,,,,2630.866960547996,2627.332960547996,
147,55,26,f,1,3,139.0,25,3,high,7 + 5 + 9 + 1 - 6,16,14,16,15,2640.5377833999955,2642.576211599997,2644.0915828,2649.110037099992,2651.758874299994,2651.758879599991,2653.27512369999,2654.292377199992,w,16.0,2.6488372000021627,1,+10,491,-7.113250438507618,-0.673673579536386,0.018970290759050323,2636985.0,9.330961899983127,-0.07228726843856226,0.034263947687537044,2640519.0,,,,,2644.087960547996,2640.553960547996,
148,55,26,f,1,3,140.0,26,4,high,5 + 7 - 4 + 6 + 9,23,24,23,25,2655.809286899996,2657.835458799993,2659.350831899996,2664.369432599997,2669.3875326999987,2669.3875351000024,2670.9041336999944,2671.9226573999917,,,,0,Too Slow!,491,-0.4058689853903399,0.9879541369374643,0.06020954895990949,2652244.0,-5.50156461342741,0.6170607990092707,-0.02820697703207098,2655778.0,,,,,2659.346960547996,2655.812960547996,
149,55,26,f,1,3,141.0,27,1,high,3 + 1 + 8 - 1 + 1,12,13,10,12,2673.4393300999945,2675.4652813,2676.9804999999906,2682.000315799989,2682.478882299998,2682.478887499994,2683.9957689000003,2685.0130585000006,e,12.0,0.4785665000090375,1,+10,501,-2.8926225554526503,-0.05420666947606989,0.05383499386656565,2669874.0,2.2356798856524325,0.2722236030172507,0.19271497786729896,2673409.0,,,,,2676.977960547996,2673.442960547996,
150,55,26,f,1,3,142.0,28,4,high,5 + 9 - 4 + 7 + 6,23,24,25,23,2686.529842799995,2688.5548341999965,2690.070033600001,2695.088334999993,2696.071451399999,2696.071457400001,2697.588183400003,2698.6052395000006,e,23.0,0.9831164000061108,1,+10,511,-10.025945484969313,0.46880642356954016,-0.46606321953657126,2682964.0,10.412723946261444,0.26917930378048105,-0.023484609049598593,2686497.0,,,,,2690.065960547996,2686.532960547996,
151,55,26,f,1,3,143.0,29,1,high,6 + 9 + 1 + 1 - 1,16,16,14,15,2700.122013999993,2702.1482172999968,2703.66356049999,2708.6814184999967,2709.246711,2709.246716099995,2710.763313799994,2711.780636399999,q,16.0,0.5652925000031246,1,+10,521,-12.75632079631978,-0.29791066156969404,0.021209865242713732,2696557.0,19.108768951580963,-0.3625311330099148,0.127109129034368,2700090.0,,,,,2703.6589605479962,2700.125960547996,
152,55,26,f,1,3,144.0,30,1,low,5 + 9 - 1 + 1 + 1,15,13,15,17,2713.297312900002,2715.3252355000004,2716.8404029999947,2721.858425300001,2722.342742099994,2722.3427470999886,2723.859593599991,2724.876621999996,w,15.0,0.4843167999933939,1,+1,522,3.2987520857553605,0.14533890878845934,5.6581662697131065,2709734.0,-32.87244506828985,0.03686257428885753,-0.5542841281383708,2713267.0,,,,,2716.835960547996,2713.302960547996,
153,55,26,f,1,3,145.0,31,1,high,7 + 1 + 4 + 1 - 1,12,13,14,12,2726.397520899991,2728.423600199996,2729.938747299995,2734.958392200002,2735.662742200002,2735.6627477,2737.1801745999983,2738.197499799993,e,12.0,0.7043499999999767,1,+10,532,1.8228799560739226,-0.36879388187660744,-0.006804940778624369,2722832.0,-19.75045605387541,-0.4137201044557166,0.026228074929367295,2726367.0,,,,,2729.9359605479963,2726.400960547996,
154,55,26,f,1,3,146.0,32,4,high,8 + 4 + 7 - 5 - 6,8,9,7,8,2739.7144049999915,2741.738878399992,2743.254118500001,2748.2728546,2750.3507129999925,2750.3507181999885,2751.867831800002,2752.8849428999965,w,7.0,2.0778583999926923,0,+0,532,13.953629953807859,-1.51142932319165,0.2507236460116675,2736147.0,22.581105201701977,0.9213449125424003,0.07577140512986857,2739681.0,,,,,2743.249960547996,2739.715960547996,
155,55,26,f,1,3,147.0,33,3,high,5 - 1 - 4 + 6 + 7,13,15,14,13,2754.401539899991,2756.42841529999,2757.9436889999924,2762.962149200001,2763.526689499995,2763.52669459999,2765.0431714000006,2766.060825399996,e,13.0,0.5645402999944054,1,+10,542,7.548680335037978,0.5017012217803494,-0.11100045965450889,2750837.0,-29.56958555092313,0.22322520001607238,0.11925672582468838,2754371.0,,,,,2757.939960547996,2754.405960547996,
156,55,26,f,1,3,148.0,34,3,low,5 + 6 - 4 - 1 + 8,14,15,16,14,2767.577736599997,2769.603743499989,2771.1189627999997,2776.1369247999974,2777.4708241999906,2777.4708292,2778.987191799999,2780.003722399997,e,14.0,1.3338993999932427,1,+1,543,17.544597292277018,0.14079623576383415,-0.0019647641695366147,2764012.0,9.58646269777243,0.4472374339940819,-0.32627550056449905,2767546.0,,,,,2771.114960547996,2767.5809605479963,
157,55,26,f,1,3,149.0,35,4,high,4 + 8 + 9 - 3 + 7,25,25,24,26,2781.520253399998,2783.5472561999923,2785.062512799996,2790.081045999992,2793.422762199989,2793.422767600001,2794.939394899993,2795.956576800003,q,25.0,3.341716199996881,1,+10,553,-3.0541679625869946,0.7236230351373552,-0.6530752086699954,2777955.0,3.896280796944726,0.9460202720942492,0.11497865035111543,2781490.0,,,,,2785.058960547996,2781.523960547996,
158,55,26,f,1,3,150.0,36,2,low,6 + 1 + 1 + 7 - 9,6,4,8,6,2797.4731710999918,2799.4990603999904,2801.014385699993,2806.034530399993,2806.9745986999915,2806.974603800001,2808.4907737999893,2809.5078099999955,w,8.0,0.9400682999985293,0,+0,553,-1.9510169165648188,0.10261746779648195,-0.20159359817989353,2793908.0,0.27237603961742973,0.8314424360625097,0.07641064613894155,2797443.0,,,,,2801.0119605479963,2797.476960547996,
159,55,26,f,1,3,151.0,37,4,high,4 + 7 - 8 + 9 - 4,8,8,9,7,2811.0243409999966,2813.0499808000022,2814.5649772999896,2819.5837630000024,2821.718630699994,2821.718636699996,2823.2353936,2824.252478299997,e,7.0,2.134867699991446,0,+0,553,12.937352568778342,0.14357278076949953,-0.1299098849750755,2807458.0,-13.913439279787488,-0.018151952897929924,-0.04965224331340057,2810992.0,,,,,2814.5609605479963,2811.026960547996,
160,55,26,f,1,4,152.0,0,2,high,5 + 1 + 7 - 6 + 1,8,6,7,8,2881.937969999999,2883.964531199992,2885.479504000002,2890.499244599996,2891.166628699997,2891.166634299996,2892.6829096,2893.6998366999906,e,8.0,0.6673841000010725,1,+10,563,22.414605822879015,2.7242713373431724,5.552160017615099,2878373.0,13.959810690244574,0.9004501276193349,-0.20623828273813039,2881907.0,,,,,2885.4759605479962,2881.941960547996,
161,55,26,f,1,4,153.0,1,2,low,7 + 8 + 1 + 9 + 1,26,26,24,25,2895.2166163999937,2897.2446595999936,2898.759932599991,2903.7783064999967,2906.3506018999906,2906.350607399989,2907.867080600001,2908.883903800001,q,26.0,2.572295399993891,1,+1,564,-16.163863236494755,1.8760354107335058,-0.03655495503795114,2891653.0,-7.175015857259233,-0.7368130600528957,0.09002300355749582,2895187.0,,,,,2898.755960547996,2895.221960547996,
162,55,26,f,1,4,154.0,2,1,high,3 + 1 + 9 + 1 + 1,15,15,14,17,2910.400783799996,2912.4281395,2913.9433170999982,2918.962041999999,2920.142606900001,2920.142611999996,2921.6592877999938,2922.67670869999,q,15.0,1.1805649000016274,1,+10,574,-1.2989138241563705,-0.1610524663716264,0.012589452323152006,2906836.0,10.117832222405385,-0.3622808523701204,-0.09890840557296565,2910370.0,,,,,2913.938960547996,2910.404960547996,
163,55,26,f,1,4,155.0,3,2,low,4 + 9 + 1 - 7 - 1,6,6,5,8,2924.1935465999995,2926.2208409000013,2927.7358954999945,2932.7548569999926,2936.462497200002,2936.462503799994,2937.979043,2938.9957023000024,q,6.0,3.7076402000093367,1,+1,575,-5.0892723869628345,-0.9028073872981066,4.656977114117547,2920629.0,10.121191550620289,0.351204216140407,-0.05942138294476984,2924163.0,,,,,2927.731960547996,2924.197960547996,
164,55,26,f,1,4,156.0,4,3,high,4 + 5 - 3 + 7 - 1,12,11,13,12,2940.5122384999995,2942.539659199989,2944.0546535999893,2949.0734209999937,2949.7184587999946,2949.718464199992,2951.2347193999885,2952.2512127999944,e,12.0,0.6450378000008641,1,+10,585,-49.90862596726362,1.0271863758799995,0.21720804606021282,2936948.0,0.6245834678044879,-0.12322784818536814,0.0952551613073882,2940481.0,,,,,2944.0499605479963,2940.516960547996,
165,55,26,f,1,4,157.0,5,4,low,8 + 4 + 7 - 5 - 6,8,9,8,6,2953.76821319999,2955.794837499998,2957.309939300001,2962.328392800002,2964.7825151,2964.782520599998,2966.298774099996,2967.315629799996,w,8.0,2.4541222999978345,1,+1,586,-7.871153575320788,0.4657782842628464,0.018128274216025364,2950203.0,15.745754344754369,0.703259889461104,0.050464936513460845,2953737.0,,,,,2957.305960547996,2953.771960547996,
166,55,26,f,1,4,158.0,6,2,high,5 + 8 + 1 - 1 + 9,22,23,21,22,2968.8323508999893,2970.8556738999905,2972.370947599993,2977.3899807999987,2980.478429499999,2980.478434699995,2981.995065700001,2983.0120274999936,e,22.0,3.088448700000299,1,+10,596,24.264436448817257,-1.2650152013409075,0.17631296344248426,2965263.0,28.748728697479095,1.6955547693860673,0.04171326479677706,2968798.0,,,,,2972.366960547996,2968.831960547996,
167,55,26,f,1,4,159.0,7,3,high,8 + 3 + 1 - 7 + 9,14,15,14,12,2984.5287486000016,2986.555596099992,2988.0708304,2993.089312999989,2997.1744828999945,2997.1744879999897,2998.6912471999967,2999.7079461999965,q,15.0,4.085169900004985,0,+0,596,19.67215003750633,1.5047923177765412,0.19247061243647456,2980964.0,-25.26917650021278,0.6308242577420877,0.11295537837952896,2984497.0,,,,,2988.065960547996,2984.532960547996,
168,55,26,f,1,4,160.0,8,1,low,8 + 1 + 1 + 1 - 3,8,8,9,6,3001.224661,3003.2518611999985,3004.766787200002,3009.7852329000016,3010.3904877000023,3010.3904931,3011.906981699998,3012.9247696999955,q,8.0,0.6052548000006936,1,+1,597,6.400869698016939,-0.3444320603542481,0.15945233268852999,2997660.0,13.706080187796955,-0.16465486094112158,-0.14852553251932266,3001193.0,,,,,3004.7619605479963,3001.228960547996,
169,55,26,f,1,4,161.0,9,1,low,7 - 1 + 9 + 1 - 1,15,14,13,15,3014.441526499999,3016.4657436999987,3017.9809281999915,3023.0006468999927,3023.550487799992,3023.550493399991,3025.0666140999965,3026.083029200003,e,15.0,0.5498408999992535,1,+1,598,3.2022989901904833,-0.7770139129688687,0.007455786672601494,3010874.0,1.500778531851843,-0.5480567514170076,-0.028240483707085318,3014408.0,,,,,3017.976960547996,3014.442960547996,
170,55,26,f,1,4,162.0,10,2,high,9 + 6 + 1 + 7 + 1,24,23,24,25,3027.5998387,3029.626999699991,3031.142204899996,3036.160346299992,3036.710439599992,3036.7104448000027,3038.227445299999,3039.244819899992,w,24.0,0.5500933000002988,1,+10,608,9.271253059875598,0.6669524477564348,-0.2160868765010222,3024035.0,3.4962203723776204,0.03833284878793464,0.0993304324021651,3027568.0,,,,,3031.1369605479963,3027.603960547996,
171,55,26,f,1,4,163.0,11,1,high,6 + 9 + 1 + 1 - 1,16,15,16,14,3040.761294099997,3042.7894454999914,3044.304697899992,3049.322439800002,3049.7983832000027,3049.798387999996,3051.3147815999982,3052.332163999992,w,16.0,0.4759434000006877,1,+10,618,-75.01949785934411,-0.18310410305136493,-0.08723222825265586,3037197.0,55.723358987224856,-0.5879215678074363,0.04101849608402919,3040731.0,,,,,3044.2999605479963,3040.765960547996,
172,55,26,f,1,4,164.0,12,2,high,3 + 1 + 8 - 5 - 1,6,7,5,6,3053.848912200003,3055.876686699994,3057.392551500001,3062.410480099992,3062.870361699999,3062.8703670999967,3064.387203599996,3065.404592299994,e,6.0,0.4598816000070655,1,+10,628,-5.486734562630463,-0.06563206911056163,0.07896032296781486,3050284.0,14.172004011672417,2.143466826840413,-0.02519854298413904,3053818.0,,,,,3057.3869605479963,3053.852960547996,
173,55,26,f,1,4,165.0,13,3,high,8 - 7 + 9 + 1 + 4,15,16,15,14,3066.92138,3068.9501672999904,3070.4657732999917,3075.484192899996,3078.3983544999937,3078.3983596999897,3079.914586599989,3080.931720599998,w,15.0,2.9141615999978967,1,+10,638,4.153995271802422,-1.4237636757950352,0.21333744174353564,3063357.0,-7.9177021991287475,-0.5525106785969722,-0.004291803248261505,3066892.0,,,,,3070.460960547996,3066.925960547996,
174,55,26,f,1,4,166.0,14,1,high,2 + 1 + 9 + 1 - 1,12,11,13,12,3082.4483782999887,3084.4723442999966,3085.988000700003,3091.00600519999,3091.7183509999886,3091.718356700003,3093.234984099996,3094.2524037999974,e,12.0,0.7123457999987295,1,+10,648,-21.06184195985936,-0.4448029438718306,0.09917984661859292,3078880.0,2.739346182671004,0.16973067262477315,0.012010073402431987,3082414.0,,,,,3085.9829605479963,3082.448960547996,
175,55,26,f,1,4,167.0,15,3,high,6 + 8 + 7 + 1 - 9,13,14,15,13,3095.7694578999944,3097.795492899997,3099.310604600003,3104.3291688000027,3107.8784667,3107.878472199998,3109.3949682999955,3110.4121189,w,15.0,3.5492978999973275,0,+0,648,-11.455149133705746,0.5799099979030586,0.1580878969616819,3092203.0,10.24478184721488,-0.9242769358020038,0.21430888100798007,3095737.0,,,,,3099.305960547996,3095.771960547996,
176,55,26,f,1,4,168.0,16,2,high,4 + 7 + 1 + 1 - 8,5,5,4,7,3111.928738699993,3113.956358800002,3115.4717008000007,3120.491932299992,3123.3663267999946,3123.366331700003,3124.8828904999973,3125.900355199992,q,5.0,2.8743945000023814,1,+10,658,10.520911204195816,0.26240130954752594,-0.07081542018050047,3108364.0,-4.70490309273776,0.130329068436831,-3.578985014399156,3111900.0,,,,,3115.468960547996,3111.932960547996,
177,55,26,f,1,4,169.0,17,4,high,4 + 7 + 9 - 5 + 7,22,23,22,24,3127.4172281999927,3129.444388499993,3130.95953729999,3135.9782372999907,3138.3423522999947,3138.3423574999906,3139.858953799994,3140.876885999998,q,23.0,2.364115000003949,0,+0,658,-33.49667415830632,0.4927677880802941,0.09816705323507291,3123852.0,15.782595812620306,1.4821658198704357,0.0444805210461412,3127385.0,,,,,3130.9539605479963,3127.420960547996,
178,55,26,f,1,4,170.0,18,3,low,4 + 7 - 3 + 5 - 1,12,12,13,11,3142.3938173999923,3144.415764899997,3145.9308397999994,3150.9495586999983,3152.7263679999887,3152.7263736999885,3154.2426639999903,3155.259439100002,q,12.0,1.7768092999904184,1,+1,659,-12.357903304136798,-0.019989307332952677,-0.0051131466026932415,3138824.0,-6.395388523271134,-0.37137656010535025,0.06615736092974944,3142357.0,,,,,3145.925960547996,3142.392960547996,
179,55,26,f,1,4,171.0,19,3,high,6 + 1 + 8 + 7 - 9,13,15,14,13,3156.776145099997,3158.799215299994,3160.3144378,3165.3325204,3169.9263446999976,3169.9263499999943,3171.4428952000017,3172.4601655000006,e,13.0,4.593824299998232,1,+10,669,-15.477448967042662,-2.5324687674303474,0.5942746372119019,3153207.0,0.708950789040701,-0.8735879254858201,0.19149897074738198,3156740.0,,,,,3160.308960547996,3156.775960547996,
180,55,26,f,1,4,172.0,20,4,low,6 + 7 + 9 - 3 + 5,24,22,23,24,3173.9770266999985,3176.00289399999,3177.518070399994,3182.536418699994,3184.5423064999923,3184.5423117000028,3186.0597481000004,3187.0768660999893,e,24.0,2.0058877999981632,1,+1,670,-22.848318489984564,0.18534576862895857,-0.16096836624749367,3170410.0,0.005304713420626328,0.5520379820236059,0.16162568689356127,3173944.0,,,,,3177.512960547996,3173.978960547996,
181,55,26,f,1,4,173.0,21,2,low,9 + 1 + 6 + 7 + 1,24,23,24,25,3188.593305199989,3190.622009599989,3192.1373082999926,3197.1555022999964,3200.398253899999,3200.398259399997,3201.91492499999,3202.932171199994,w,24.0,3.2427516000025207,1,+1,671,18.10704743916857,0.7514242494967016,0.04883256105540967,3185029.0,2.114784435661548,-0.0343657015204375,0.0139728788012079,3188563.0,,,,,3192.131960547996,3188.597960547996,
182,55,26,f,1,4,174.0,22,2,high,6 + 8 + 1 + 1 - 7,9,8,11,9,3204.4490110999905,3206.4742252,3207.989281000002,3213.0078531999898,3216.4302981999936,3216.4303038999933,3217.9468279,3218.9641274999885,e,9.0,3.4224450000037905,1,+10,681,-8.322240670335407,-1.1482911768060724,0.18358229243951407,3200882.0,6.052518149750462,0.22079225289268045,-1.9841830256918196,3204415.0,,,,,3207.983960547996,3204.450960547996,
183,55,26,f,1,4,175.0,23,1,high,5 + 1 + 1 + 6 + 1,14,13,14,16,3220.480933400002,3222.5052436999977,3224.0208539000014,3229.038480000003,3229.486240099999,3229.486244899992,3231.0032145000005,3232.0207134999946,w,14.0,0.4477600999962305,1,+10,691,-36.02507787656188,-0.9558995677788893,-1.1412519520270865,3216913.0,11.177684910879801,0.3959112649982277,0.006677643688378643,3220446.0,,,,,3224.014960547996,3220.481960547996,
184,55,26,f,1,4,176.0,24,4,high,3 + 8 - 5 + 9 - 7,8,7,6,8,3233.537225299995,3235.563813899993,3237.0791076000023,3242.097676899997,3242.974310599995,3242.9743159999925,3244.490868299996,3245.508579699992,e,8.0,0.8766336999979103,1,+10,701,-5.683885182491174,-1.060428185983497,0.24438050836855085,3229971.0,-16.552892621955777,1.0161909296277667,0.10619008302239386,3233505.0,,,,,3237.073960547996,3233.539960547996,
185,55,26,f,1,4,177.0,25,2,high,2 + 1 + 9 - 4 + 1,9,9,11,8,3247.025531099993,3249.0524006999917,3250.567422299995,3255.5866410000017,3256.1341888000024,3256.1341942,3257.650595500003,3258.6684375999903,q,9.0,0.547547800000757,1,+10,711,2.1904040250001025,0.06872171563555618,0.0312240767982348,3243460.0,-7.79161001439307,-0.4568713290721309,0.13950517588748013,3246994.0,,,,,3250.562960547996,3247.028960547996,
186,55,26,f,1,4,178.0,26,3,high,6 - 1 + 7 - 8 + 9,13,12,13,11,3260.185317700001,3262.212523900001,3263.728433899989,3268.7468582,3269.382177099993,3269.382183099995,3270.8989467999927,3271.916792499993,w,13.0,0.6353188999928534,1,+10,721,-2.0593000924221254,1.202995468328461,-0.22423842242481484,3256620.0,51.7366078597164,0.12206276562899987,0.129415751800946,3260155.0,,,,,3263.7239605479963,3260.188960547996,
187,55,26,f,1,4,179.0,27,4,high,7 + 6 - 9 + 8 - 3,9,8,9,7,3273.433252599993,3275.456277199992,3276.9714561,3281.990648499996,3283.1422097999894,3283.1422151000006,3284.658836799994,3285.6760071000026,q,8.0,1.151561299993773,0,+0,721,9.655323953210653,-0.989641441481039,-0.10115147307238281,3269864.0,16.72221092383497,0.7422287131689274,-0.0029747692552422045,3273397.0,,,,,3276.965960547996,3273.432960547996,
188,55,26,f,1,4,180.0,28,2,low,6 + 1 + 1 + 8 - 9,7,9,7,5,3287.192420699997,3289.216207899997,3290.731374199997,3295.749687399992,3296.4621461999923,3296.4621517999917,3297.97844549999,3298.9953067999886,w,7.0,0.7124588000006042,1,+1,722,17.08001438066116,-1.3992119899262363,-0.06153559848663681,3283623.0,-2.938951735730697,0.8479934612227105,-0.03894251429134066,3287157.0,,,,,3290.7259605479962,3287.191960547996,
189,55,26,f,1,4,181.0,29,3,low,4 + 8 - 3 + 5 - 1,13,14,12,13,3300.512114799989,3302.5384118999937,3304.0532125000027,3309.0715148000018,3311.374136599989,3311.374141599997,3312.891377599997,3313.908952999991,e,13.0,2.302621799986809,1,+1,723,-11.44528322524121,-0.034220600342980134,0.1282969380552299,3296946.0,-2.469481299897261,1.440603182969154,0.10209141014981382,3300479.0,,,,,3304.047960547996,3300.514960547996,
190,55,26,f,1,4,182.0,30,3,low,4 + 1 + 8 + 9 - 5,17,17,19,18,3315.4258185999934,3317.44920599999,3318.964081699989,3323.982288799991,3327.5901040000026,3327.5901091999986,3329.1074714999995,3330.124388199998,q,17.0,3.607815200011828,1,+1,724,28.98436618812469,-0.3576761376722182,-0.043621542949402015,3311856.0,25.61392906764614,0.4626222479678912,0.01049220340168655,3315389.0,,,,,3318.957960547996,3315.4249605479963,
191,55,26,f,1,4,183.0,31,2,high,6 + 1 + 1 + 7 - 9,6,4,8,6,3331.641156400001,3333.6685325,3335.183213700002,3340.2015488999896,3341.6941486,3341.694154099998,3343.210628399989,3344.2280170000013,e,6.0,1.4925997000100324,1,+10,734,-12.320013781804702,0.15474872548959429,4.3263004544416255,3328076.0,-5.23876650190828,0.06994989832188026,-0.6208762081705279,3331609.0,,,,,3335.177960547996,3331.644960547996,
192,55,26,f,1,4,184.0,32,3,high,2 + 9 - 3 + 4 + 1,13,11,13,14,3345.744774399994,3347.7722469,3349.287729799995,3354.3067076000007,3354.814019199999,3354.814023999992,3356.330305999989,3357.3475312999944,w,13.0,0.5073115999985021,1,+10,744,0.36319813005621704,0.08390579429783784,-0.12452752694105751,3342178.0,7.999036486490972,0.558573827361486,-0.17595566546855923,3345713.0,,,,,3349.2819605479963,3345.746960547996,
193,55,26,f,1,4,185.0,33,1,low,7 - 1 + 1 + 9 - 1,15,15,14,13,3358.863813899996,3360.890652899994,3362.405641699996,3367.4236479999963,3369.7341233999905,3369.7341287000017,3371.250681999998,3372.268075499989,q,15.0,2.310475399994175,1,+1,745,-3.6511922902100684,-0.06070624572556671,-0.07979855424257698,3355298.0,-0.7228795308819329,-0.18713411331624918,0.10013887349370565,3358831.0,,,,,3362.399960547996,3358.866960547996,
194,55,26,f,1,4,186.0,34,2,high,3 - 1 + 9 - 5 + 1,7,5,6,7,3373.784193300002,3375.8103352999897,3377.3255623000005,3382.3451109000016,3382.822109200002,3382.822114800001,3384.3385922000016,3385.356176899993,e,7.0,0.4769983000005595,1,+10,755,-24.52948177443326,0.21984813284208649,-0.31805057624775745,3370217.0,-1.5749016513628042,0.6074795296085647,-0.1155077884231559,3373752.0,,,,,3377.320960547996,3373.785960547996,
195,55,26,f,1,4,187.0,35,2,low,4 + 8 + 1 + 1 - 5,9,8,11,9,3386.8730545,3388.9002781000017,3390.415441099991,3395.4334074999933,3399.158024999997,3399.158030099992,3400.673999699997,3401.691004399996,w,11.0,3.72461750000366,0,+0,755,-47.54921850768456,-1.160433040509444,0.015395581442637196,3383307.0,15.014299871693478,-1.424480377119293,-0.046950824035887795,3386840.0,,,,,3390.4089605479962,3386.875960547996,
196,55,26,f,1,4,188.0,36,2,low,3 + 9 + 1 - 5 + 1,9,7,8,9,3403.2079536999954,3405.234398399989,3406.7496265999944,3411.767732399996,3416.102071699992,3416.1020810999908,3417.618463299994,3418.635248199993,e,9.0,4.334339299995918,1,+1,756,26.955000040085302,0.7743562331983149,0.07167426853801895,3399641.0,7.436254983726219,-0.7515728338973489,0.15029687312647466,3403175.0,,,,,3406.7439605479963,3403.209960547996,
197,55,26,f,1,4,189.0,37,3,low,8 - 1 + 6 - 7 + 5,11,13,12,11,3420.151909299995,3422.179134099992,3423.694432599994,3428.7137313999992,3429.301991899993,3429.301997399991,3430.818495899992,3431.8350530000025,e,11.0,0.5882604999933392,1,+1,757,-17.150199210196217,-0.765749518770213,-7.182442667133862,3416586.0,-23.83123080436698,0.579748316902136,-0.019002681733700122,3420121.0,,,,,3423.689960547996,3420.154960547996,
198,55,26,f,1,5,190.0,0,3,high,3 + 1 + 8 - 5 + 6,13,13,15,14,3467.449563199989,3469.4742582999897,3470.989430100002,3476.008742099992,3478.2381233999918,3478.238128899989,3479.754559199995,3480.7715704,q,13.0,2.229381299999659,1,+10,767,22.193739040830387,0.432145265392192,0.058877019247908224,3463881.0,8.151839290861162,0.3783476999950022,0.02201176605437838,3467415.0,,,,,3470.983960547996,3467.449960547996,
199,55,26,f,1,5,191.0,1,1,low,9 + 8 + 1 + 1 - 1,18,18,17,19,3482.288545599993,3484.3145487,3485.829757899992,3490.847748100001,3491.357981499997,3491.3579867999943,3492.8742675999965,3493.8910831999965,q,18.0,0.5102333999966504,1,+1,768,-49.73752113186869,0.4751276286502346,0.10799123793285581,3478721.0,-8.985851266995489,0.48510682524929294,0.0070301423532757035,3482254.0,,,,,3485.822960547996,3482.289960547996,
