,id,age,sex,cued,block,trial,trialinblock,efflev,rewlev,calc,corAns,option1,option2,option3,tstart,ITI1Time,probTime,respTime,selectTime,ITI2Time,fbTime,ITI3Time,key_press,chosenAns,RT,acc,feedback,total_points,cuescr,cuecor,cuezyg,cuetime,probscr,probcor,probzyg,probtime,fbscr,fbcor,fbzyg,fbtime,probtime_c,cuetime_c,fbtime_c
0,56,38,m,0,Practice,,0,1,0,4 + 1 + 9 + 1 + 1,16,16,15,14,26.683116899992456,,26.68311899999389,31.710267899994506,33.79123279999476,33.79123960000288,35.308262000005925,36.32912929999293,q,16.0,2.0809649000002537,1,Correct,0,,,,,17.437703494121305,-0.40427748862887114,0.2208167449388474,25975.0,16.130513420216502,-0.6189990272561965,-0.43451257458645487,34594.0,26.696403024499354,,35.31540302449935
1,56,38,m,0,Practice,,1,1,0,3 + 1 + 1 + 8 - 1,12,10,11,12,37.84546699999191,,37.84547030000249,42.86621569999261,51.81513329999871,51.815139199999976,53.33201359999657,54.35097189999942,q,10.0,8.948917600006098,0,Incorrect,0,,,,,-21.26593774683535,0.054066183787834454,-0.026375461815262735,37131.0,-9.136071938241205,-0.5308494107517086,-1.4556095517912082,52616.0,37.85240302449935,,53.33740302449935
2,56,38,m,0,Practice,,2,2,0,8 + 1 + 6 + 1 - 4,12,10,12,11,55.86907030000293,,55.8690959999949,60.88862670000526,62.98314070000197,62.983146700004,64.49993399999221,65.51859589999367,w,12.0,2.094513999996707,1,Correct,0,,,,,-10.6835102880014,0.29228208799844335,-0.872619017403391,55153.0,-21.979245297268758,-0.3094127221767202,0.2799666590831862,63783.0,55.87440302449935,,64.50440302449935
3,56,38,m,0,Practice,,3,2,0,9 + 4 - 6 + 1 - 1,7,6,5,7,67.03582590000588,,67.03582869999809,72.05627479999384,74.85530579999613,74.85531189999892,76.37269509999896,77.38993039999332,e,7.0,2.7990310000022878,1,Correct,0,,,,,-7.154742909645928,-0.07258892197991251,-0.14030919725260071,66320.0,-8.53714321537691,0.29343021500026456,-0.020050290127623382,75654.0,67.04140302449935,,76.37540302449935
4,56,38,m,0,Practice,,4,3,0,9 + 3 - 5 + 6 + 7,20,21,20,22,78.90678760000446,,78.90679069999896,83.92588130000513,85.22330399999919,85.22331060000579,86.74029259999224,87.75696840000455,w,20.0,1.2974226999940583,1,Correct,0,,,,,20.60237429389474,0.18088089491896175,0.09568346117359194,78190.0,26.877667619863917,0.015024646673546638,-0.39258382885294285,86022.0,78.91140302449935,,86.74340302449936
5,56,38,m,0,Practice,,5,3,0,2 + 1 + 9 - 7 + 6,11,11,9,10,89.27376270000241,,89.27376559999539,94.29290519999633,95.3913332999946,95.39133919999584,96.90832489999592,97.92638970000552,q,11.0,1.098428099998273,1,Correct,0,,,,,7.743049942591838,0.32661123693427685,0.08002945726652944,88557.0,8.571056285567877,0.013535353812152096,-0.013561871604474973,96191.0,89.27840302449935,,96.91240302449935
6,56,38,m,0,Practice,,6,4,0,4 + 8 + 5 - 3 + 7,21,21,22,23,99.44429539999692,,99.44429830000443,104.46488080000564,105.72729670000264,105.72730250000312,107.24427349999314,108.26243499999693,q,21.0,1.262415899996995,1,Correct,0,,,,,31.378888094415633,-4.0786474866083955,-4.997622009750256,98729.0,-5.584566264746407,-15.790055315100865,-9.814251083864821,106527.0,99.45040302449935,,107.24840302449935
7,56,38,m,0,Practice,,7,4,0,5 + 8 - 4 + 6 + 9,24,23,22,24,109.77999019999696,,109.77999320000526,114.79992449999554,117.04716550000012,117.04717130000064,118.56469339999605,119.58290130000388,e,24.0,2.2472410000045784,1,Correct,0,,,,,25.83381835232167,-0.5839919409848005,-0.6993789478045092,109064.0,20.443558258126608,0.19987150440796952,0.27637312140392023,117847.0,109.78540302449935,,118.56840302449935
8,56,38,m,1,0,0.0,0,4,high,8 + 4 + 7 - 5 - 6,8,9,8,6,171.40490209999552,173.43226739999955,174.94770819999394,179.96641290000116,182.44470649999857,182.44471159999372,183.9618260999996,184.97915990000183,q,9.0,2.4782935999974143,0,+0,0,8.029297122472382,-0.2759304725887559,-0.004824511495243655,170696.0,0.2031454389758176,0.5884484712510463,0.174972546288221,174230.0,-6.952792702914017,0.24291918762270637,-0.06851803142638757,198307.0,174.95140302449934,171.41740302449935,199.02840302449934
9,56,38,m,1,0,1.0,1,4,low,8 + 5 - 4 + 7 + 9,25,25,26,24,186.49634280000464,188.52184699999637,190.0369141999981,195.05579410000064,197.50881060000395,197.50881559999837,199.0256054999918,200.0426503000053,q,25.0,2.453016500003286,1,+1,1,-5.014105559190065,0.43775159817180453,-0.6002053122658038,185786.0,14.771953092163686,0.33218684091781414,0.24923975089293315,189320.0,13.112089964673977,0.25933575278491805,0.048179351437761975,400962.0,190.04140302449935,186.50740302449935,401.68340302449934
10,56,38,m,1,0,2.0,2,4,high,5 + 6 - 4 + 7 + 9,23,24,25,23,201.5595392999967,203.58591789999628,205.10124999999243,210.1197816000058,213.3487535000022,213.34875889999967,214.8648988000059,215.8821176999918,q,24.0,3.2289718999963952,0,+0,1,5.734307823022231,-0.15196046750128822,0.0721951642296037,200850.0,5.335013487387187,0.500710925517386,0.16433645580738365,204384.0,-11.182398923377495,-0.1441648566841014,0.25309805006703257,542840.0,205.10540302449934,201.57140302449935,543.5614030244994
11,56,38,m,1,0,3.0,3,1,low,8 + 1 + 1 + 1 - 3,8,9,8,6,217.39908129999824,219.422089300002,220.93711769999936,225.95624660000607,227.7806872999936,227.78069210000103,229.297407399994,230.3152270999999,q,9.0,1.8244406999874627,0,+0,1,28.270062776472436,0.1992649728149989,-1.039020459864075,216686.0,-5.3093751544153776,-0.27848649983716456,0.10281001571889625,220220.0,-7.821852516260696,0.5416255796024667,0.3419101216150686,242354.0,220.94140302449935,217.40740302449936,243.07540302449937
12,56,38,m,1,0,4.0,4,1,low,6 + 1 + 1 + 7 - 1,14,12,14,13,231.83209460000216,233.856295199992,235.37173250000345,240.3906583999924,241.55665139999476,241.5566565000045,243.0732303999976,244.0902070000011,w,14.0,1.165993000002345,1,+1,2,-8.944704505046563,-0.06781869362753623,-0.15438690997402693,231120.0,14.30369894669295,-0.13769316069070658,0.8751661727775175,234654.0,5.721387477899862,0.18553068270582385,0.6967929401493742,256058.0,235.37540302449935,231.84140302449936,256.77940302449935
13,56,38,m,1,0,5.0,5,1,high,9 + 7 + 1 + 1 + 1,19,20,19,18,245.60711260000244,247.63295590000047,249.14790929999435,254.16591589999732,255.26070729999628,255.260712400006,256.7774156999949,257.79442859999835,w,19.0,1.0947913999989396,1,+10,12,-19.05083770610279,0.5833827567524557,0.8457080342146672,244897.0,-13.807230040910804,-20.48906071631996,-10.16250025505219,248430.0,-15.245563060199398,0.42583912120498835,0.7567838284527957,329826.0,249.15140302449936,245.61840302449934,330.5474030244994
14,56,38,m,1,0,6.0,6,3,high,3 - 7 + 5 + 1 + 9,11,13,12,11,259.3111845999956,261.33365929999854,262.84860680000565,267.8670016999968,270.18095619999804,270.1809610000055,271.69828250000137,272.71593259999645,e,11.0,2.313954500001273,1,+10,22,4.772270270082161,0.16189054804959113,-0.08478807641367059,258597.0,11.726595951789687,0.01584813164494392,0.3469470151371916,262131.0,13.97998211260304,0.21142591152005608,0.15305336283876247,270980.0,262.8524030244993,259.31840302449933,271.70140302449937
15,56,38,m,1,0,7.0,7,4,low,3 + 8 - 4 + 9 + 7,23,23,24,22,274.2329413999978,276.2562404000055,277.77148419999867,282.7898688999994,285.3647204000008,285.36472589999903,286.8812528999988,287.8985481999989,e,22.0,2.5748515000013867,0,+0,22,-12.386251899769736,0.6650400923014632,-3.770192597600262,273519.0,-3.742635166171011,-0.044209506603259285,-0.05473975681603971,277054.0,-8.417489181817281,0.27321847941176447,0.34699128748704444,625321.0,277.7754030244993,274.24040302449936,626.0424030244994
16,56,38,m,1,0,8.0,8,4,low,6 + 7 + 9 - 3 + 5,24,24,22,23,289.41541829999187,291.44189539999934,292.95717159999185,297.9758159000048,301.49276359999203,301.4927683999995,303.00940949999494,304.0265537999949,e,23.0,3.516947699987213,0,+0,22,2.0213856689453404,0.5432001451258732,0.8407795843559212,288706.0,6.3956844995717335,-2.203397874590928,-4.241100482614042,292240.0,-15.94151627444057,0.049636362948634716,5.051355816545003,682841.0,292.96140302449936,289.42740302449937,683.5624030244994
17,56,38,m,1,0,9.0,9,2,low,7 + 1 + 9 - 1 - 8,8,8,7,6,305.5433459000051,307.5719567000051,309.08704109999235,314.10725499999535,315.2526218999992,315.2526269999944,316.7689265999943,317.78582879999885,q,8.0,1.1453669000038644,1,+1,23,-3.030563575075238,0.6119073827670629,1.3150839643595615,304835.0,12.165095802870846,-0.11122870952958497,0.3752455422735659,308371.0,20.637121033280337,0.4872344322030684,-0.034071203732320976,316050.0,309.09240302449933,305.55640302449933,316.77140302449936
18,56,38,m,1,0,10.0,10,1,low,4 + 8 + 1 - 1 - 1,11,9,13,11,319.3022196999955,321.32807740000135,322.843710000001,327.8627400999976,329.02860540000256,329.02861069999926,330.5447383999999,331.56227149999177,e,11.0,1.1658653000049526,1,+1,24,-25.872845191664016,-0.30901200095804526,-0.5305778471815601,318591.0,27.640306052924636,0.661830060218696,0.6302588040301769,322126.0,-52.525949609378635,9.025328819702512,6.927727325479637,360066.0,322.84740302449933,319.31240302449936,360.7874030244993
19,56,38,m,1,0,11.0,11,3,low,5 + 6 + 7 - 1 - 9,8,7,9,8,333.0792503999983,335.1075001999998,336.6228443,341.64235460000054,344.8686502000055,344.86865540000144,346.3852385999926,347.40211579999595,e,8.0,3.22629560000496,1,+1,25,-8.464642676117835,-1.115500040965661,-1.3145422849476938,332371.0,14.796362653557656,0.10711658983842254,0.9050962034678565,335905.0,9.524803259069824,2.269942112220398,-2.5594256789945518,345666.0,336.6264030244993,333.09240302449933,346.38740302449935
20,56,38,m,1,0,12.0,12,1,high,8 + 1 + 4 + 1 + 1,15,14,15,16,348.918762699992,350.9423351000005,352.4573917999951,357.47585889999755,359.26859809999587,359.2686032000056,360.78526319999946,361.80288719999953,w,15.0,1.7927391999983229,1,+10,35,-35.892627432748355,0.40711529610608954,0.47090157212096084,348206.0,-1.3304746996515,-1.2562295929548437,-1.2802779799804105,351739.0,27.64632759812421,-0.13597260691780821,-0.20544345530326646,387338.0,352.4604030244993,348.92740302449937,388.0594030244994
21,56,38,m,1,0,13.0,13,3,high,7 - 6 + 8 + 1 + 7,17,15,17,16,363.3198570999957,365.3427117999963,366.8580476000061,371.8765827000025,372.988586499996,372.98859160000575,374.5051148999919,375.5224369000061,q,15.0,1.1120037999935448,0,+0,35,-9.069329383324028,-0.3231986670862179,1.9224079772285507,362607.0,5.975894866265078,0.17833597713072535,0.7646526364669892,366141.0,6.423126462899598,0.4617415514130814,0.1842094061461812,429082.0,366.8624030244994,363.3284030244994,429.80340302449935
22,56,38,m,1,0,14.0,14,1,high,7 - 1 + 8 + 1 - 1,14,14,13,12,377.0391604000033,379.0600674000016,380.575319399999,385.593735699993,386.5405329000059,386.5405376999988,388.0570609999995,389.0749293999979,q,14.0,0.946797200012952,1,+10,45,2.690754685348761,0.5630176704705105,-0.5348063484943673,376325.0,13.41371621093056,-0.2635483241653205,0.1895436307323215,379857.0,16.596103724815777,0.08605480883079952,0.6097162129785625,414330.0,380.5784030244994,377.04640302449934,415.05140302449934
23,56,38,m,1,0,15.0,15,4,low,5 + 8 - 6 + 7 + 4,18,19,18,17,390.59193169999344,392.6149238999933,394.1301902999985,399.1488147000055,400.1645926000056,400.1645977000008,401.6812687000056,402.6980627000012,w,18.0,1.0157779000001028,1,+1,46,36.40196121280969,0.14968598647721576,-0.9012933034594703,389878.0,-0.3204145856059206,-0.0394757449942138,0.7083534633754716,393412.0,2.136110511176364,0.28899345327382964,5.570064085336305,696441.0,394.13340302449933,390.59940302449934,697.1624030244994
24,56,38,m,1,0,16.0,16,1,high,2 + 9 + 1 + 1 + 1,14,14,12,13,404.2149272999959,406.2418070999993,407.7570076999982,412.7746331999952,413.532504200004,413.5325092999992,415.0493477999989,416.0666574000061,q,14.0,0.7578710000088904,1,+10,56,-14.482675800029014,-0.29522153871293577,0.33442503125022505,403505.0,0.6928142706830016,-1.051948390045005,-0.72601443593316,407038.0,3.9238146543564305,0.22832487432838633,-0.058029131516403654,442498.0,407.75940302449936,404.22640302449935,443.21940302449934
25,56,38,m,1,0,17.0,17,3,high,7 + 5 + 9 + 1 - 6,16,16,14,15,417.5833346,419.6077624000027,421.1230612999934,426.14125250000507,428.2845301000052,428.2845353000012,429.8010958999948,430.8182914000063,q,16.0,2.1432776000001468,1,+10,66,-4.781584661550474,0.2663998607346638,0.2400951279351511,416871.0,11.78119612030129,1.2311740484954523,-0.010800492411049412,420405.0,-9.592838303080446,-0.4566162165205201,-0.06413623928897638,470922.0,421.1264030244993,417.59240302449933,471.6434030244994
26,56,38,m,1,0,18.0,18,1,high,5 + 6 + 1 + 1 + 1,14,14,16,13,432.3353292999964,434.3619192000042,435.8773705000058,440.8952353000059,441.7004659999948,441.700471300006,443.217118799992,444.2346339999931,q,14.0,0.805230699988897,1,+10,76,4.6003627952450525,1.8758542336525625,1.4678734936968674,431625.0,3.8378487738682807,-0.411637344618879,0.2869641322158287,435159.0,25.0228468886013,0.2878340950027487,0.07631340414163645,511209.0,435.88040302449934,432.34640302449935,511.93040302449936
27,56,38,m,1,0,19.0,19,2,high,2 + 1 + 9 - 4 + 1,9,11,9,8,445.75129610000295,447.7907549999945,449.30604460000177,454.3242878000019,455.4524670999963,455.452472200006,456.9689530000032,457.986267100001,w,9.0,1.1281792999943718,1,+10,86,-36.321980222740635,-0.5996917135222501,-0.3843662501604632,445054.0,12.749806240003547,0.10095949218971034,0.3867975604021321,448588.0,13.102069032086918,0.41124628049490397,0.4634754064208637,456250.0,449.3094030244994,445.7754030244993,456.97140302449935
28,56,38,m,1,0,20.0,20,3,high,7 - 1 + 8 - 6 + 4,12,11,12,13,459.5030359999946,461.5289929999999,463.0442798000004,468.0645019999938,470.1245195999945,470.1245252999943,471.6413236999943,472.6590133999998,w,12.0,2.0600176000007195,1,+10,96,-27.38267131689063,-12.748688443285976,-5.454806823501636,458793.0,-24.007240279938827,-0.2907963929245838,0.46638682014433375,462328.0,10.841991889927817,-0.13433431147621233,-0.7934009447507124,528193.0,463.0494030244993,459.51440302449936,528.9144030244994
29,56,38,m,1,0,21.0,21,2,low,8 + 1 + 9 + 1 - 5,14,15,13,14,474.17613579999306,476.201040999993,477.7172008000052,482.7364211999957,483.9084947999945,483.9084998000035,485.4251340000046,486.441175800006,e,14.0,1.1720735999988392,1,+1,97,32.15360273190945,8.74127801121109,5.277558199975634,473464.0,-24.96785822486886,-0.8774563812332747,-0.49381584047952387,477000.0,9.120451452740346,0.12222995152899774,0.32983921909620917,484705.0,477.72140302449935,474.18540302449935,485.42640302449934
30,56,38,m,1,0,22.0,22,2,low,5 + 7 - 8 + 1 + 1,6,7,8,6,487.95781009999337,489.9795973,491.4954619000055,496.5137747999979,497.244403299992,497.2444080999994,498.76102320000064,499.77795020000485,e,6.0,0.7306284999940544,1,+1,98,13.843405391744817,-0.05580641614376658,0.0854775334458282,487243.0,2.934636201664775,0.026314942764787297,0.018619467347483543,490777.0,21.789224229054163,0.566706904686775,0.0035260607555651635,498041.0,491.49840302449934,487.96440302449935,498.76240302449935
31,56,38,m,1,0,23.0,23,1,low,4 + 1 + 1 + 7 - 1,12,12,13,14,501.2950419999979,503.3177507999935,504.8327577000018,509.8513601000013,510.412419500004,510.4124247,511.9290200999967,512.9458704999997,q,12.0,0.5610594000027049,1,+1,99,-37.88548642797364,0.03556467034004651,-0.08783889938769018,500581.0,-5.821170403298975,0.18445167340780433,1.2876525603479507,504115.0,-11.077558542211563,1.7307092188199062,1.5204222558276137,597178.0,504.83640302449936,501.30240302449937,597.8994030244994
32,56,38,m,1,0,24.0,24,3,low,2 - 4 + 9 + 7 + 1,15,13,16,15,514.4626019999996,516.4893721999979,518.0045323999948,523.023428200002,527.3964758999937,527.3964810000034,528.9131477000046,529.9299619999947,e,15.0,4.37304769999173,1,+1,100,0.7178977069338099,0.519887948889802,0.09524573098868627,718113.0,9.309274135263092,-0.002616611038501304,0.15744279302543118,517287.0,3.551348191747154,0.1144621886863324,0.3192375075633025,583825.0,518.0084030244994,718.8344030244995,584.5464030244995
33,56,38,m,1,0,25.0,25,4,low,7 + 8 - 4 + 6 - 5,12,13,12,11,531.446766699999,533.4740770000062,534.9888869999995,540.0071944999945,542.0444000999996,542.0444051999948,543.5604905999935,544.5773593000049,w,12.0,2.037205600005109,1,+1,101,1.0634082433449166,0.13350340117275072,-0.1316091116055207,530738.0,-17.850253458305968,0.15528860254980925,0.667746645045421,534271.0,-10.80902147230961,0.6963713300918863,-3.4560567048895994,761465.0,534.9924030244994,531.4594030244995,762.1864030244994
34,56,38,m,1,0,26.0,26,1,low,2 + 1 + 9 + 1 - 1,12,11,12,13,546.0940771000023,548.1210222999944,549.6361478000035,554.6548627000011,555.7884135000058,555.7884225000016,557.304564799997,558.3214902000036,e,13.0,1.1335508000047412,0,+0,101,28.504840746678457,0.5031032277382703,0.8807039248153921,545384.0,-15.669551316835422,-0.014284630107117557,0.023369329116128768,548918.0,10.302268391403063,0.01630791849473212,4.818770573515546,610777.0,549.6394030244994,546.1054030244994,611.4984030244995
35,56,38,m,1,0,27.0,27,2,high,5 + 8 + 1 - 1 + 9,22,21,22,23,559.8384045999992,561.865032200003,563.3803890999989,568.3991378999926,569.4123685999948,569.4123738000053,570.9289346000005,571.9469883999991,q,21.0,1.0132307000021683,0,+0,101,3.3069531260650713,0.14651135082035793,-0.4231993777005687,559128.0,0.7015097555700862,0.14328833552985687,0.5773757312737777,562662.0,14.29926988542393,0.2197579062345516,-0.010612064547555589,747585.0,563.3834030244994,559.8494030244995,748.3064030244994
36,56,38,m,1,0,28.0,28,3,high,8 + 6 - 7 + 1 - 4,4,4,5,3,573.4637971000047,575.4907060999976,577.0059534000029,582.0243914000021,583.0283531000023,583.0283577999944,584.5446830000001,585.5619450999948,q,4.0,1.003961700000218,1,+10,111,55.68398564102192,-0.16701967666293038,1.4175460237517052,572754.0,-9.385616179817127,0.049339461162040354,0.7009528418670516,576287.0,23.886978883714907,1.9809991947944106,0.9603659606716195,789096.0,577.0084030244994,573.4754030244994,789.8174030244994
37,56,38,m,1,0,29.0,29,1,high,8 + 1 + 5 + 1 + 1,16,16,15,17,587.0788223999989,589.1028598999983,590.6179475999961,595.6358767000056,596.3803565999988,596.3803615999932,597.896928999995,598.914199699997,q,16.0,0.7444798999931663,1,+10,121,-13.54204705238763,3.2207872326033704,-4.259345327355514,586366.0,-21.341827731736736,-0.969839624098332,-0.1283892705933396,589899.0,0.22633079521323118,0.1818315671281554,-0.02884880732996331,639153.0,590.6204030244994,587.0874030244994,639.8744030244994
38,56,38,m,1,0,30.0,30,1,high,2 + 1 + 9 + 1 - 1,12,11,13,12,600.4308358999988,602.4577634000016,603.9730285999976,608.991340099994,609.9804713000049,609.9804765000008,611.4970183999976,612.5145874000009,e,12.0,0.9891312000108884,1,+10,131,-8.403184001016566,-0.8046572533694198,-0.418649972255678,599721.0,5.422518152342548,-0.07662269774663111,0.7247349558082901,603254.0,-15.755412198339396,2.1833504235366687,2.529255997349023,652785.0,603.9754030244994,600.4424030244994,653.5064030244994
39,56,38,m,1,0,31.0,31,4,high,6 + 9 + 7 - 3 - 5,14,14,12,13,614.0323661000002,616.0567522999918,617.5721097999922,622.5907658999931,624.5242681999953,624.524272900002,626.0407500000001,627.0580753999966,q,14.0,1.9335023000021463,1,+10,141,6.617407144539208,0.7176797625391718,-1.0178463534592663,613320.0,11.615912261952133,-1.896857336371827,-0.8844989970042128,616854.0,-13.05296755791381,-0.0724263805037535,2.7090447967343647,775416.0,617.5754030244995,614.0414030244995,776.1374030244995
40,56,38,m,1,0,32.0,32,1,low,3 + 1 + 1 + 9 - 1,13,12,14,13,628.5745851999964,630.6004244999931,632.1155887999921,637.1337162999989,638.3563452999952,638.3563505999919,639.8736250999937,640.8907139999937,e,13.0,1.222628999996232,1,+1,142,42.93654904220185,0.33440152101163,0.7316360171010889,627863.0,7.009087895628351,-0.687411609901027,0.5599006958472161,631397.0,4.41267898784001,-2.9755191972001276,-4.150247998962926,710017.0,632.1184030244995,628.5844030244995,710.7384030244995
41,56,38,m,1,0,33.0,33,1,high,3 + 1 + 8 + 1 + 1,14,13,14,12,642.4077035999944,644.4332858999987,645.9486217999947,650.9665633999975,651.9882297000004,651.9882347999956,653.5047991000029,654.5220551999955,w,14.0,1.0216663000028348,1,+10,152,-0.9393460675306073,-0.38725484257840703,-0.8276950021975913,641696.0,-13.672010982055768,0.15412274516585445,0.699049728512672,645230.0,2.6737333729174413,3.877828713801454,3.556172509890887,802681.0,645.9514030244994,642.4174030244994,803.4024030244994
42,56,38,m,1,0,34.0,34,4,low,7 + 6 - 9 + 8 - 3,9,8,9,7,656.0391490000038,658.0641650000034,659.5794623999973,664.5998690999986,668.5642580999993,668.5642631999945,670.0806559000048,671.0972291999933,e,7.0,3.964389000000665,0,+0,152,23.37562406791027,-4.6020624682500815,-1.910627757422874,655327.0,-0.009394086333909257,-0.9836361843466523,-0.4379169143834596,658863.0,-30.001519303817624,5.174846406919432,4.526780072565151,859440.0,659.5844030244995,656.0484030244994,860.1614030244995
43,56,38,m,1,0,35.0,35,4,low,7 + 6 - 4 + 9 - 5,13,13,14,12,672.6138845999958,674.635775200004,676.1506232999964,681.1702514000062,682.0442955000035,682.0443006999994,683.560899899996,684.5787098000001,q,13.0,0.8740440999972634,1,+1,153,14.656613070250419,0.1806356804669922,-0.5860143380668861,671899.0,-0.12305503564652653,-0.24087005389848581,0.714890477916001,675433.0,17.007849050730208,0.5741945808217239,-2.6041842715797614,872944.0,676.1544030244994,672.6204030244994,873.6654030244994
44,56,38,m,1,0,36.0,36,4,high,5 + 8 - 4 - 6 + 9,12,13,14,12,686.0955128999922,688.121393399997,689.6362921999971,694.6546932000056,695.6442052000057,695.6442104000016,697.1608214000007,698.1782535999955,e,12.0,0.9895120000001044,1,+10,163,2.8997971219383887,0.12035526526414442,-0.3953610208077265,685384.0,-17.509674804128963,0.21136553146535553,1.3100666137211305,688917.0,19.089401462022813,0.8655338880937684,-2.4963241902497915,888328.0,689.6384030244994,686.1054030244994,889.0494030244994
45,56,38,m,1,0,37.0,37,1,high,6 + 9 + 1 + 1 - 1,16,14,15,16,699.694971799996,701.7177207999921,703.2329271000053,708.2511862999963,709.2202001999976,709.2202052999928,710.7367033000046,711.7537906999933,e,16.0,0.9690139000013004,1,+10,173,1.4524252713975283,0.46520644669416944,-1.128274712037403,698981.0,7.452136771599035,-0.20794364704695623,0.7993474898841302,702514.0,-8.853868940078986,0.12741824102426014,0.47229170599707726,901864.0,703.2354030244994,699.7024030244994,902.5854030244994
46,56,38,m,1,1,38.0,0,3,low,8 + 5 + 1 - 7 + 9,16,14,16,17,718.8246484999981,720.8500291999953,722.3649737999949,727.3848988999962,732.4023992000002,732.4024018000055,733.9194376999949,734.9432531999919,,,,0,Too Slow!,173,-17.57309927836767,0.7395072374455767,0.8441776585382985,777955.0,23.918933536116292,-0.04634094151196155,0.5972794430508772,721648.0,-11.382470884301354,-1.078267611655538,-0.1554832035539273,733206.0,722.3694030244994,778.6764030244995,733.9274030244994
47,56,38,m,1,1,39.0,1,2,low,7 + 8 + 1 + 9 + 1,26,24,25,26,736.4603929000004,738.487555899992,740.002925599998,745.0226660000044,746.7881633999932,746.7881684000022,748.305245800002,749.3221303000028,e,26.0,1.765497399988817,1,+1,174,-10.771897562047766,0.21428353283561563,0.09527005776918784,513752.0,16.877753649281033,0.11125616819392659,1.1606366300551785,739285.0,,,,,740.0064030244994,514.4734030244994,
48,56,38,m,1,1,40.0,2,4,high,7 + 6 - 9 + 8 - 3,9,8,7,9,750.8388303999964,752.8631179999938,754.3784558000043,759.3970648999966,760.6681272999995,760.6681320999924,762.1845257999958,763.2028234000027,e,9.0,1.2710624000028474,1,+10,184,-23.02223887943574,-5.622075808669434,-3.8342833088713584,750125.0,-17.233776896055613,-0.11240776404733799,0.5138004729109129,753660.0,,,,,754.3814030244994,750.8464030244994,
49,56,38,m,1,1,41.0,3,4,low,4 + 9 - 7 + 8 + 5,19,21,20,19,764.7202749999997,766.746524000002,768.2616929999931,773.280428099999,774.6201136000018,774.6201181999932,776.1361668000027,777.1531925000018,e,19.0,1.3396855000028154,1,+1,185,-2.002969969418203,-0.8557493182103766,-7.815163278388043,764008.0,-0.968238377181109,-0.04585244297794899,0.8539038851137803,767543.0,,,,,768.2644030244994,764.7294030244994,
50,56,38,m,1,1,42.0,4,3,low,8 + 3 + 1 - 7 + 9,14,14,12,15,778.669604499999,780.6921225999977,782.2070931000053,787.2252821000002,788.3003431999969,788.3003480000043,789.8163806999946,790.8333153999993,q,14.0,1.075061099996674,1,+1,186,-3.9716266738955994,-7.107506736595151,-7.808520441131617,819297.0,-4.179004239701754,-0.07669902329354494,0.4904882161801769,781488.0,,,,,782.2094030244995,820.0184030244994,
51,56,38,m,1,1,43.0,5,1,high,6 + 1 + 8 + 1 + 1,17,17,15,16,792.350021899998,794.3761614999967,795.8915227999969,800.9098513000063,801.8841440999968,801.8841491000057,803.4010533999972,804.4186324000038,q,17.0,0.9742927999905078,1,+10,196,-19.70924849014453,-0.21661969959873772,-0.01754485480584078,791638.0,-3.433892062485633,0.0531219102297209,1.134271861873016,795172.0,,,,,795.8934030244994,792.3594030244994,
52,56,38,m,1,1,44.0,6,2,high,4 + 8 + 1 + 1 - 6,8,8,9,7,805.9354706000013,807.9613285999949,809.4761143999931,814.4940951000026,815.9560610000044,815.9560660999996,817.4726759000041,818.4900278999994,q,8.0,1.4619659000018146,1,+10,206,-3.6953315609876576,-1.0951465427058915,-0.9268865542519089,805224.0,2.9309707847247353,-0.1020098113192307,0.6679674131308326,808757.0,,,,,809.4784030244994,805.9454030244995,
53,56,38,m,1,1,45.0,7,3,low,5 + 6 - 4 - 1 + 8,14,15,14,16,820.0068363000028,822.0342118999979,823.5491086999973,828.5687209000025,830.7881114000047,830.7881161999976,832.3044396000041,833.3219800999941,w,14.0,2.2193905000021914,1,+1,207,20.654012312184754,-0.25543584176642575,-0.5658023700321992,959558.0,22.017522629159487,-0.22672996663639466,0.5613920614138743,822830.0,,,,,823.5514030244995,960.2794030244994,
54,56,38,m,1,1,46.0,8,2,high,3 - 1 + 9 - 5 + 1,7,6,5,7,834.8388195000007,836.867376299997,838.3826274000021,843.400996700002,845.5720701999962,845.5720753999922,847.0884252999967,848.1054721999972,q,6.0,2.171073499994236,0,+0,207,8.76868463868653,-2.9860573554964507,-2.633400617949228,834129.0,25.5108034732425,-5.50995235920516,-4.1581388419535426,837663.0,,,,,838.3844030244994,834.8504030244994,
55,56,38,m,1,1,47.0,9,4,low,5 + 7 - 4 - 6 + 9,11,11,12,13,849.6222058999992,851.6453438000026,853.160659000001,858.1794368999981,858.643997799998,858.6440025000047,860.1606139999931,861.1774688000005,q,11.0,0.464560899999924,1,+1,208,-17.540482094293345,-2.180057771818669,-1.6323706974183634,848908.0,-0.06822381108593234,-0.1791769912400194,0.2768134926771575,852442.0,,,,,853.1634030244994,849.6294030244994,
56,56,38,m,1,1,48.0,10,4,low,5 + 9 - 4 + 7 + 6,23,24,23,25,862.6943186999997,864.7164202999993,866.2316635000025,871.2500699999946,872.1480250000022,872.1480300999974,873.6646906999958,874.6816439999966,w,23.0,0.8979550000076415,1,+1,209,7.048005981266897,-0.008583844404084218,-0.1287087030341092,861979.0,8.735655049038215,-0.12877773315661978,0.6379007073288343,865512.0,,,,,866.2334030244994,862.7004030244995,
57,56,38,m,1,1,49.0,11,4,low,3 + 8 - 5 + 9 - 7,8,6,8,7,876.1987673999975,878.2246530999982,879.7396871999954,884.7583294999931,887.5320386999956,887.5320441999938,889.0491042999929,890.066126699996,w,8.0,2.773709200002486,1,+1,210,7.369116265549052,0.11063118508686465,0.2232487102796621,875487.0,8.829355364084972,-0.0983728073387713,0.5507547246339224,879021.0,,,,,879.7424030244994,876.2084030244994,
58,56,38,m,1,1,50.0,12,1,high,5 + 6 + 1 + 1 + 1,14,16,15,14,891.582943100002,893.6098345999926,895.1248858000035,900.1434767000028,901.0679560999996,901.0679609999934,902.5846563999949,903.6023298999936,e,14.0,0.924479399996926,1,+10,220,-1.8607492080577224,2.337269907967385,1.1145014047062878,890872.0,27.569498857849105,-0.497372499005182,-0.05926780308011237,894405.0,,,,,895.1264030244994,891.5934030244994,
59,56,38,m,1,1,51.0,13,2,low,5 - 1 + 1 + 8 + 9,22,23,22,21,905.1201517000007,907.1475541999972,908.6625070000008,913.6813258000038,916.0121210999932,916.0121265000053,917.5283134999918,918.5452463999972,w,22.0,2.330795299989404,1,+1,221,14.886514651616768,0.07520103946606072,0.04541223985844356,735750.0,-27.036741823959407,0.19541733391200022,0.8514117720636509,907943.0,,,,,908.6644030244994,736.4714030244994,
60,56,38,m,1,1,52.0,14,1,high,7 - 1 + 9 + 1 - 1,15,14,15,13,920.0619911999966,922.088564699996,923.6038979000004,928.6224064999988,929.5799913999944,929.5799963000028,931.0964661000036,932.1138775,w,15.0,0.9575848999957088,1,+10,231,20.476910600675268,1.8957601524909569,0.7573903069058314,919351.0,2.918291077505253,0.27031352212660664,1.252289043059126,922884.0,,,,,923.6054030244994,920.0724030244994,
61,56,38,m,1,1,53.0,15,3,high,4 + 8 - 9 + 1 + 7,11,11,9,13,933.6306183999986,935.6553617000028,937.1706336999924,942.1892667999928,942.7799964000004,942.7800010999928,944.2963675999928,945.3135713999944,q,11.0,0.5907296000077622,1,+10,241,57.082130858634706,-19.85635917458577,-13.392052729218484,932917.0,30.799463962190842,-2.8800792013355627,-2.7538643401010283,936451.0,,,,,937.1724030244994,933.6384030244994,
62,56,38,m,1,1,54.0,16,4,high,9 + 8 - 5 - 7 + 6,11,10,11,13,946.830859499998,948.856487099998,950.371785299998,955.390574799996,956.220008000004,956.2200139000053,957.7368009999918,958.7540443000034,w,11.0,0.8294332000077702,1,+10,251,13.647819231627237,0.19248302860939148,1.3357859790044335,946118.0,-23.46550329248176,-0.06702414459745532,1.3515858265205618,949652.0,,,,,950.3734030244995,946.8394030244995,
63,56,38,m,1,1,55.0,17,3,low,5 + 7 + 1 - 4 + 6,15,17,15,13,960.2708639000048,962.2959708999988,963.8113776999962,968.8292398000048,970.0278937999974,970.0278987999918,971.5445534000028,972.5617950000014,w,15.0,1.19865399999253,1,+1,252,27.334786264388583,0.6889682828533235,0.030706508195882165,973366.0,-17.788203947953996,0.5161893856642734,1.081961966308131,963092.0,,,,,963.8134030244994,974.0874030244994,
64,56,38,m,1,1,56.0,18,3,low,2 + 1 + 9 - 5 + 6,13,14,13,11,974.0787425000016,976.1045321999992,977.6202620999976,982.638599500002,983.1639506999928,983.1639557000016,984.680483499993,985.6973698999936,w,13.0,0.5253511999908369,1,+1,253,-27.135319073109713,-0.05549422788302616,0.09047134036717197,1015669.0,-19.275580110300158,0.48969162433209457,0.9535308225272643,976900.0,,,,,977.6214030244994,1016.3904030244994,
65,56,38,m,1,1,57.0,19,1,high,7 + 1 + 5 + 1 - 1,13,12,13,14,987.2141309,989.2402050999954,990.7556662999996,995.7738353000022,998.2839238000016,998.283928799996,999.8003915000008,1000.817369700002,w,13.0,2.510088499999256,1,+10,263,3.0830815115870505,0.06317598617213172,-0.041535234430705614,986502.0,-4.163205869425518,0.09817605791589346,0.35130702929468693,990036.0,,,,,990.7574030244994,987.2234030244994,
66,56,38,m,1,1,58.0,20,2,low,4 + 9 - 7 + 1 - 1,6,8,6,5,1002.334203099992,1004.3616858000024,1005.8765955999988,1010.8947928999988,1012.3319233999936,1012.3319286000042,1013.8487385000044,1014.8655870999936,w,6.0,1.4371304999949643,1,+1,264,23.813990433529312,0.055001709108218666,0.11125195763137019,904410.0,1.8161840521298607,-0.029651237235277517,0.5809633366577962,1005157.0,,,,,1005.8784030244994,905.1314030244994,
67,56,38,m,1,1,59.0,21,3,low,5 - 1 - 4 + 6 + 7,13,13,14,15,1016.382304999992,1018.4084101000044,1019.9238065999962,1024.943960100005,1025.459943299997,1025.4599484999926,1026.9764482000028,1027.9933124999952,q,13.0,0.5159831999917515,1,+1,265,17.4731737877668,-0.42629923307840256,-0.33528434843267885,1083415.0,8.048023011781147,0.6656514399931783,0.11639400683774803,1019206.0,,,,,1019.9274030244994,1084.1364030244993,
68,56,38,m,1,1,60.0,22,2,high,9 + 1 + 6 + 7 + 1,24,24,25,23,1029.5100627999927,1031.537568899992,1033.0527970999974,1038.0704546000052,1038.651879900004,1038.6518847999978,1040.1686375999998,1041.1867940999946,q,24.0,0.5814252999989549,1,+10,275,-0.39498482487879105,2.138688627146694,2.1718723688406896,1028798.0,-9.270321178638369,-0.057172676904813535,0.4312957190295488,1032333.0,,,,,1033.0544030244994,1029.5194030244993,
69,56,38,m,1,1,61.0,23,1,low,7 + 1 + 4 + 1 - 1,12,11,13,12,1042.7040259999922,1044.7304310000036,1046.2453852000035,1051.265398100004,1051.9639255999937,1051.963930500002,1053.4803460999974,1054.4970806000056,e,12.0,0.6985274999897229,1,+1,276,-15.079775976169515,0.17549835335609942,0.038531181252351,1041992.0,-1.9289483137425805,0.1722990684114658,0.9458411881201414,1045527.0,,,,,1046.2484030244993,1042.7134030244993,
70,56,38,m,1,1,62.0,24,2,low,6 + 1 + 7 + 5 - 1,18,17,18,16,1056.0138850999938,1058.0413165999926,1059.5570062000045,1064.5755108000012,1065.8279114000034,1065.8279163999978,1067.3443914999953,1068.3613914000016,w,18.0,1.2524006000021473,1,+1,277,-0.2339301740732731,6.851490083764605,4.529328940830062,1001623.0,1.6404821261241445,-0.15111936207853427,1.075069205711627,1058837.0,,,,,1059.5584030244993,1002.3444030244995,
71,56,38,m,1,1,63.0,25,1,low,6 + 9 + 1 + 1 - 1,16,15,16,14,1069.8779949000018,1071.9050655000028,1073.4203274000029,1078.4382914000016,1080.0758220999996,1080.0758269999933,1081.5923114000034,1082.6096964000026,w,16.0,1.637530699998024,1,+1,278,13.615205146807263,-0.22713654629290003,-0.9124107885596171,1069166.0,16.694689268139467,-2.830586980782641,-2.378353695334146,1072700.0,,,,,1073.4214030244993,1069.8874030244992,
72,56,38,m,1,1,64.0,26,3,low,9 - 5 - 1 - 6 + 8,5,5,4,7,1084.126424000002,1086.1539516000048,1087.669217200004,1092.6882493000012,1093.4918741,1093.4918794999976,1095.0082122000022,1096.0251844000013,q,5.0,0.8036247999989428,1,+1,279,-4.9311538136060555,-1.9315120270394686,-4.053186980095014,1176479.0,3.0775323860466113,-0.34967435853308393,0.8016423808796151,1086949.0,,,,,1087.6704030244994,1177.2004030244993,
73,56,38,m,1,1,65.0,27,2,low,5 - 8 + 7 + 1 + 1,6,6,8,7,1097.5420653000035,1099.5690101999935,1101.0842821999977,1106.1028178999986,1106.667817900001,1106.667822599993,1108.184318899992,1109.2012856999936,q,6.0,0.5650000000023283,1,+1,280,-30.01496254175404,-0.019119328209183717,0.12393835977074286,1055302.0,29.022934066101655,-0.05413545827495936,0.3831175379752647,1100364.0,,,,,1101.0854030244993,1056.0234030244992,
74,56,38,m,1,1,66.0,28,1,low,9 + 1 + 1 + 7 - 1,17,16,17,19,1110.718208499995,1112.745926699994,1114.262042500006,1119.2804022000057,1120.0437733,1120.0437784999958,1121.560562700004,1122.5775865000032,w,17.0,0.7633710999944014,1,+1,281,-7.167366338155739,-0.3761163646451897,0.7449253604798143,1110007.0,12.509212960077244,-1.0464306581726324,0.05266474962887946,1113542.0,,,,,1114.2634030244992,1110.7284030244994,
75,56,38,m,1,1,67.0,29,2,low,4 + 8 + 1 + 1 - 5,9,9,8,11,1124.0943765999982,1126.1216733000035,1127.6365805999958,1132.6553698000062,1133.227774300001,1133.227779199995,1134.7442359999986,1135.7612231999956,q,9.0,0.572404499995173,1,+1,282,34.27056488241483,-0.061615066591516054,0.008974378039809494,1096830.0,17.320171051932718,0.4390715538538146,0.6112114204939387,1126916.0,,,,,1127.6374030244992,1097.5514030244992,
76,56,38,m,1,1,68.0,30,2,low,7 + 6 + 1 + 8 + 1,23,21,23,22,1137.278248100003,1139.3020968999915,1140.8173578999997,1145.8356561999972,1146.459799599994,1146.4598044000013,1147.9765521999943,1148.9936283999996,w,23.0,0.624143399996683,1,+1,283,18.619213454364576,-0.38339070642721085,-0.23633411377714753,1123383.0,14.387767434747353,0.25338600482656704,0.8841819383409328,1140097.0,,,,,1140.8184030244993,1124.1044030244993,
77,56,38,m,1,1,69.0,31,1,high,6 + 9 + 1 + 1 - 1,16,15,14,16,1150.5101830000058,1152.536137300005,1154.051490800004,1159.0696758999984,1159.8117612999922,1159.8117662000004,1161.3282353999966,1162.3453769000043,e,16.0,0.7420853999938117,1,+10,293,34.832780916948266,1.1250247568659733,-0.4432171175010695,1149797.0,12.336543556603726,-2.9285835948157217,-3.102507447989673,1153331.0,,,,,1154.0524030244992,1150.5184030244993,
78,56,38,m,1,1,70.0,32,3,high,7 - 1 + 8 - 6 + 4,12,13,12,11,1163.862641700005,1165.8864968999987,1167.4016217000026,1172.4198563999962,1173.1397544999927,1173.1397596000024,1174.656153799995,1175.673866099998,w,12.0,0.7198980999964988,1,+10,303,-16.91187827698871,-0.05400130438245565,0.026875167190592464,1163148.0,19.98236582261911,0.6223643866026194,0.9787585535928778,1166681.0,,,,,1167.4024030244993,1163.8694030244992,
79,56,38,m,1,1,71.0,33,3,low,7 + 1 + 9 + 5 - 6,16,15,14,16,1177.190646300005,1179.217903900004,1180.7331181000045,1185.7515029999922,1188.1237202000048,1188.1237251999992,1189.640297399994,1190.657255900005,e,16.0,2.3722172000125283,1,+1,304,-2.9956854875876733,0.4908742753997628,1.7080838149159807,1248271.0,-16.603299486395482,0.3716522823074997,0.9233027512287588,1180013.0,,,,,1180.7344030244992,1248.9924030244993,
80,56,38,m,1,1,72.0,34,3,high,3 + 1 + 8 - 5 + 6,13,15,14,13,1192.174216600004,1194.2002581999986,1195.7152538999944,1200.7334966000053,1201.4918210000033,1201.4918263,1203.009227400005,1204.0266884000011,e,13.0,0.7583243999979459,1,+10,314,-10.076971616980853,0.22346801053777332,-1.2083772722911488,1191461.0,12.28003130499594,0.15949289208202488,0.2683668674793629,1194995.0,,,,,1195.7164030244992,1192.1824030244993,
81,56,38,m,1,1,73.0,35,1,high,5 + 9 - 1 + 1 + 1,15,13,15,17,1205.5434500999982,1207.5690239999967,1209.0843707000022,1214.1024505999958,1214.627679600002,1214.627684299994,1216.1440398999985,1217.161289399999,w,15.0,0.5252290000062203,1,+10,324,-15.56810228240515,-0.392635559006576,-1.007621461911338,1204830.0,12.053052996468937,0.14939201405579938,0.5766468935383087,1208363.0,,,,,1209.0844030244994,1205.5514030244992,
82,56,38,m,1,1,74.0,36,2,high,3 + 8 - 5 + 1 + 1,8,9,6,8,1218.6778946999984,1220.7053388000058,1222.2205713000003,1227.238574899995,1227.8356900999934,1227.8356950000016,1229.3524767000054,1230.3702410999977,e,8.0,0.5971151999983704,1,+10,334,-0.814318495412774,0.33217167219744903,0.25955778445927646,1217966.0,-8.983256631549791,0.09539626744780216,0.5550685420661818,1221499.0,,,,,1222.2204030244993,1218.6874030244992,
83,56,38,m,1,1,75.0,37,1,low,8 + 1 + 1 - 1 - 4,5,3,6,5,1231.8869978000002,1233.9138079999975,1235.428967899992,1240.4481566000031,1241.1317276000043,1241.131732599999,1242.6482672999991,1243.6651474999962,e,5.0,0.6835710000013933,1,+1,335,9.386897348194292,0.1504811460681883,-0.3265277380510203,1231174.0,16.97611165950144,0.00798737703569552,0.4691787357706887,1234709.0,,,,,1235.4304030244994,1231.8954030244993,
84,56,38,m,1,2,76.0,0,3,low,6 - 1 + 7 - 8 + 9,13,13,12,11,1248.9833858999918,1251.0099632999918,1252.5251854999951,1257.5438140000042,1258.5956618000057,1258.5956669000009,1260.1120747999958,1261.1289479999978,q,13.0,1.0518478000012692,1,+1,336,8.154901846884755,0.17802715527392365,-0.2070471331431114,1301481.0,-5.767672333163702,-0.600795773288707,0.9893568542858344,1251805.0,,,,,1252.5264030244994,1302.2024030244993,
85,56,38,m,1,2,77.0,1,3,high,2 + 1 + 9 - 7 + 6,11,13,11,12,1262.6457263000048,1264.6689360000018,1266.1841854999948,1271.2027272999983,1271.9157221999922,1271.9157275000034,1273.4323298999952,1274.4495533000008,w,11.0,0.712994899993646,1,+10,346,-1.0642059488796098,0.7167811585008828,0.7614159744813236,1261930.0,43.2361142251966,-0.28717121048144945,0.39195777565486045,1265463.0,,,,,1266.1844030244993,1262.6514030244994,
86,56,38,m,1,2,78.0,2,2,low,8 + 1 + 1 + 9 - 4,15,15,16,14,1275.966102899998,1277.9895267999964,1279.5049221999943,1284.5230866000056,1285.067691499993,1285.067696500002,1286.5842362999974,1287.600794099999,q,15.0,0.544604899987462,1,+1,347,0.5139067768020134,0.6735236797541995,1.2302850233753868,1136563.0,8.1589943999803,0.164457413675279,0.4675719256993709,1278784.0,,,,,1279.5054030244994,1137.2844030244994,
87,56,38,m,1,2,79.0,3,3,high,8 - 1 + 6 - 7 + 5,11,11,12,13,1289.1174657999943,1291.1448222000035,1292.6597286000033,1297.678635999997,1298.1476586999925,1298.1476637000014,1299.6641311999992,1300.6812884999963,q,11.0,0.4690226999955484,1,+10,357,1.6092946797402838,-0.02174854914245028,0.11142865196253271,1288405.0,7.32202895833808,0.5482646415941441,0.7359989526746598,1291939.0,,,,,1292.6604030244994,1289.1264030244993,
88,56,38,m,1,2,80.0,4,3,low,9 - 1 + 5 - 6 + 8,15,14,15,17,1302.1980290999927,1304.2201408999972,1305.735452499997,1310.7536560000008,1311.291606500003,1311.2916112999956,1312.8083626000007,1313.8252490000011,w,15.0,0.537950500001898,1,+1,358,-13.305272933615743,0.013758278539772961,-0.18795384845544483,1371277.0,9.989064731149373,-2.825816963290339,-1.1592604650488,1305014.0,,,,,1305.7354030244992,1371.9984030244993,
89,56,38,m,1,2,81.0,5,4,low,6 + 5 - 7 + 8 - 9,3,5,3,4,1315.3419534999994,1317.3651565000036,1318.880294500006,1323.8995771000043,1327.595613700003,1327.5956191000005,1329.112171700006,1330.129262699993,q,5.0,3.696036599998479,0,+0,358,-27.297586958345697,0.20222293574461903,-0.2447106194129478,1314626.0,-17.5021962657416,0.23361541919419304,1.0988726698500924,1318159.0,,,,,1318.8804030244994,1315.3474030244993,
90,56,38,m,1,2,82.0,6,2,high,9 + 6 + 1 + 7 + 1,24,25,24,23,1331.646479499992,1333.6731089999955,1335.1880526000025,1340.2061332000012,1340.6995754999953,1340.6995807000058,1342.215886799997,1343.2330752999987,w,24.0,0.493442299994058,1,+10,368,-0.6980007483590835,0.2529958411624187,-0.3459893003225707,1330933.0,-9.289217707883424,0.29571902955583607,0.9316948262445415,1334467.0,,,,,1335.1884030244994,1331.6544030244993,
91,56,38,m,1,2,83.0,7,2,high,8 + 1 + 4 - 7 + 1,7,7,6,5,1344.7503562999918,1346.7760917999983,1348.291326099992,1353.311360599997,1353.8195735000045,1353.8195785999997,1355.3360673999996,1356.353482999999,q,7.0,0.5082129000074929,1,+10,378,6.863012278509437,0.4260449599761946,-0.14110492157668064,1344036.0,-24.433666779780033,-0.2080145514876568,0.11042956421514605,1347572.0,,,,,1348.2934030244992,1344.7574030244994,
92,56,38,m,1,2,84.0,8,4,low,5 + 7 - 4 - 6 + 9,11,13,12,11,1357.8702774999983,1359.8964145999926,1361.4116535999929,1366.4307050999923,1367.9396153999987,1367.939620499994,1369.4562042000034,1370.4731842000035,q,13.0,1.5089103000063917,0,+0,378,-44.478957128669016,-2.9975542537245827,-4.109399888691287,1357157.0,8.409319203074082,-0.1779944659926911,0.13482138786845432,1360690.0,,,,,1361.4114030244994,1357.8784030244992,
93,56,38,m,1,2,85.0,9,3,low,6 + 1 + 8 + 7 - 9,13,14,13,15,1371.9902049999946,1374.0170407999976,1375.5322672000038,1380.550934400002,1384.251488599999,1384.2514934999926,1385.7681029999949,1386.7853500000056,e,15.0,3.7005541999969855,0,+0,378,-16.234124792756155,0.15066497904243503,0.13298354528341605,1468470.0,-34.212065896143685,2.3001947533709877,2.9651128795026036,1374811.0,,,,,1375.5324030244992,1469.1914030244993,
94,56,38,m,1,2,86.0,10,2,high,6 + 1 + 1 + 7 - 9,6,6,4,8,1388.302089100005,1390.328621499997,1391.843845800002,1396.862379500002,1397.9395160999993,1397.9395211999945,1399.4560692999949,1400.4732068000012,q,6.0,1.077136599997175,1,+10,388,1.5750311456716446,0.07486849049887523,-2.333274871912586,1387589.0,16.290524702835597,0.061773925938881424,0.1940875204806236,1391123.0,,,,,1391.8444030244993,1388.3104030244992,
95,56,38,m,1,2,87.0,11,2,high,8 + 1 + 7 + 1 - 4,13,14,13,12,1401.9902524999925,1404.0137402999972,1405.5289598999952,1410.5473972000036,1411.5794944999943,1411.5794998000056,1413.0958851000032,1414.113072399996,w,13.0,1.03209729999071,1,+10,398,-4.390296707506568,2.8958007047345404,0.4440206532517603,1401274.0,-6.014661236090777,-1.3144195592529915,-0.15810867664842654,1404808.0,,,,,1405.5294030244993,1401.9954030244992,
96,56,38,m,1,2,88.0,12,2,low,6 + 1 + 1 + 8 - 9,7,5,9,7,1415.6295732,1417.656895799999,1419.1721220000036,1424.1902226999955,1425.4199334000004,1425.4199389999994,1426.9363980000053,1427.9532953000016,q,5.0,1.2297107000049436,0,+0,398,6.945358725698154,0.35631343196026943,0.2225940713320398,1275250.0,0.365777812203703,-0.18505473647166415,0.5698131449339638,1418450.0,,,,,1419.1714030244993,1275.9714030244993,
97,56,38,m,1,2,89.0,13,1,high,3 + 1 + 1 + 8 - 1,12,14,12,13,1429.471099000002,1431.4996013000057,1433.0154518000054,1438.0335231000065,1438.5634624999948,1438.563467400003,1440.0805448000028,1441.0979194999964,w,12.0,0.5299393999885069,1,+10,408,4.683506142834743,0.8633587945321068,-2.4244509889445354,1428760.0,10.86506284974546,0.13350711283908012,0.8130258406283692,1432294.0,,,,,1433.0154030244994,1429.4814030244993,
98,56,38,m,1,2,90.0,14,1,low,6 + 1 + 1 + 9 - 1,16,14,15,16,1442.6148192999972,1444.6422593000025,1446.157566599999,1451.1756915000003,1451.891516599993,1451.8915216000023,1453.4080748999986,1454.4256181999954,e,16.0,0.7158250999927986,1,+1,409,10.040096769890592,0.006588719550859157,-0.011060412817511356,1441902.0,13.664784445717974,-0.3283962089133552,1.1869646579109672,1445436.0,,,,,1446.1574030244992,1442.6234030244993,
99,56,38,m,1,2,91.0,15,2,low,9 + 4 + 5 + 1 - 1,18,18,17,19,1455.9423303999938,1457.970864300005,1459.4870080999972,1464.504966499997,1465.1314641999925,1465.131469100001,1466.6482132999954,1467.6655117000046,q,18.0,0.6264976999955252,1,+1,410,5.124514560488514,-0.13668383145357632,-0.12351407644406942,1414917.0,16.937423745250385,-0.006047899898034448,0.10119725557818882,1458765.0,,,,,1459.4864030244994,1415.6384030244992,
100,56,38,m,1,2,92.0,16,3,low,4 + 8 - 3 + 5 - 1,13,12,14,13,1469.181844199993,1471.2097605000015,1472.7250778000016,1477.7431612999935,1478.5155248999945,1478.5155303999927,1480.032145899997,1481.048938699998,e,13.0,0.7723636000009719,1,+1,411,-10.84054244456868,-0.039090223544266944,-0.22156456899462817,1604739.0,-33.43925102212933,0.24594742062839048,0.2077023978098853,1472003.0,,,,,1472.7244030244992,1605.4604030244993,
101,56,38,m,1,2,93.0,17,3,high,4 + 1 + 8 + 9 - 5,17,17,19,18,1482.5656853999972,1484.5905641999998,1486.1058877000032,1491.1240754000028,1491.8754722000012,1491.8754771999957,1493.392123800004,1494.4095055999933,q,17.0,0.7513967999984743,1,+10,421,1.4344558229514943,0.01787951549683653,0.23798469671383105,1481850.0,20.536831515880543,0.22345887561467181,1.3147102355777531,1485384.0,,,,,1486.1054030244993,1482.5714030244992,
102,56,38,m,1,2,94.0,18,1,high,8 - 1 + 1 + 6 + 1,15,15,14,16,1495.9264237000025,1497.952505299996,1499.4677775000018,1504.485927200003,1505.1796527999977,1505.1796581999952,1506.6959562999982,1507.713221500002,q,15.0,0.6937255999946501,1,+10,431,11.780730322800528,-2.232898657130569,-4.27820920801979,1495212.0,-10.008321181312166,0.12046118922232729,1.1748446033418523,1498746.0,,,,,1499.4674030244994,1495.9334030244993,
103,56,38,m,1,2,95.0,19,2,low,9 + 4 - 6 + 1 - 1,7,8,9,7,1509.2299944999977,1511.2578122999985,1512.7730638999928,1517.7917550999991,1518.6914350000006,1518.6914400999958,1520.2081888999965,1521.2249290000036,e,7.0,0.8996799000015017,1,+1,432,-2.1674118080264577,-3.1566307976221646,-3.671064099121427,1455231.0,-10.795044678535513,-0.22851982392550374,0.48446705820235714,1512051.0,,,,,1512.7724030244992,1455.9524030244993,
104,56,38,m,1,2,96.0,20,2,high,4 + 1 + 9 + 1 - 6,9,9,7,8,1522.7416949000035,1524.766936999993,1526.2827890000044,1531.3018545999948,1531.7633683000022,1531.7633735999989,1533.2800688999996,1534.2973206000024,q,9.0,0.4615137000073446,1,+10,442,-51.355364951890905,0.16827857401644453,0.12390973238860603,1522027.0,-6.977553303661349,0.5590463917727964,1.222892625340079,1525562.0,,,,,1526.2834030244992,1522.7484030244993,
105,56,38,m,1,2,97.0,21,2,low,6 + 1 + 8 + 7 - 1,21,23,21,19,1535.8143303999968,1537.841784899996,1539.3570178999944,1544.3759422000005,1545.1873595999932,1545.1873649000045,1546.7038164999976,1547.7206961000047,w,21.0,0.8114173999929335,1,+1,443,-15.94946430770696,-3.2028595265724036,-3.869811535647525,1508517.0,-21.197708815182057,-0.004838296215980087,1.1087951597732264,1538635.0,,,,,1539.3564030244993,1509.2384030244993,
106,56,38,m,1,2,98.0,22,2,high,6 + 1 + 7 - 8 - 1,5,4,7,5,1549.2374213000005,1551.2648988,1552.780077999996,1557.8000347000052,1558.371345499996,1558.3713503000035,1559.8878237000026,1560.905272399992,e,5.0,0.5713107999908971,1,+10,453,-16.29003607500317,0.15954053975123017,-0.060537627329788624,1548524.0,12.914054594473926,-0.24902233324596912,0.7699314688008041,1552060.0,,,,,1552.7814030244992,1549.2454030244992,
107,56,38,m,1,2,99.0,23,4,low,7 + 6 + 8 - 4 + 5,22,23,22,21,1562.422056800002,1564.446906199999,1565.9622978999978,1570.9807600000058,1574.7634089000055,1574.7634139000002,1576.2799028000009,1577.297430000006,e,21.0,3.782648899999913,0,+0,453,7.114583040113214,-0.5676256852175436,-0.4930793315640072,1561706.0,11.3396755470987,0.6515557684003923,0.7907806985675805,1565240.0,,,,,1565.9614030244993,1562.4274030244992,
108,56,38,m,1,2,100.0,24,4,high,3 + 9 - 4 + 7 + 6,21,21,19,20,1578.8141811999958,1580.841573400001,1582.3566152999992,1587.3766971000005,1587.9633338999993,1587.9633390999952,1589.4804460000014,1590.4976989999996,q,21.0,0.5866367999988142,1,+10,463,-13.977915288106903,4.072435699488571,2.576619727745037,1578101.0,-3.0924407154735096,-0.2831775583724201,-0.338108112863138,1581636.0,,,,,1582.3574030244993,1578.8224030244994,
109,56,38,m,1,2,101.0,25,1,high,3 + 1 + 9 + 1 - 1,13,14,13,12,1592.0141816999967,1594.0388275000005,1595.5540117000055,1600.5720899000007,1601.4032448999933,1601.4032494999992,1602.919602199996,1603.9366559000046,w,13.0,0.8311549999925774,1,+10,473,8.8664641216059,-11.61523059095025,-6.930040792916805,1591298.0,-17.34347399815212,-0.6897120822558414,0.4088496563485644,1594832.0,,,,,1595.5534030244994,1592.0194030244993,
110,56,38,m,1,2,102.0,26,3,low,7 - 1 + 9 - 5 + 4,14,15,13,14,1605.453444400002,1607.479828800002,1608.9951421000003,1614.0133072000026,1614.6993075999926,1614.6993127000023,1616.215893799992,1617.2328360999963,e,14.0,0.6860003999900073,1,+1,474,14.182300954710346,-0.06238207586158451,-0.9093535539886481,1686635.0,11.067910881045227,-0.011152025736618665,1.0562378843511118,1608273.0,,,,,1608.9944030244992,1687.3564030244993,
111,56,38,m,1,2,103.0,27,2,high,3 + 9 + 1 - 5 + 1,9,7,8,9,1618.7493550999934,1620.7766564000049,1622.2918539999955,1627.310242399995,1627.955259800001,1627.9552646999946,1629.4719796999998,1630.4891269999937,e,9.0,0.6450174000055995,1,+10,484,-15.337692179278381,0.16370610475545133,-0.07917105736665375,1618036.0,12.956323993650578,0.6813143159001798,0.5356599136771067,1621570.0,,,,,1622.2914030244992,1618.7574030244994,
112,56,38,m,1,2,104.0,28,4,high,5 + 7 - 4 + 8 + 6,22,23,22,24,1632.0060295000003,1634.0326151000045,1635.548152400006,1640.5683132999984,1641.2192672999954,1641.2192727999936,1642.735990400004,1643.7531853999972,w,22.0,0.6509539999970002,1,+10,494,0.010414359075902269,-0.3817094772548639,0.23483866106740825,1631292.0,14.799611308922435,0.24399118304423206,0.5350861605636772,1634828.0,,,,,1635.5494030244993,1632.0134030244992,
113,56,38,m,1,2,105.0,29,1,low,2 + 1 + 9 + 1 + 1,14,13,14,12,1645.270225500004,1647.296148699999,1648.8115050000051,1653.8294763000013,1654.3712472000043,1654.3712522999997,1655.888076999996,1656.9048182999975,w,14.0,0.54177090000303,1,+1,495,14.208818702372316,1.0196654954393094,1.0569237990404035,1644555.0,9.328414477482156,-3.5207067618557417,-4.894971930238008,1648089.0,,,,,1648.8104030244992,1645.2764030244994,
114,56,38,m,1,2,106.0,30,4,high,8 + 4 - 5 + 7 - 6,8,6,8,7,1658.4213944999938,1660.448021799995,1661.9633998999925,1666.9824429,1667.5312482000008,1667.5312567999936,1669.0477570999938,1670.0652807000006,w,8.0,0.5488053000008222,1,+10,505,18.51618049974652,-20.35681870967667,-14.854085773840396,1657707.0,3.083195222714386,0.15428273583529206,0.6865505384475736,1661241.0,,,,,1661.9624030244993,1658.4284030244994,
115,56,38,m,1,2,107.0,31,4,high,3 + 8 - 4 + 9 + 6,22,23,22,21,1671.5818728000013,1673.6051311000049,1675.1201203999954,1680.1382788000046,1683.2992150999926,1683.299220300003,1684.8156851999956,1685.8327998000022,e,21.0,3.160936299987952,0,+0,505,-53.328241535513705,0.07330295053228619,0.04607835659537951,1670864.0,-28.273020406305776,-0.20752402064168773,0.45280172449428013,1674397.0,,,,,1675.1184030244992,1671.5854030244993,
116,56,38,m,1,2,108.0,32,3,low,4 + 5 - 3 + 7 - 1,12,12,13,11,1687.3497398000036,1689.3757543999964,1690.8915886000032,1695.9127515,1696.8112073999946,1696.811212600005,1698.3275603999937,1699.3444173000023,q,12.0,0.8984558999945875,1,+1,506,15.957510935761066,0.0495336914283806,-0.31421753753355386,1713283.0,-1.4658972315134235,0.2559192012733038,0.6259833358587183,1690171.0,,,,,1690.8924030244993,1714.0044030244992,
117,56,38,m,1,2,109.0,33,2,high,4 + 9 - 7 + 1 - 1,6,6,8,5,1700.8612047999925,1702.887572599997,1704.402757799995,1709.4212217000022,1709.947186599995,1709.9471917000046,1711.463771900002,1712.4809666999936,q,6.0,0.5259648999926867,1,+10,516,8.166240971346394,0.08184019421507704,-0.2584321131441225,1700147.0,0.11112718872224647,-0.15867443512350032,0.47303150563972274,1703680.0,,,,,1704.4014030244994,1700.8684030244992,
118,56,38,m,1,2,110.0,34,3,low,2 + 9 - 3 + 4 + 1,13,14,11,13,1713.997654699997,1716.023542099996,1717.5388171999948,1722.558971999999,1725.8271939999977,1725.8271991999936,1727.3436220000003,1728.3603676000057,e,13.0,3.2682219999987865,1,+1,517,-3.895515861398791,0.014035295929369251,0.1432464566684326,2164610.0,0.7903537905557165,0.3445828147009462,0.46647202129140686,1716818.0,,,,,1717.5394030244993,2165.3314030244997,
119,56,38,m,1,2,111.0,35,3,high,4 + 7 - 3 + 5 - 1,12,12,11,13,1729.8773206000042,1731.903240899992,1733.4185521000036,1738.4370136999933,1739.2751582999915,1739.2751637000038,1740.7919224999932,1741.8092562999957,q,12.0,0.8381445999984862,1,+10,527,-15.552333271199345,3.572646931229934,2.602790730935908,1729162.0,-12.919539050154858,0.4495735765557227,0.14610348775624482,1732696.0,,,,,1733.4174030244992,1729.8834030244993,
120,56,38,m,1,2,112.0,36,4,low,2 + 9 - 3 + 5 + 8,21,23,21,22,1743.3260477000003,1745.352465300006,1746.867171000005,1751.8853367999982,1752.8031340000016,1752.8031388999952,1754.3197379000048,1755.3365476000035,w,21.0,0.917797200003406,1,+1,528,-2.1653362083674494,0.0399821530799942,-0.06171448406731361,1742611.0,11.81403720082057,0.8097362328204256,1.2020123124119761,1746144.0,,,,,1746.8654030244993,1743.3324030244994,
121,56,38,m,1,2,113.0,37,2,high,3 + 8 + 1 - 5 + 1,8,6,9,8,1756.853390300006,1758.877572700003,1760.3934499000025,1765.4114864000005,1766.203143599996,1766.2031484000036,1767.7195651999937,1768.7366942999945,e,8.0,0.7916571999958251,1,+10,538,-10.324357210833362,0.5054468283540059,0.30369006872292514,1756137.0,-57.64616963425547,0.07309705217682483,0.33131024590361235,1759670.0,,,,,1760.3914030244994,1756.8584030244992,
122,56,38,m,1,3,114.0,0,1,low,3 + 1 + 8 - 1 + 1,12,10,13,12,1774.1827457000036,1776.2111809000053,1777.7264059000008,1782.7444856999937,1783.515128400002,1783.5151372999971,1785.031718600003,1786.0485176999937,e,12.0,0.7706427000084659,1,+1,539,4.5657276632972135,0.29493925599047577,0.1728393807030404,1773470.0,17.607474309747474,0.24428096786000397,-0.4472666018911622,1777003.0,,,,,1777.7244030244992,1774.1914030244993,
123,56,38,m,1,3,115.0,1,3,high,5 + 1 + 7 - 8 + 6,11,13,11,9,1787.5652942000015,1789.592674500003,1791.1078582000046,1796.1264551000058,1797.3951038999949,1797.3951111999922,1798.9115467999943,1799.9288383999956,w,11.0,1.2686487999890232,1,+10,549,1.2681264646107895,0.1031267018360702,0.08531971575420982,1786851.0,5.10829555142807,0.4065729863505503,-0.24287828873497253,1790385.0,,,,,1791.1064030244993,1787.5724030244994,
124,56,38,m,1,3,116.0,2,3,high,3 + 8 + 1 + 5 - 9,8,7,9,8,1801.4450504999984,1803.4698055000044,1804.985185700003,1810.0031539000047,1811.411038399994,1811.4110437000052,1812.9276115999965,1813.9447326999943,e,8.0,1.40788449998945,1,+10,559,14.945017211483066,0.2509311000172354,0.05645820265628898,1800728.0,4.081572865429777,0.3712126745805624,-0.22316860857986276,1804262.0,,,,,1804.9834030244992,1801.4494030244994,
125,56,38,m,1,3,117.0,3,1,low,2 + 1 + 1 + 9 - 1,12,12,13,11,1815.4619046000007,1817.488625099999,1819.003836799995,1824.0227888999943,1824.6430628999951,1824.6430678000036,1826.1596445000032,1827.1771086999945,q,12.0,0.6202740000007907,1,+1,560,30.135026313164982,5.07964049405098,3.703053496762938,1814747.0,-7.138326363410771,0.07620350001484377,-0.19954786321062912,1818281.0,,,,,1819.0024030244992,1815.4684030244994,
126,56,38,m,1,3,118.0,4,2,high,6 + 8 + 1 + 1 - 7,9,11,9,8,1828.6945794000055,1830.7228948999984,1832.237839399997,1837.2560383999955,1837.995166599998,1837.9951715999923,1839.5116843,1840.529029199999,w,9.0,0.7391282000025967,1,+10,570,4.790218350533517,0.002766854771100391,-0.0765863870047434,1827981.0,-9.179117220686132,0.34323882498008507,0.147568563399201,1831515.0,,,,,1832.2364030244994,1828.7024030244993,
127,56,38,m,1,3,119.0,5,4,high,4 + 7 + 8 - 3 + 9,25,26,25,24,1842.0457008999947,1844.0726958000012,1845.587889500006,1850.6064616999936,1853.9630131000013,1853.963018399998,1855.4798769000045,1856.497273500005,e,24.0,3.3565514000074472,0,+0,570,20.642799984962522,-0.6643786978985071,-0.3638088345147388,1841331.0,-5.669251423855108,-0.01668602884378867,0.011281830870802922,1844865.0,,,,,1845.5864030244993,1842.0524030244992,
128,56,38,m,1,3,120.0,6,1,high,9 + 8 + 1 + 1 - 1,18,19,18,17,1858.0145364000052,1860.0366425999964,1861.5518165999963,1866.569719399995,1867.139096800005,1867.1391023000035,1868.6556066000048,1869.672947600004,w,18.0,0.5693774000101257,1,+10,580,-0.9707357549761895,0.09834146721219383,0.07826482673657309,1857295.0,34.54094851719585,0.09442250195427215,-0.297563485923499,1860828.0,,,,,1861.5494030244993,1858.0164030244994,
129,56,38,m,1,3,121.0,7,1,low,9 + 8 + 1 + 1 - 1,18,17,18,20,1871.1898278000008,1873.2131868,1874.7285618000024,1879.7472811000043,1880.282984999998,1880.2829900999927,1881.8002399999968,1882.8170128000056,w,18.0,0.5357038999936776,1,+1,581,4.067141679489669,-0.7550555376346697,0.022430320931506653,1870471.0,46.471904474562436,0.22223530764179156,-0.29329868174167917,1874006.0,,,,,1874.7274030244994,1871.1924030244993,
130,56,38,m,1,3,122.0,8,4,high,9 + 4 - 6 + 8 + 7,22,24,21,22,1884.3337542999943,1886.3611105000016,1887.8762687999988,1892.895556799995,1895.4349777000025,1895.4349829999992,1896.9512532999945,1897.9679825000055,w,21.0,2.5394209000078263,0,+0,581,-29.781951444680494,0.21493145149860649,0.19250664478275437,1883619.0,-30.481621157076237,-0.4698367100872778,-0.06135979111679424,1887153.0,,,,,1887.8744030244993,1884.3404030244992,
131,56,38,m,1,3,123.0,9,3,high,4 + 7 + 1 + 9 - 5,16,18,16,17,1899.4847695999924,1901.5093376000004,1903.0244741999925,1908.043694399996,1911.163022299996,1911.1630275999923,1912.6801385,1913.697239000001,e,17.0,3.119327899999917,0,+0,581,-4.833546241930479,-0.13824652531139936,0.09750129759010395,1898768.0,-15.514215737948865,0.30659720583611216,-0.07433853038505966,1902301.0,,,,,1903.0224030244992,1899.4894030244993,
132,56,38,m,1,3,124.0,10,2,low,5 + 1 + 7 - 6 + 1,8,8,7,6,1915.2137160999991,1917.240889299996,1918.7561908000064,1923.7762108000024,1925.5069897999929,1925.5069949000024,1927.0234396000012,1928.0403697,q,8.0,1.7307789999904344,1,+1,582,-15.882304779767171,0.05350359922372272,-0.32695424106385573,1535101.0,-0.5362478956232675,0.4670045345278515,0.2312234923135399,1918034.0,,,,,1918.7554030244994,1535.8224030244994,
133,56,38,m,1,3,125.0,11,2,low,7 + 5 + 1 + 9 + 1,23,23,22,21,1929.556884699996,1931.5803119000047,1933.095577,1938.113762199995,1941.1789778999955,1941.178983899997,1942.695410999993,1943.7123487000065,q,23.0,3.065215700000408,1,+1,583,-4.260661000691407,0.12274456629921815,-0.3765895777453079,1914499.0,-11.33289493002853,0.3449983936329617,0.18151098459231196,1932372.0,,,,,1933.0934030244994,1915.2204030244993,
134,56,38,m,1,3,126.0,12,4,high,8 + 4 + 7 - 5 - 6,8,6,9,8,1945.229477700006,1947.2554913000056,1948.7706954000023,1953.7888190999947,1954.466944899992,1954.466950599992,1955.983475999994,1957.0008136999968,e,8.0,0.6781257999973604,1,+10,593,12.07620149828454,0.19923726294644517,0.241299215073828,1944513.0,17.25253896947794,-0.05061502326915912,0.04536052590898976,1948047.0,,,,,1948.7684030244993,1945.2344030244992,
135,56,38,m,1,3,127.0,13,2,high,3 + 9 - 1 - 5 + 1,7,6,5,7,1958.5175560999924,1960.545232599994,1962.060566,1967.078876899992,1967.8109395999927,1967.810944500001,1969.328242100004,1970.345694100004,e,7.0,0.7320627000008244,1,+10,603,-4.5313544979876355,-0.16957829750061926,-0.11493649647302107,1957802.0,18.584109839130782,-0.2404715029798874,-0.20602041883521416,1961337.0,,,,,1962.0584030244993,1958.5234030244992,
136,56,38,m,1,3,128.0,14,3,high,6 + 7 + 8 + 1 - 9,13,15,13,14,1971.862466000006,1973.8887682000056,1975.403831699994,1980.4237914999976,1983.1389131000035,1983.1389180999977,1984.655462499999,1985.6725707000005,e,14.0,2.7151216000056597,0,+0,603,13.023374048573249,0.20674806934726186,0.17099120792942468,1971147.0,15.784127788008405,0.18425362228516384,0.22799954574230563,1974682.0,,,,,1975.4034030244993,1971.8684030244992,
137,56,38,m,1,3,129.0,15,4,low,2 + 9 - 4 + 8 + 7,22,21,23,22,1987.189501300003,1989.2172238000055,1990.732545599996,1995.7506905000048,1997.794924400005,1997.794929900003,1999.3116240999952,2000.3286356000024,q,21.0,2.0442339000001084,0,+0,603,-15.044727201160688,0.4554372208837949,0.2219873872608482,1986475.0,32.241837461497255,-4.903857872895914,-4.125370391298601,1990009.0,,,,,1990.7304030244993,1987.1964030244992,
138,56,38,m,1,3,130.0,16,1,high,3 + 1 + 8 + 1 + 1,14,13,14,16,2001.845430699992,2003.8717844000057,2005.386911499998,2010.405989699997,2011.202888500004,2011.2028940000016,2012.7193517999983,2013.7366542999955,w,14.0,0.796898800006602,1,+10,613,22.295871012156706,0.22427921812237805,0.35119752805185867,2001130.0,-14.841813087378132,-0.23299582673417207,-0.3878704806417621,2004664.0,,,,,2005.3854030244993,2001.8514030244994,
139,56,38,m,1,3,131.0,17,4,high,6 + 9 + 7 - 3 - 5,14,14,13,15,2015.2536192999976,2017.2779950999973,2018.7936985999984,2023.812542899992,2024.3548597000045,2024.3548644999971,2025.8709400999944,2026.8879139000053,q,14.0,0.542316800012486,1,+10,623,-42.015674825408226,0.6703989661331096,0.8557460177979481,2014536.0,13.716915256460059,-0.43102535704525957,3.044145118163674,2018070.0,,,,,2018.7914030244992,2015.2574030244994,
140,56,38,m,1,3,132.0,18,1,high,2 + 9 + 1 + 1 + 1,14,13,12,14,2028.4045919000052,2030.4316309999997,2031.9471548,2036.9650343999965,2037.7308654999945,2037.730870600004,2039.2480164000008,2040.2653798999963,e,14.0,0.7658310999977402,1,+10,633,-14.202598663284311,10.946473213417677,6.294429637355674,2027690.0,-6.597634804244599,-0.4289053373698706,-0.5328742985793782,2031223.0,,,,,2031.9444030244993,2028.4114030244994,
141,56,38,m,1,3,133.0,19,2,high,7 + 5 + 1 - 1 - 8,4,2,4,3,2041.7818470000057,2043.8086951000005,2045.323896899994,2050.3422073999973,2051.1468361000007,2051.1468413999974,2052.662971900005,2053.680505700002,w,4.0,0.8046287000033772,1,+10,643,6.0156427770335945,-0.08780118391381597,-0.10073523631287773,2041067.0,-29.28921043128102,0.458299488973829,-0.005208167914343198,2044600.0,,,,,2045.3214030244992,2041.7884030244993,
142,56,38,m,1,3,134.0,20,1,high,7 + 1 + 4 + 1 - 1,12,14,13,12,2055.1971189000037,2057.2225366000057,2058.737832800005,2063.7580743,2064.738882100006,2064.7388874000026,2066.255560100006,2067.272943899996,e,12.0,0.980807800006005,1,+10,653,-16.193648974307862,0.10157472136670442,0.10774064027539065,2054480.0,-4.288930728902816,0.12344773667079245,0.07522962739759276,2058016.0,,,,,2058.7374030244996,2055.2014030244995,
143,56,38,m,1,3,135.0,21,1,high,7 + 1 + 4 + 1 - 1,12,13,12,11,2068.7898275000043,2070.813154400006,2072.3284394999937,2077.348235700003,2078.1388317999954,2078.138836700004,2079.655289000002,2080.6726612000057,w,12.0,0.7905960999923991,1,+10,663,5.548159805211958,-0.07212534929603898,0.14081990901530905,2068071.0,-11.148243691572556,0.10592186584382235,0.0769332823612594,2071606.0,,,,,2072.3274030244997,2068.7924030244994,
144,56,38,m,1,3,136.0,22,4,low,3 + 9 - 5 + 6 + 8,21,21,23,22,2082.1894629000017,2084.215767600006,2085.7308363000047,2090.749267199993,2092.554892400003,2092.5548977,2094.071441099993,2095.0885091999958,e,22.0,1.805625200009672,0,+0,663,14.186107644644721,0.0365654074897761,0.044591809825636375,2081473.0,15.535034442387724,0.13464098079965092,0.06898832239963681,2085007.0,,,,,2085.7284030244996,2082.1944030244995,
145,56,38,m,1,3,137.0,23,2,high,4 + 7 + 1 + 1 - 8,5,7,5,4,2096.605337400004,2098.629937599995,2100.145145599992,2105.1635793000023,2105.8107911999978,2105.810796199992,2107.327163399997,2108.344463100002,w,5.0,0.6472118999954546,1,+10,673,13.400681547009267,0.169871095059837,0.11009862103821355,2095888.0,-22.9012580179286,0.2631668349998417,0.065480759335661,2099421.0,,,,,2100.1424030244993,2096.6094030244994,
146,56,38,m,1,3,138.0,24,2,low,3 + 1 + 8 - 5 - 1,6,7,5,6,2109.860794699998,2111.8882060000037,2113.403454,2118.421685699999,2119.0588517,2119.058857299998,2120.5754056000005,2121.5922927999927,e,6.0,0.637166000000434,1,+1,674,16.183294163303316,-0.46943405412364836,-0.3154260733836862,1928839.0,-12.196854243178803,0.2652793059792775,0.06875666019450644,2112679.0,,,,,2113.4004030244996,1929.5604030244992,
147,56,38,m,1,3,139.0,25,3,high,8 + 4 + 1 - 7 + 9,15,13,15,16,2123.1093237000023,2125.1363069999934,2126.6515663000027,2131.670529800001,2134.338888099999,2134.3388930999936,2135.855524900005,2136.872677399995,q,13.0,2.668358299997635,0,+0,674,7.527049066011024,-0.4649033938861815,0.3021960739396241,2122394.0,-15.523183673660213,0.12166521917464213,0.25749472071986346,2125928.0,,,,,2126.6494030244994,2123.1154030244993,
148,56,38,m,1,3,140.0,26,3,high,3 + 1 + 8 - 5 + 9,16,16,15,17,2138.3894475999987,2140.4118187999998,2141.9271033999976,2146.945351699993,2147.6268183999928,2147.6268235000025,2149.1433174999984,2150.1605410000047,q,16.0,0.6814666999998735,1,+10,684,11.567003054068113,-0.2769216555139469,-1.107162453237879,2137670.0,-15.078422383352299,0.03827649232747854,-0.0031900511963245393,2141203.0,,,,,2141.9244030244995,2138.3914030244996,
149,56,38,m,1,3,141.0,27,1,low,5 + 8 - 1 + 1 + 1,14,16,14,12,2151.6774688000005,2153.7005217999977,2155.215739899999,2160.2338577000046,2161.274690499995,2161.2746953000023,2162.791390700004,2163.808342599994,w,14.0,1.0408327999903122,1,+1,685,8.784723065787396,0.1488163316156208,0.03154226324340548,2150958.0,-4.731638372590605,0.2207277455220753,0.1792613203380231,2154491.0,,,,,2155.2124030244995,2151.6794030244996,
150,56,38,m,1,3,142.0,28,3,low,7 - 5 + 9 + 1 - 4,8,8,9,7,2165.324498400005,2167.352245000002,2168.8675490000023,2173.8860907000053,2174.6428410999943,2174.642846100003,2176.1593101000035,2177.1760755,q,8.0,0.7567503999889595,1,+1,686,4.774999990084733,0.3034104154402426,0.1959419571750498,2231587.0,19.155142854151233,0.2825674618674343,-0.2689164858597144,2168144.0,,,,,2168.8654030244993,2232.3084030244995,
151,56,38,m,1,3,143.0,29,1,low,6 + 1 + 8 + 1 - 1,15,14,15,13,2178.6928603999986,2180.718977800003,2182.234363900003,2187.2530867000023,2188.1147131000034,2188.114718099998,2189.6311862,2190.647654600005,w,15.0,0.8616264000011142,1,+1,687,-14.009078552905073,-0.1883579084565754,0.11645489962877886,2177976.0,10.255606929614952,-0.02162873757333017,0.0014075366952139845,2181510.0,,,,,2182.2314030244997,2178.6974030244996,
152,56,38,m,1,3,144.0,30,2,high,5 + 9 - 8 + 1 + 1,8,7,8,9,2192.164365299992,2194.1922086999984,2195.707471799993,2200.7258729000023,2201.242681100004,2201.2426860999985,2202.759072700006,2203.776553399992,w,8.0,0.516808200001833,1,+10,697,36.34586685887515,0.6974310675248185,0.37098271522908277,2191450.0,-22.455787986012368,0.12317165281279285,0.08199548210401542,2194983.0,,,,,2195.7044030244997,2192.1714030244993,
153,56,38,m,1,3,145.0,31,1,low,3 + 1 + 9 + 1 + 1,15,15,14,17,2205.2928483,2207.319770599992,2208.834729199996,2213.8526506000053,2214.674712099993,2214.674717799993,2216.191464100004,2217.2084840000025,q,15.0,0.8220614999881946,1,+1,698,-1.7148108633992294,0.014206092040274232,0.030080705991410772,2204577.0,-10.641674190448846,0.29022306748641613,0.0013315032331626675,2208110.0,,,,,2208.8314030244997,2205.2984030244997,
154,56,38,m,1,3,146.0,32,4,low,6 + 9 - 7 + 8 - 5,11,12,13,11,2218.7254934999946,2220.7530328,2222.268286199993,2227.2867184999923,2228.250715599992,2228.2507208000025,2229.7677079999994,2230.7854134999943,e,11.0,0.9639970999996876,1,+1,699,-3.708514532875015,-0.08135491558950125,-0.020229296386298667,2218010.0,-33.49068686493617,0.2675916576614563,-0.22508174931037495,2221544.0,,,,,2222.2654030244994,2218.7314030244997,
155,56,38,m,1,3,147.0,33,3,low,3 + 8 - 7 + 1 + 9,14,13,14,12,2232.3023789,2234.329790200005,2235.8447209000005,2240.863234599994,2244.474729099995,2244.4747355,2245.9902732000046,2247.0074860000022,e,12.0,3.6114945000008447,0,+0,699,14.11625000923723,0.30986636179810345,-0.35164062266864793,2408894.0,16.567681526967466,0.02341975370473337,4.15248464521036,2235120.0,,,,,2235.8414030244994,2409.6154030244993,
156,56,38,m,1,3,148.0,34,4,high,4 + 7 - 8 + 9 - 4,8,7,8,9,2248.524486800001,2250.5463699999964,2252.0617150000035,2257.080149200003,2259.8025804000063,2259.8025850999984,2261.3189571999974,2262.3359284000035,e,9.0,2.7224312000034843,0,+0,699,7.699195073573211,-15.200813294549814,-5.804802310998298,2247803.0,-5.616527114074332,-0.34507300690983644,-0.396945266718274,2251337.0,,,,,2252.0584030244995,2248.5244030244994,
157,56,38,m,1,3,149.0,35,4,high,5 + 7 - 4 + 6 + 9,23,23,25,24,2263.852831299999,2265.8745567000005,2267.389806399995,2272.4081196000043,2273.2347152,2273.2347202999954,2274.7514656999992,2275.768867299994,q,23.0,0.826595599995926,1,+10,709,-1.8814858632444835,0.16648887940846135,0.09402553837416172,2263132.0,-33.57587233937603,0.26589850053594777,0.11432690282620972,2266665.0,,,,,2267.3864030244995,2263.8534030244996,
158,56,38,m,1,3,150.0,36,2,high,9 + 5 - 6 + 1 - 1,8,9,7,8,2277.2866944999987,2279.309622600005,2280.8245167999994,2285.842576199997,2286.442712499993,2286.442717900005,2287.959453100004,2288.976743399995,e,8.0,0.6001362999959383,1,+10,719,-2.3645018420003563,-5.42773577460906,-3.930479656825069,2276567.0,10.887577547281506,-0.44665198414445495,-0.3994541521042141,2280100.0,,,,,2280.8214030244994,2277.2884030244995,
159,56,38,m,1,3,151.0,37,1,low,5 + 1 + 1 + 6 + 1,14,13,14,16,2290.4934316,2292.5189804999973,2294.033928200006,2299.0517081,2299.770674600004,2299.7706798,2301.287128600001,2302.3039984999923,w,14.0,0.7189665000041714,1,+1,720,54.49939201160604,-0.28625655745295475,0.03578892326758032,2289776.0,0.3018323470189941,0.10348251217083382,-0.04361490427895842,2293308.0,,,,,2294.0294030244995,2290.4974030244994,
160,56,38,m,1,4,152.0,0,4,high,2 + 5 - 3 + 9 + 8,21,22,21,19,2307.6310516999947,2309.6581916,2311.173541600001,2316.1920589999936,2319.410552899993,2319.410558000003,2320.927297500006,2321.9444967000018,w,21.0,3.218493899999885,1,+10,730,-27.780901303379597,-0.7605784035394438,-0.7725720855937457,2306915.0,3.197119590284128,-0.8151610832570801,-0.36886316546221654,2310449.0,,,,,2311.1704030244996,2307.6364030244995,
161,56,38,m,1,4,153.0,1,4,high,3 + 9 - 5 + 8 - 7,8,9,8,7,2323.461296499998,2325.486039399999,2327.0012883000018,2332.0196652000013,2332.530531099997,2332.530535800004,2334.0476612000057,2335.064925600004,w,8.0,0.5108658999961335,1,+10,740,0.15559652715943884,-0.21272128256836442,-0.16184756228141994,2322743.0,-42.90096542576708,0.24379016588677294,0.031573510959759465,2326277.0,,,,,2326.9984030244996,2323.4644030244995,
162,56,38,m,1,4,154.0,2,3,high,6 - 1 + 7 - 8 + 9,13,12,11,13,2336.5817347999982,2338.608171,2340.1238343000005,2345.1425382000016,2347.4024934000045,2347.402499100004,2348.919200499993,2349.936755799994,e,13.0,2.259955200002878,1,+10,750,2.864260992587731,-0.28975447761292505,-0.40516853528399555,2335864.0,2.658588819666601,0.018693309806869784,-0.15852802355910312,2339399.0,,,,,2340.1204030244994,2336.5854030244996,
163,56,38,m,1,4,155.0,3,4,high,4 + 8 + 9 - 3 + 7,25,25,24,26,2351.454083499993,2353.4785948999925,2354.993793000001,2360.012860999996,2361.7865885999927,2361.7865934,2363.3039269,2364.321168900002,q,25.0,1.7737275999970734,1,+10,760,23.712300749011803,0.19761423757350327,0.18425894910408114,2350735.0,11.561414563257525,0.07774465710315859,0.013040639106675744,2354269.0,,,,,2354.9904030244993,2351.4564030244997,
164,56,38,m,1,4,156.0,4,2,low,7 + 6 + 1 - 1 - 8,5,3,5,4,2365.8377553000028,2367.8660157999984,2369.3814817999955,2374.3998859999992,2375.0504479999945,2375.050452800002,2376.567280499992,2377.5842149999958,w,5.0,0.6505619999952614,1,+1,761,39.68115966516845,0.04087755658529657,0.16985028308361727,2109145.0,-32.79853144839049,-0.06234941655573989,0.33882025588624054,2368656.0,,,,,2369.3774030244995,2109.8664030244995,
165,56,38,m,1,4,157.0,5,3,high,6 + 8 + 7 + 1 - 9,13,15,14,13,2379.101059499997,2381.1282869999995,2382.6432096999924,2387.661821799993,2391.7384628,2391.7384677999944,2393.254995199997,2394.272420699999,e,13.0,4.07664100000693,1,+10,771,-9.093240668968836,-0.06848213696040384,-0.09715367883173553,2378385.0,16.393660708337904,-0.016842658523918974,0.04777975287743974,2381918.0,,,,,2382.6394030244996,2379.1064030244997,
166,56,38,m,1,4,158.0,6,3,high,2 + 1 + 9 - 4 + 6,14,14,15,16,2395.7895665999968,2397.8154379000043,2399.330343900001,2404.348684800003,2405.562548899994,2405.562554000004,2407.0791204999987,2408.096566799999,q,14.0,1.2138640999910422,1,+10,781,12.183666022750046,0.09031040508946697,-0.0072629111347626285,2395072.0,8.767163165731324,0.11637844684460319,-0.030719604785326204,2398605.0,,,,,2399.3264030244995,2395.7934030244996,
167,56,38,m,1,4,159.0,7,3,low,8 - 7 + 9 + 1 + 4,15,16,15,14,2409.613276399992,2411.637939399996,2413.153140800001,2418.1711849999992,2418.699338000006,2418.699343799992,2420.2163475999987,2421.2333171999926,w,15.0,0.5281530000065686,1,+1,782,20.690368949608363,5.704120366530335,3.794670886828436,2451823.0,-42.834399344215434,0.200278227568226,0.01953789457703925,2412428.0,,,,,2413.1494030244994,2452.5444030244994,
168,56,38,m,1,4,160.0,8,1,high,5 + 1 + 1 + 9 + 1,17,17,16,19,2422.750149600004,2424.7761179999943,2426.291254900003,2431.308731500001,2431.8504847000004,2431.8504894999933,2433.3669669999945,2434.3851004000026,q,17.0,0.5417531999992207,1,+10,792,1.4603283016274027,0.012710757706719367,0.011870744799868937,2422032.0,-6.027997132056818,-0.4014160183257527,0.0638644821924419,2425565.0,,,,,2426.2864030244996,2422.7534030244997,
169,56,38,m,1,4,161.0,9,3,high,3 + 8 - 7 - 1 + 9,12,13,14,12,2435.902012099992,2437.927052900006,2439.442453099997,2444.4615013,2448.4904217000003,2448.4904267999955,2450.006798400005,2451.023774699992,q,13.0,4.028920400000061,0,+0,792,1.4638601957786577,-0.10845590815982842,0.05342722024897717,2435183.0,-19.461828660420387,0.15406507000703806,0.21757978375936693,2438718.0,,,,,2439.4394030244994,2435.9044030244995,
170,56,38,m,1,4,162.0,10,3,low,5 + 6 - 4 - 1 + 7,13,15,14,13,2452.540241399998,2454.5668870999943,2456.0821108999958,2461.1014110999968,2462.130535499993,2462.130541199993,2463.647980099995,2464.665947300004,e,13.0,1.0291243999963626,1,+1,793,4.883652287521494,1.0759045273511572,0.21845634391656077,2522623.0,-16.74709561261702,0.146900910803895,-0.1580147570586663,2455358.0,,,,,2456.0794030244997,2523.3444030244996,
171,56,38,m,1,4,163.0,11,3,high,6 - 1 + 7 - 8 + 9,13,12,13,11,2466.1822703999933,2468.2065862000018,2469.721783300003,2474.741713800002,2477.290422399994,2477.290427400003,2478.8067039000016,2479.8236594000045,w,13.0,2.5487085999920964,1,+10,803,2.515323189251376,2.413178454816558,2.089245958994313,2465463.0,11.022043013167595,-0.12326111117016803,0.36993365089163666,2468998.0,,,,,2469.7194030244996,2466.1844030244997,
172,56,38,m,1,4,164.0,12,2,high,8 + 1 + 9 + 1 - 4,15,16,15,14,2481.341282399997,2483.369186600001,2484.8844351000007,2489.902414299999,2490.498451499996,2490.498457199996,2492.0151069999997,2493.032050499998,w,15.0,0.5960371999972267,1,+10,813,53.188242570679655,5.068122173965185,2.5545647908140965,2480625.0,-45.15710492888343,-0.42972866391129694,-0.2936681321289163,2484159.0,,,,,2484.8804030244996,2481.3464030244995,
173,56,38,m,1,4,165.0,13,4,high,9 + 3 - 5 + 8 + 6,21,23,19,21,2494.5488374999986,2496.574796000001,2498.090628799997,2503.1100994000008,2503.746389399996,2503.7463946999924,2505.2630726999923,2506.280281800005,e,21.0,0.636289999994915,1,+10,823,1.4635507139156516,0.11689060850790889,0.16691125201209478,2493831.0,27.051014529883094,0.03674604480602062,-0.15076849324878827,2497366.0,,,,,2498.0874030244995,2494.5524030244997,
174,56,38,m,1,4,166.0,14,4,low,4 + 7 - 8 + 9 - 3,9,8,9,11,2507.797182399998,2509.824441100005,2511.339729800005,2516.358588599993,2519.2904438999976,2519.290449299995,2520.807142999998,2521.8239993000025,w,9.0,2.931855300004827,1,+1,824,29.623400113757032,0.07732507049062498,-0.1301387137916885,2507081.0,-10.523844007970501,0.1682584109186902,0.19156364182734165,2510615.0,,,,,2511.3364030244993,2507.8024030244997,
175,56,38,m,1,4,167.0,15,3,low,4 + 1 + 8 + 9 - 5,17,19,17,18,2523.340809500005,2525.366907100004,2526.882110999999,2531.900482099998,2535.0023092000047,2535.002313799996,2536.518643000003,2537.535532499998,e,18.0,3.10182710000663,0,+0,824,-1.3924366983064704,-0.7594649146664336,-1.0606752174636376,2566360.0,-2.6710484763510074,0.0922505100890596,0.25872931920826914,2526157.0,,,,,2526.8784030244997,2567.0814030244997,
176,56,38,m,1,4,168.0,16,1,low,4 + 7 + 1 - 1 - 1,10,10,11,9,2539.0523059999978,2541.080104199995,2542.595350300005,2547.613689799997,2548.0822873,2548.0822921999934,2549.598634299997,2550.616395699996,q,10.0,0.468597500002943,1,+1,825,12.372149031112404,-0.25644582632030755,-0.5390965795054941,2538336.0,-28.129546143075313,0.17850132037593647,0.6462396737092178,2541870.0,,,,,2542.5914030244994,2539.0574030244993,
177,56,38,m,1,4,169.0,17,4,low,4 + 7 + 8 - 3 + 9,25,26,24,25,2552.133244600001,2554.161133100002,2555.6771424000035,2560.695349000001,2563.0265650999936,2563.026574699994,2564.543711299993,2565.560681899995,e,25.0,2.3312160999921616,1,+1,826,29.627929743865764,0.2587652868207626,0.46312321773129517,2551417.0,25.871424771851828,0.07126218372817128,0.14251183005301993,2554952.0,,,,,2555.6734030244997,2552.1384030244994,
178,56,38,m,1,4,170.0,18,3,low,2 + 9 + 1 - 5 + 7,14,15,12,14,2567.0774218000006,2569.1045839,2570.6205322000023,2575.6384257000027,2576.2423072999954,2576.2423123000044,2577.759285699998,2578.775957399994,e,14.0,0.6038815999927465,1,+1,827,-33.45188513390444,-0.14143990296018405,0.03476314481580656,2579573.0,17.070145102643163,-4.163108342823477,-2.9886732431346563,2569895.0,,,,,2570.6164030244995,2580.2944030244994,
179,56,38,m,1,4,171.0,19,3,low,3 + 1 + 6 - 8 + 9,11,12,13,11,2580.292381499996,2582.3166939999937,2583.8318497,2588.8499695999926,2589.554302299992,2589.5543074000016,2591.0709408999974,2592.087806299998,e,11.0,0.7043326999992132,1,+1,828,,,,,0.2880428438716489,0.197731423272411,0.1842558466839761,2583106.0,,,,,2583.8274030244997,,
180,56,38,m,1,4,172.0,20,2,low,4 + 9 + 1 - 7 - 1,6,6,8,5,2593.604576400001,2595.632137099994,2597.1474149999995,2602.1662910000014,2603.7863153999933,2603.786320600004,2605.3029026000004,2606.319766200002,q,6.0,1.620024399991962,1,+1,829,18.11533829636985,0.05870038004836742,-0.02214787218641745,2365123.0,1.7491211389331873,-0.5050547758127566,-0.30630307478915375,2596422.0,,,,,2597.1434030244995,2365.8444030244996,
181,56,38,m,1,4,173.0,21,1,low,4 + 9 + 1 - 1 - 1,12,12,13,11,2607.837076399999,2609.864521800002,2611.380593499998,2616.3986573,2616.994291800001,2616.994296699995,2618.511698999995,2619.5285386000032,q,12.0,0.5956345000013243,1,+1,830,3.5709169536290055,-0.155536106968873,0.024674325637591643,2607120.0,-6.040393535972129,-0.37957938992052975,-0.029705085435665524,2610654.0,,,,,2611.3754030244995,2607.8414030244994,
182,56,38,m,1,4,174.0,22,2,low,2 + 9 - 4 + 1 + 1,9,11,9,8,2621.045555799996,2623.072474700006,2624.587592900003,2629.607385700001,2633.266279100004,2633.2662845000013,2634.782735300003,2635.7994777999997,w,9.0,3.658893400002853,1,+1,831,-23.7287536283752,0.26437760770069696,0.011264598364273404,2592888.0,5.591156139702125,0.6804401307133157,0.3559659566793212,2623863.0,,,,,2624.5844030244994,2593.6094030244994,
183,56,38,m,1,4,175.0,23,4,low,8 + 7 - 4 + 5 + 9,25,25,24,26,2637.3159651000024,2639.3432459000032,2640.858482800002,2645.877735400005,2648.370245600003,2648.3702508999995,2649.886590299997,2650.9036748999933,q,25.0,2.492510199997924,1,+1,832,6.488527716489546,0.05075141508436798,0.4411727587409964,2636598.0,19.08391252216437,0.22707860574131256,0.7389504503471682,2640133.0,,,,,2640.8544030244993,2637.3194030244995,
184,56,38,m,1,4,176.0,24,4,low,3 + 8 - 7 + 9 - 5,8,7,8,9,2652.420432600004,2654.444819299999,2655.9608903000044,2660.978988899995,2662.458278399994,2662.4582836000045,2663.974895699997,2664.9916611999943,w,8.0,1.4792894999991404,1,+1,833,-0.5112926998832155,0.06177852119682514,-2.8431042717499864,2651700.0,18.938632305792826,-0.49013814907624287,-0.30622716359758106,2655235.0,,,,,2655.9564030244997,2652.4214030244993,
185,56,38,m,1,4,177.0,25,1,low,7 - 1 + 1 + 9 - 1,15,15,14,13,2666.508460099998,2668.5359889999963,2670.0510974999925,2675.069814599992,2676.186226699996,2676.1862315000035,2677.702896300005,2678.719856800002,q,15.0,1.1164121000037994,1,+1,834,30.41925579394832,-1.0140413759058546,-1.1468101659821337,2665792.0,21.038790577790394,-0.10309286865104683,-0.09146319070841047,2669325.0,,,,,2670.0464030244993,2666.5134030244994,
186,56,38,m,1,4,178.0,26,3,high,9 + 3 - 4 + 6 + 7,21,23,21,22,2680.2372720999992,2682.2644453999965,2683.779578600006,2688.7976600999973,2692.490145699994,2692.4901506000024,2694.007185800001,2695.0244971999928,e,22.0,3.6924855999968713,0,+0,834,5.52211234760269,0.06151908963641084,-0.18685325807920883,2679520.0,-0.3269893950132374,-9.208741057374297,-7.465271882356873,2683054.0,,,,,2683.7754030244996,2680.2414030244995,
187,56,38,m,1,4,179.0,27,1,low,8 + 1 + 1 + 1 - 4,7,5,8,7,2696.541262800005,2698.5659148999985,2700.0814850000024,2705.0994382999925,2709.3622026999947,2709.362208000006,2710.8787071999977,2711.895889099993,e,7.0,4.262764400002197,1,+1,835,13.0653505856734,-0.20487119451283364,-0.8951636855662599,2695821.0,5.281114856108783,-1.0898234617059965,-0.48531861023277534,2699355.0,,,,,2700.0764030244995,2696.5424030244994,
188,56,38,m,1,4,180.0,28,1,low,7 + 1 + 6 + 1 + 1,16,17,18,16,2713.412874200003,2715.437556999997,2716.9527789999997,2721.970316299994,2722.5941662999976,2722.594171299992,2724.110849100005,2725.127703099992,e,16.0,0.6238500000035856,1,+1,836,-1.8559867406330106,3.1897729489141198,-6.536423124494216,2712693.0,15.206108132429815,-0.07398242631894636,0.27578505127962183,2716226.0,,,,,2716.9474030244996,2713.4144030244997,
189,56,38,m,1,4,181.0,29,4,low,8 + 4 + 7 - 5 - 6,8,9,8,7,2726.644369300004,2728.671507799998,2730.1867738,2735.2067471000046,2738.690142899999,2738.690147899993,2740.206576700002,2741.223704200005,e,7.0,3.4833957999944687,0,+0,836,-11.841872391860143,0.33689971895162785,0.8572217231461172,2725927.0,-9.060335158848277,-1.4101347058784186,-1.0739353054333671,2729462.0,,,,,2730.1834030244995,2726.6484030244997,
190,56,38,m,1,4,182.0,30,4,high,9 + 7 - 5 + 8 + 6,25,25,24,27,2742.740518999999,2744.7658497999946,2746.281208799992,2751.3001498999947,2754.714124799997,2754.7141298999923,2756.2306574999966,2757.247830499997,q,25.0,3.4139749000023585,1,+10,846,4.411012037162979,-2.397917172443162,-0.24394902201062196,2742021.0,0.29766726387420706,-0.17986424189349082,-0.22513099849766838,2745556.0,,,,,2746.2774030244996,2742.7424030244997,
191,56,38,m,1,4,183.0,31,2,high,2 + 1 + 9 - 4 + 1,9,8,9,11,2758.7645582999976,2760.789018700001,2762.3042596000014,2767.3225958999974,2767.9781582,2767.9781633999955,2769.4957093999983,2770.513250499993,w,9.0,0.6555623000022024,1,+10,856,7.77997637101215,-0.3753447843489788,1.2644999645483281,2758044.0,25.68677601083083,0.05969818183022024,0.13790980693147858,2761578.0,,,,,2762.2994030244995,2758.7654030244994,
192,56,38,m,1,4,184.0,32,2,high,2 + 9 + 1 + 1 - 5,8,7,6,8,2772.029926300005,2774.053020799998,2775.5683556000004,2780.5867670000007,2781.3621577000013,2781.3621630999987,2782.8792065000016,2783.8964253000013,e,8.0,0.7753907000005711,1,+10,866,30.555022851299555,0.1093743418040316,-0.004739094705885849,2771308.0,-3.725795890190703,0.1463918954578376,0.0754800192659082,2774842.0,,,,,2775.5634030244996,2772.0294030244995,
193,56,38,m,1,4,185.0,33,2,low,6 + 1 + 8 + 5 - 1,19,18,17,19,2785.4132522,2787.441522499997,2788.9567121,2793.976493900001,2795.202166400006,2795.2021717000025,2796.718719900004,2797.7355575999973,e,19.0,1.2256725000042934,1,+1,867,16.159079880997925,0.09193813078650104,0.1313245760152928,2620328.0,-16.363211726120078,-0.034343613223482006,0.17038709081351322,2788231.0,,,,,2788.9524030244997,2621.0494030244995,
194,56,38,m,1,4,186.0,34,4,low,4 + 7 + 9 - 5 + 7,22,22,24,23,2799.2516449999966,2801.2775700000057,2802.7928803999966,2807.811612199992,2808.354097699994,2808.354103000005,2809.870507200001,2810.887287699996,q,22.0,0.5424855000019306,1,+1,868,9.099287514514483,-0.11214097848355031,0.1930259248753936,2798533.0,-39.747523781031774,0.05763491162826195,0.17369538060839496,2802067.0,,,,,2802.7884030244995,2799.2544030244994,
195,56,38,m,1,4,187.0,35,4,high,7 + 8 - 4 + 6 + 5,22,22,23,21,2812.403577200006,2814.430754999994,2815.9461225999985,2820.966270200006,2822.2820071000024,2822.2820122999983,2823.798364500006,2824.8156567999977,q,22.0,1.3157368999964092,1,+10,878,15.059759171881982,0.09268997402104562,0.25034864019472947,2811685.0,14.43658852263739,0.08149712008653376,0.04970689681759133,2815221.0,,,,,2815.9424030244995,2812.4064030244995,
196,56,38,m,1,4,188.0,36,4,high,8 + 3 - 4 + 5 + 9,21,21,23,22,2826.3324445000035,2828.3561721000005,2829.871264600006,2834.889567799997,2835.682103300001,2835.682108299996,2837.198676400003,2838.215983999995,q,21.0,0.7925355000043055,1,+10,888,6.600167368052503,-0.09290656352736937,0.04192189314695982,2825611.0,0.24572627149934867,0.15979304207970646,-0.06985972222745973,2829145.0,,,,,2829.8664030244995,2826.3324030244994,
197,56,38,m,1,4,189.0,37,2,low,6 + 1 + 1 + 7 - 9,6,4,8,6,2839.7334208999964,2841.760211300003,2843.275296299995,2848.2936568000005,2849.097996099997,2849.098001099992,2850.6148689999973,2851.6317773000046,e,6.0,0.804339299997082,1,+1,889,6.889874248174871,-0.08578756570540147,-0.10613596622159505,2784696.0,23.48584699941611,0.14362997980667425,-0.28449358362493826,2842549.0,,,,,2843.2704030244995,2785.4174030244994,
198,56,38,m,1,5,190.0,0,4,high,2 + 9 - 6 + 8 - 4,9,7,11,9,2857.1255147000047,2859.152942300003,2860.668024999992,2865.6868532999943,2867.626025199992,2867.6260304000025,2869.142422699995,2870.159773899999,e,9.0,1.9391718999977456,1,+10,899,-45.77012748604852,-0.2669563289318604,-1.7837770956720718,2856408.0,7.526073223567727,-1.000199190590799,-0.2646968440995576,2859942.0,,,,,2860.6634030244995,2857.1294030244994,
199,56,38,m,1,5,191.0,1,2,low,9 + 6 + 1 + 7 + 1,24,25,23,24,2871.6765933999995,2873.703367900001,2875.2183872000023,2880.237496600006,2880.889977700004,2880.889986900001,2882.4066546999966,2883.423656500003,e,24.0,0.6524810999981128,1,+1,900,11.499876937282913,-0.07871315646894894,0.06770404872379299,2839015.0,-13.803958130558598,0.06291221330109353,0.2944186119787753,2874492.0,,,,,2875.2134030244997,2839.7364030244994,
