,id,age,sex,cued,block,trial,trialinblock,efflev,rewlev,calc,corAns,option1,option2,option3,tstart,ITI1Time,probTime,respTime,selectTime,ITI2Time,fbTime,ITI3Time,key_press,chosenAns,RT,acc,feedback,total_points,cuescr,cuecor,cuezyg,cuetime,probscr,probcor,probzyg,probtime,fbscr,fbcor,fbzyg,fbtime,probtime_c,cuetime_c,fbtime_c
0,57,19,m,0,Practice,,0,1,0,4 + 1 + 9 + 1 + 1,16,14,15,16,42.251816400006646,,42.251818600008846,47.27902090000862,49.51199110000744,49.511997800000245,51.02925270001288,52.05008559999988,e,16.0,2.2329701999988174,1,Correct,0,,,,,1.0868782629096714,0.2562091276869305,0.7009077794530674,41542.0,6.815350580816901,0.4287308680276065,0.12842916244719493,50313.0,42.2653390965068,,51.0363390965068
1,57,19,m,0,Practice,,1,1,0,3 + 1 + 1 + 8 - 1,12,12,11,10,53.56705820000207,,53.56706150001264,58.58790410000074,62.37614370000665,62.376150000010966,63.893186900008,64.91109400001005,q,12.0,3.788239600005909,1,Correct,0,,,,,-19.503421873665044,-0.10905992803377451,0.2243889790852336,52851.0,-7.070444316526277,0.11189483273150636,-0.011018532678746418,63174.0,53.5743390965068,,63.8973390965068
2,57,19,m,0,Practice,,2,2,0,8 + 1 + 6 + 1 - 4,12,12,10,11,66.42892440001015,,66.42893069999991,71.44865090001258,72.56813380001404,72.56814030000533,74.08518990001176,75.1028828000126,q,12.0,1.119482900001458,1,Correct,0,,,,,-17.645511650894758,-0.27381021403038197,0.16539242426799428,65711.0,3.477783059015417,0.6912451496808538,-0.17933643693800772,73366.0,66.43433909650679,,74.08933909650679
3,57,19,m,0,Practice,,3,2,0,9 + 4 - 6 + 1 - 1,7,7,6,5,76.62072970000736,,76.62073300000338,81.64089320000494,84.15209130001313,84.15209760000289,85.66831330000423,86.68701940000756,w,6.0,2.511198100008187,0,Incorrect,0,,,,,65.40262041545422,0.25612033769867315,-0.019765888726898773,75904.0,2.02074866748125,-0.3449167313739627,0.4550490186155911,84950.0,76.62733909650679,,85.6733390965068
4,57,19,m,0,Practice,,4,3,0,9 + 3 - 5 + 6 + 7,20,21,20,22,88.20350810000673,,88.20351130000199,93.2231257000094,94.09612970000308,94.09613590000664,95.61291410001286,96.63000660001126,w,20.0,0.8730039999936707,1,Correct,0,,,,,-0.2200073579798314,2.6322065976260083,1.0489887455412634,87486.0,15.493063746816155,-0.22085542874093855,0.456099090508002,94893.0,88.2093390965068,,95.61633909650679
5,57,19,m,0,Practice,,5,3,0,2 + 1 + 9 - 7 + 6,11,10,9,11,98.1470277000044,,98.1470311000012,103.16630930000974,103.96802610000304,103.96803240000736,105.48501500001294,106.50320340000326,e,11.0,0.8017167999933008,1,Correct,0,,,,,26.041455427935666,0.16465004742233136,0.35819600061206724,97429.0,-14.145773840405488,0.3050322939237784,0.13472687161931907,104766.0,98.1523390965068,,105.4893390965068
6,57,19,m,0,Practice,,6,4,0,4 + 8 + 5 - 3 + 7,21,22,23,21,108.0203038000036,,108.02030710001418,113.0400909000018,116.06406120001338,116.06406750000316,117.58114130000467,118.5993223000114,e,21.0,3.0239703000115696,1,Correct,0,,,,,-6.209180552835811,0.18194011882662764,-0.829666820331334,107303.0,-53.14804109821441,0.27707050948302814,0.10104919949827185,116862.0,108.02633909650679,,117.58533909650679
7,57,19,m,0,Practice,,7,4,0,5 + 8 - 4 + 6 + 9,24,24,23,22,120.11713520000922,,120.11713840000448,125.13600210000004,126.14382840000326,126.14383480000834,127.66056150000075,128.67859580001095,q,24.0,1.0078263000032166,1,Correct,0,,,,,-35.9405691034499,-0.0047631466880684314,-0.36449730024048055,119399.0,-16.092911739092948,-0.4376563207922377,0.46944272189377445,126941.0,120.12233909650679,,127.6643390965068
8,57,19,m,1,0,0.0,0,4,high,3 + 8 - 7 + 9 - 5,8,9,8,7,216.3655113000132,218.39272330001404,219.90778210001008,224.92679720000888,227.9574435000104,227.95744850000483,229.47419010000883,230.4911232000013,w,8.0,3.030646300001536,1,+10,10,-16.91535652866655,0.41897038391189767,0.1908669645862111,215655.0,1.4775883043701374,0.3768424684648344,0.09045592831949456,219189.0,-21.297809526138593,-2.5782398696431543,-0.5566929572628363,228754.0,219.9123390965068,216.3783390965068,229.4773390965068
9,57,19,m,1,0,1.0,1,3,low,3 + 1 + 6 - 8 + 9,11,13,11,12,232.008210400003,234.03402570000617,235.5492634000111,240.56733320000055,241.3335194000101,241.3335248000076,242.85008950000335,243.86713170001167,w,11.0,0.7661862000095425,1,+1,11,2.3762953595258605,-0.10101384638575173,-0.028291791140380163,231296.0,-31.408972999875303,-0.2443944122142323,0.1672714513533935,234830.0,-3.9806694538658576,-0.28045622911501455,0.12334425346995825,242129.0,235.55333909650682,232.0193390965068,242.8523390965068
10,57,19,m,1,0,2.0,2,3,low,4 + 5 - 3 + 7 - 1,12,12,11,13,245.38400230000843,247.4093995000003,248.9247639000096,253.94342380001035,254.73340380001173,254.73340880000612,256.2497349000041,257.26642120000906,q,12.0,0.7899800000013784,1,+1,12,-8.365560183432319,0.13625595963646697,0.15136081276545776,244672.0,-3.8406161178104012,-0.4875568511781472,-0.2904114471633221,248206.0,-8.829651702773436,-0.22375579463463557,0.03858877533723337,255529.0,248.9293390965068,245.3953390965068,256.2523390965068
11,57,19,m,1,0,3.0,3,4,low,6 + 9 + 7 - 3 - 5,14,13,15,14,258.7830576000124,260.8105487000139,262.32585480000125,267.3446414000064,270.2854997000104,270.2855054000101,271.80223190000106,272.8190956000035,e,14.0,2.940858300004038,1,+1,13,-28.765932892829554,-0.030741734058610692,0.041342906923344414,258073.0,-3.897012519320313,-0.10324387669180579,-0.06769205809716006,261607.0,17.441314868080973,0.6061152853016254,0.056293729963119654,271081.0,262.3303390965068,258.79633909650676,271.8043390965068
12,57,19,m,1,0,4.0,4,4,low,2 + 9 - 3 + 5 + 8,21,22,23,21,274.3359694000101,276.3617605000036,277.8769370000082,282.8956169000012,283.6534398000076,283.6534449000028,285.17058880001423,286.1875805000018,e,21.0,0.7578229000064312,1,+1,14,63.87468774138051,0.3879742777556814,0.08052079477730967,273624.0,-1.181075064586377,0.06150694296143433,-0.017512514756484077,277158.0,-0.36756481403516617,-0.1427435919737543,-0.08187397294765497,284450.0,277.8813390965068,274.3473390965068,285.17333909650677
13,57,19,m,1,0,5.0,5,2,low,4 + 8 + 1 + 1 - 6,8,9,7,8,287.7042031000019,289.7312362000084,291.2463848000043,296.265825200011,297.309479500007,297.309485100006,298.8262481000129,299.8431867000036,e,8.0,1.0436542999959784,1,+1,15,17.902315501343473,3.4556196662935337,1.5972288626410616,286993.0,10.73845599386722,0.2877884277030447,0.030857733641457274,290528.0,-47.61873033498286,-0.23407091816171643,0.009741848922213192,298105.0,291.2513390965068,287.7163390965068,298.8283390965068
14,57,19,m,1,0,6.0,6,4,low,4 + 7 + 8 - 3 + 9,25,25,24,26,301.3599940000131,303.38667390000774,304.9017023000051,309.9205990000046,311.50141680000525,311.5014219000004,313.0179458000057,314.03470650000963,q,25.0,1.5808178000006592,1,+1,16,-20.71153424021425,-0.09718239079805713,-0.04738792592213148,300649.0,8.377782408895577,0.17575532562827823,0.032571521047445096,304183.0,14.304603116062975,0.24718649090712974,0.05432450560995861,312297.0,304.90633909650677,301.3723390965068,313.0203390965068
15,57,19,m,1,0,7.0,7,1,high,7 + 1 + 6 + 1 + 1,16,17,16,18,315.5515086000087,317.5782259000116,319.0940477000113,324.1118669000134,324.94144040001265,324.9414459000109,326.4578043000074,327.4752789000049,w,16.0,0.8295734999992419,1,+10,26,-68.67088483226773,-0.3811907542601829,0.08940810748513806,314840.0,-16.164852448746473,-0.0737789120252561,0.021673223789321572,318374.0,9.443452338982603,-0.09657793768773892,0.08797251226394787,325737.0,319.0973390965068,315.56333909650675,326.4603390965068
16,57,19,m,1,0,8.0,8,4,high,8 + 5 - 4 + 7 + 9,25,24,26,25,328.99215430000913,331.01679370000784,332.53201790001185,337.550315600005,340.1093664000073,340.109371700004,341.6262534000125,342.64326220001385,e,25.0,2.5590508000022965,1,+10,36,17.52214204056794,0.4233998317809875,0.008152273160716872,328279.0,22.117543994536355,0.14596619058688498,0.0546696205182835,331813.0,-55.1382367315761,-0.2170893791304751,-0.051126225620605315,340905.0,332.53633909650677,329.0023390965068,341.62833909650675
17,57,19,m,1,0,9.0,9,1,high,8 + 1 + 1 + 1 - 3,8,9,6,8,344.1602792000049,346.1863679000089,347.7016428000061,352.71982680000656,353.3973993000109,353.39740470000834,354.9138658000011,355.9312983000127,e,8.0,0.6775725000043167,1,+10,46,-19.46753952297627,-0.0857484996602853,-0.051558012186395,343448.0,12.290267882792659,-0.3111147512395078,-0.042640920503485225,346982.0,11.617112298466278,0.30186286806883533,0.15143344077633558,354193.0,347.7053390965068,344.17133909650676,354.91633909650676
18,57,19,m,1,0,10.0,10,3,low,2 + 1 + 9 - 4 + 6,14,16,15,14,357.4480309000064,359.47351740000886,360.9885497000069,366.00629460001073,367.8213989000069,367.8214100000041,369.3379870000063,370.35511750000296,q,16.0,1.8151042999961648,0,+0,46,-8.520966178371708,0.4934405452022559,-0.02475495884359069,356735.0,-2.6822367208486604,-0.3083863546588619,0.08018672164159768,360268.0,-2.068702290557276,0.2126702992627676,-0.09364563347811217,455545.0,360.99133909650675,357.4583390965068,456.2683390965068
19,57,19,m,1,0,11.0,11,4,high,4 + 9 - 7 + 8 + 5,19,19,20,21,371.8720309000055,373.8984972000035,375.41439080001146,380.4341779000097,384.0214759000082,384.0214809000026,385.5383821000141,386.5559340000036,q,19.0,3.5872979999985546,1,+10,56,17.351873700625138,-0.06245514687760734,-0.10325352245335928,371160.0,-46.30337873492651,0.22890909292188377,0.15562358339285898,374696.0,-5.19995307715727,-0.35449043097971256,-0.027922097572053772,384818.0,375.4193390965068,371.8833390965068,385.54133909650676
20,57,19,m,1,0,12.0,12,1,low,7 + 1 + 4 + 1 - 1,12,13,12,14,388.0728587000049,390.095891200006,391.6111437000072,396.6307574000093,397.3653231000062,397.36532850000367,398.8820186000085,399.8992230000004,q,13.0,0.7345656999968924,0,+0,56,33.98576862290662,0.31494184578479345,0.047603999253680085,387358.0,9.208851506261288,-0.13386398823748635,0.10979400743018553,390893.0,-24.985892181649053,-0.07583592386192173,-0.030752504139701875,411777.0,391.61633909650675,388.0813390965068,412.50033909650676
21,57,19,m,1,0,13.0,13,1,high,3 + 1 + 9 + 1 - 1,13,14,13,12,401.41641670001263,403.4446353000094,404.9606678000128,409.9785161000036,410.9813243000099,410.9813293000043,412.4978362000111,413.5152554000088,w,13.0,1.0028082000062568,1,+10,66,36.50451369682533,-2.559189428663764,-1.4939311923144878,400706.0,-27.059479390628006,-0.14223576986110276,0.06182200134559146,404241.0,-9.502139973750166,-0.19756838278756028,0.08831196304467515,439370.0,404.96433909650676,401.4293390965068,440.0933390965068
22,57,19,m,1,0,14.0,14,2,low,2 + 1 + 9 - 4 + 1,9,8,11,9,415.0320151000051,417.0595849000092,418.57559850001417,423.59392680000747,425.1093380000093,425.1093443000136,426.6261511000048,427.6429567000014,e,9.0,1.5154112000018358,1,+1,67,0.7569117710760604,0.233507352214672,0.02578481578854186,414320.0,-29.713289237618863,-0.10673400412101364,0.007055032136329187,417856.0,-25.85809617855974,-0.02662606658101252,0.007631407042399063,425905.0,418.57933909650677,415.04333909650677,426.62833909650675
23,57,19,m,1,0,15.0,15,1,high,3 + 1 + 1 + 8 - 1,12,14,12,13,429.15991240000585,431.1871682000056,432.70268690001103,437.7207526000129,438.5733303000016,438.5733354000113,440.0908262000012,441.1080111000047,w,12.0,0.8525776999886148,1,+10,77,6.03808888353581,3.60645650938758,0.7239466804785173,428449.0,-8.596680247986464,0.07272766579902168,-0.6015218522760581,431983.0,-26.30718300366752,0.49971475714299896,0.04195238138116042,484640.0,432.7063390965068,429.1723390965068,485.36333909650676
24,57,19,m,1,0,16.0,16,3,low,3 + 1 + 8 - 5 + 9,16,17,16,15,442.6246045000007,444.6462159000075,446.16138710000087,451.1793933000008,454.7498190000042,454.74982380001165,456.2664364000084,457.2831887000066,w,16.0,3.5704257000033977,1,+1,78,-43.19959937039474,0.0940993199623179,0.014708533792656464,441908.0,16.032354903907965,0.16987200036877748,-0.02449950286326108,445441.0,7.816090521022925,0.07916456297861174,-0.029480688001074284,652015.0,446.16433909650675,442.6313390965068,652.7383390965068
25,57,19,m,1,0,17.0,17,2,high,8 + 1 + 4 - 7 + 1,7,6,7,5,458.79998200001137,460.8251264000137,462.3401097000024,467.3582588999998,470.5333301000064,470.5333355000039,472.0498078000092,473.0669122000109,e,5.0,3.175071200006641,0,+0,78,-16.01032506491054,0.21353340538547672,-0.2673190157684775,458087.0,-41.649029343280006,0.12132851370734454,0.06772467062626686,461620.0,3.2982276725961484,0.18801152351129247,0.047392136564901266,623273.0,462.3433390965068,458.81033909650677,623.9963390965069
26,57,19,m,1,0,18.0,18,1,low,2 + 1 + 1 + 9 - 1,12,13,11,12,474.5837731000065,476.6105165000045,478.1255283000064,483.143473300006,483.8454359000025,483.8454415000015,485.3617631000088,486.37869730000966,e,12.0,0.7019625999964774,1,+1,79,21.12385914538061,0.3341830695191115,-0.148960176835347,473872.0,40.858932266453486,0.10349773013665908,-0.03661768261625831,477405.0,2.527875931773308,-0.14523109411508228,0.2914282400107362,497921.0,478.12833909650675,474.5953390965068,498.64433909650677
27,57,19,m,1,0,19.0,19,1,high,9 + 8 + 1 + 1 - 1,18,17,18,19,487.8954434000043,489.9219596000039,491.4371877000085,496.4552759000071,497.1252130000066,497.12521820000256,498.64218310000433,499.6596070000087,w,18.0,0.6699370999995153,1,+10,89,-0.5993184382033423,1.128094405713295,-0.09699480123278748,487184.0,0.4347198787668667,0.3545752050001245,0.07953216373300354,490717.0,30.14077915213145,-0.3328155692971535,-0.2294885445862438,578056.0,491.44033909650676,487.9073390965068,578.7793390965069
28,57,19,m,1,0,20.0,20,4,high,9 + 8 - 5 - 7 + 6,11,10,11,13,501.1772840000049,503.2016049000085,504.7173234000074,509.7361171000084,513.213218600009,513.2132235000026,514.7302242000005,515.7481530000077,w,11.0,3.477101500000572,1,+10,99,11.696736801965216,0.14708199214598783,0.47347081439121164,500463.0,13.937190121977848,-0.17774938707661958,-2.704588449020574,503998.0,-20.109814508299273,0.026750251958427285,0.10738937582362973,514009.0,504.72133909650677,501.1863390965068,514.7323390965068
29,57,19,m,1,0,21.0,21,4,low,5 + 9 - 4 + 7 + 6,23,23,24,25,517.2652635000122,519.2912687000062,520.8065564000135,525.8262826000137,529.7971248000104,529.7971302000078,531.3137640000059,532.3307549000019,q,23.0,3.970842199996696,1,+1,100,-3.681464958923309,-0.13887737927488386,0.04318041759885327,516553.0,9.444606425892896,0.07385316487021543,-0.03232706835129506,520088.0,-2.1342004947538236,-0.7469721284885242,0.158040276295629,530592.0,520.8113390965068,517.2763390965068,531.3153390965068
30,57,19,m,1,0,22.0,22,4,high,8 + 4 + 7 - 5 - 6,8,6,8,9,533.8472676000092,535.8720754000096,537.3870807000058,542.4058005000115,545.2532304000051,545.2532357000018,546.7699732000037,547.7872805000079,w,8.0,2.847429899993585,1,+10,110,-12.813839767919214,0.5312816771823341,-0.0028438829647143837,533134.0,25.307292780017253,-0.09791021727142812,-0.042815848400348466,536667.0,-12.825366283442742,0.010908101480856303,-0.06006542513314583,546049.0,537.3903390965069,533.8573390965068,546.7723390965068
31,57,19,m,1,0,23.0,23,3,high,6 - 1 + 7 - 8 + 9,13,11,12,13,549.3041452000034,551.3292166000028,552.8445439000061,557.8633485000028,562.437104800003,562.4371099000127,563.9536969000037,564.9711222000042,w,12.0,4.573756300000241,0,+0,110,16.211908479035124,0.16450280646243565,0.015577723802150834,548591.0,5.221134625675997,0.9532221529894092,0.20097330097026167,552125.0,26.131576957483528,-0.1434580917321826,-0.03593477840339476,679464.0,552.8483390965068,549.3143390965068,680.1873390965069
32,57,19,m,1,0,24.0,24,1,low,4 + 9 + 1 - 1 - 1,12,11,13,12,566.4879758000025,568.5139415000012,570.0292093000025,575.0484424000024,577.2611940000061,577.2611995000043,578.7777821000054,579.7947447000042,e,12.0,2.212751600003685,1,+1,111,5.016459494537032,-0.25296840775513285,-0.014275638941848356,565775.0,2.7189125422873275,0.7370465378165485,0.11428109673653486,569310.0,13.970017104398455,-7.325693674331248,-2.465209965406206,591288.0,570.0333390965068,566.4983390965068,592.0113390965068
33,57,19,m,1,0,25.0,25,1,low,6 + 1 + 1 + 7 - 1,14,12,13,14,581.3115693,583.3348107000056,584.8502077000012,589.8686835000117,590.4931091000035,590.4931141000125,592.0097754000017,593.026669400002,e,14.0,0.6244255999918096,1,+1,112,-2.8369157656982136,0.01068347926373825,0.04496600759860514,580596.0,27.4344832469922,0.4819753260856676,0.08368152891855818,584130.0,14.626698331961434,-0.1026076494459045,-0.011685946226488442,692624.0,584.8533390965068,581.3193390965068,693.3473390965069
34,57,19,m,1,0,26.0,26,4,high,5 + 7 - 4 + 6 + 9,23,24,25,23,594.5431156000122,596.5702222000109,598.0852523000067,603.1038687000109,605.8291079000046,605.8291136000043,607.345985100008,608.363365600002,e,23.0,2.7252391999936663,1,+10,122,6.839391655563716,-0.22972736950411865,0.008427118095952535,593831.0,8.85658132741448,-0.10869917188820377,0.0455357249763122,597365.0,-1.3914503257226052,-0.38178450947597353,-0.021756499188891443,606624.0,598.0883390965068,594.5543390965069,607.3473390965069
35,57,19,m,1,0,27.0,27,2,high,7 + 5 + 1 - 1 - 8,4,3,4,2,609.8802234000032,611.9071282000077,613.4226003000076,618.4412225000124,622.4770377000095,622.4770429000055,623.9947622000036,625.0123402000027,w,4.0,4.03581519999716,1,+10,132,-1.7362812495705788,0.2690817062621862,0.08072174905758112,609168.0,24.94974256108336,-0.5069903595160712,0.015579043797772973,612702.0,23.300776102268614,0.24155817694263915,-0.04815497188620488,665751.0,613.4253390965068,609.8913390965068,666.4743390965068
36,57,19,m,1,0,28.0,28,4,high,5 + 8 - 4 - 6 + 9,12,12,13,14,626.5288661000086,628.5563656000013,630.07169170001,635.0898977000033,637.8530582000094,637.853063100003,639.3695872000098,640.3868285000062,e,14.0,2.763160500006052,0,+0,132,23.638439699725165,0.29458772490309526,0.032394970475360774,625817.0,14.17996091793,-0.285395904598694,0.015873254958594485,629351.0,-19.070231474393324,-0.6022657113388894,0.040544648680076234,754296.0,630.0743390965068,626.5403390965068,755.0193390965069
37,57,19,m,1,0,29.0,29,3,low,4 + 1 + 8 + 9 - 5,17,17,18,19,641.9036715000111,643.9278799000022,645.4433792000054,650.4613113000087,651.2210832000128,651.2210885000095,652.737569600009,653.7545271000126,q,17.0,0.7597719000041252,1,+1,133,-7.900886060454978,-0.049900550546372546,-0.10760670002618067,641189.0,-10.574713971023494,0.06055254952548106,0.051760676745549405,644722.0,9.774588529163141,-0.044880543766470105,-0.08703913779548733,705864.0,645.4453390965068,641.9123390965068,706.5873390965069
38,57,19,m,1,0,30.0,30,2,low,8 + 1 + 9 + 1 - 5,14,14,15,13,655.2712734000088,657.2982721000008,658.8131471000088,663.8310679000133,664.9571214000025,664.957126600013,666.4734787000052,667.4904426000139,q,14.0,1.1260534999892116,1,+1,134,-13.5232382009068,-5.56808316320212,-0.6807387418868907,654559.0,-23.561850596579536,0.23940724951474812,0.017728188875577144,658092.0,10.738989626585665,0.02387418382920714,0.028614433400399264,738567.0,658.8153390965068,655.2823390965068,739.2903390965068
39,57,19,m,1,0,31.0,31,3,high,4 + 7 - 3 + 5 - 1,12,13,12,11,669.0074487000093,671.0345429000008,672.549786100004,677.5686186000094,678.6690286000085,678.6690335000021,680.1858574000071,681.2032089000131,w,12.0,1.1004099999991013,1,+10,144,-1.4606467660719478,0.10711924595445899,0.05803904035394836,668295.0,3.134654942218611,0.3328375442303724,-0.04611688138834302,671830.0,10.37303411477857,0.6801736720683662,0.10849289726370137,722119.0,672.5533390965069,669.0183390965068,722.8423390965069
40,57,19,m,1,0,32.0,32,1,high,6 + 9 + 1 + 1 - 1,16,14,16,15,682.7203685000131,684.7446713000099,686.2601144000073,691.2782724000135,691.8289723000053,691.8289774000004,693.3456849000067,694.3636404000135,w,16.0,0.5506998999917414,1,+10,154,1.7120403245675675,0.2342031881594564,0.004918927747202595,682006.0,-52.563132384404724,-0.005321932617868619,0.01439948124223056,685539.0,0.41018983887584204,0.5783133850345745,0.852029899630069,770336.0,686.2623390965068,682.7293390965068,771.0593390965068
41,57,19,m,1,0,33.0,33,3,high,9 - 1 + 5 - 6 + 8,15,17,15,14,695.8801785000105,697.9031884000142,699.4183922000084,704.4366902000038,705.0689501000015,705.0689556000143,706.586015000008,707.6034537000087,w,15.0,0.6322598999977345,1,+10,164,-44.443174604396425,0.154120279226456,-0.0014651950051696172,695165.0,-0.7314937274028601,-0.31794787378822953,0.04997618585952135,698697.0,10.630503335146047,-0.23618245555119888,-0.06147674944564985,887975.0,699.4203390965068,695.8883390965068,888.6983390965069
42,57,19,m,1,0,34.0,34,3,low,2 - 4 + 9 + 7 + 1,15,16,15,13,709.1200658000016,711.1463037000067,712.6613519000093,717.6795925000042,721.3250881000131,721.325093300009,722.8416429000063,723.8586483000108,w,15.0,3.645495600008872,1,+1,165,30.67579690002079,0.34885431332575845,0.015768010372019248,708407.0,-15.651933100127735,0.031773533023696565,0.022633538872640857,711941.0,25.594494792347877,-0.12783970292556734,-0.1777828936335093,1185544.0,712.6643390965069,709.1303390965069,1186.267339096507
43,57,19,m,1,0,35.0,35,2,low,4 + 9 - 7 + 1 - 1,6,6,5,8,725.3756100000028,727.4037699000037,728.918994800013,733.9391671000049,737.7730517000018,737.7730572,739.2893146000133,740.306018400006,q,6.0,3.833884599996964,1,+1,166,25.506011407197416,0.34243505682196895,0.031133921524994168,724664.0,9.119115593529006,-0.19406718082870755,0.03890475075574229,728200.0,-8.060427401196051,0.2927494054979052,0.11732942451997941,901287.0,728.9233390965069,725.3873390965068,902.0103390965069
44,57,19,m,1,0,36.0,36,4,high,4 + 7 + 9 - 5 + 7,22,23,22,24,741.8227253000077,743.8502012000099,745.3654817000061,750.385683200002,753.5009630000131,753.5009688999999,755.0185083000106,756.0358531000093,w,22.0,3.1152798000111943,1,+10,176,-3.0324163260770334,-0.07119097087314774,0.1040556382888409,741111.0,6.355145252079391,0.2873931603634774,0.15215965102149842,744646.0,6.906608984754158,0.4172991581003149,0.5100052560715658,855960.0,745.3693390965068,741.8343390965068,856.6833390965069
45,57,19,m,1,0,37.0,37,1,high,5 + 8 - 1 + 1 + 1,14,16,12,14,757.5522275000112,759.5754868000076,761.0907350000052,766.1088309000042,769.5409562000132,769.5409616000106,771.0576240000082,772.0740900000092,e,14.0,3.43212530000892,1,+10,186,46.990872468429565,-0.4350346147401809,-0.1446634349941307,756836.0,52.22893191162138,-0.06715181690818595,-0.3768600252463643,760370.0,-5.701578919568998,8.968381957886667,6.399308819500696,871055.0,761.0933390965068,757.5593390965068,871.7783390965068
46,57,19,m,1,1,38.0,0,4,low,5 + 8 - 6 + 7 + 4,18,19,18,17,844.5773434000002,846.6035519000143,848.1191222000052,853.1395197000093,855.1648296000058,855.1648508000071,856.6823235000047,857.6998097000032,w,18.0,2.0253098999965005,1,+1,187,-0.8677510468819101,8.961002641807001,3.994430498428346,843864.0,-5.616276231158645,-0.5166330326250352,-0.24250613979021307,847400.0,-25.22163664020242,0.28202391649398706,-0.31254609764723695,956727.0,848.1233390965068,844.5873390965069,957.4503390965068
47,57,19,m,1,1,39.0,1,1,low,8 + 1 + 1 + 1 - 4,7,7,8,5,859.2172151000123,861.2428254000115,862.7581786000083,867.7772027000028,870.2608908000111,870.2608959000063,871.7774594000075,872.7945799000008,q,7.0,2.483688100008294,1,+1,188,-9.501247958683965,0.04185303178370958,0.10019145470977575,858503.0,4.880914938284684,-0.05638523783727978,0.10588465482208331,862037.0,20.6456254091651,0.03949746815009059,0.035560179387800206,930136.0,862.7603390965069,859.2263390965069,930.8593390965068
48,57,19,m,1,1,40.0,2,3,high,5 + 6 - 4 - 1 + 7,13,14,15,13,874.3114870999998,876.3391936000116,877.8548987000104,882.8733935000055,887.1808228000009,887.1808324000012,888.6972674000135,889.7143125000002,e,13.0,4.30742929999542,1,+10,198,2.88110657057153,0.5061938963765868,0.061571353893359326,873599.0,32.43454719266153,0.020169845418124055,-0.10633703345655388,877134.0,25.307892952010512,0.6290827914735553,0.025393123036126397,1211990.0,877.8573390965068,874.3223390965069,1212.7133390965068
49,57,19,m,1,1,41.0,3,2,low,8 + 1 + 1 + 9 - 4,15,16,15,14,891.2311440000049,893.2584598000103,894.7737169000029,899.7917932000128,900.4928284000052,900.4928334000142,902.0094127000048,903.0264812000096,w,15.0,0.7010351999924751,1,+1,199,12.413411265392288,-0.07510018885142022,-0.15662299703769755,890518.0,0.6284713973846721,0.10763237839961315,-0.1505667250384055,894052.0,2.166167812357463,0.28993662933852793,-0.021854145472538722,971255.0,894.7753390965069,891.2413390965069,971.9783390965068
50,57,19,m,1,1,42.0,4,4,low,9 + 3 - 5 + 8 + 6,21,19,21,23,904.5431779000064,906.568098600008,908.0834846000072,913.101726800014,916.1568179000024,916.1568232000136,917.6731806000024,918.6904993000062,q,19.0,3.0550910999882035,0,+0,199,11.43896875562552,-0.7292826504409211,-0.02729236558800774,903828.0,-9.047218856618564,2.8334364774956424,0.03724559332865196,907363.0,-13.59665927944315,0.17077709683617392,0.04346757459384287,1001775.0,908.0863390965069,904.5513390965068,1002.4983390965068
51,57,19,m,1,1,43.0,5,1,high,5 + 6 + 1 + 1 + 1,14,13,14,16,920.20707080001,922.2340077000116,923.7491444000044,928.7670886000124,929.3407813000084,929.3407868000068,930.8579392000102,931.8755164000032,w,14.0,0.5736926999961725,1,+10,209,-7.616394256645074,0.4314734043356552,0.2676075798758202,919494.0,-20.403131149283368,-1.149554971241324,0.06740604466555955,923027.0,0.6111392959648185,0.4626156578337568,-0.15231026891402255,943439.0,923.7503390965069,920.2173390965069,944.1623390965068
52,57,19,m,1,1,44.0,6,1,high,5 + 9 - 1 + 1 + 1,15,15,13,17,933.3923664000032,935.416495700003,936.9318932000024,941.949887900002,942.6447509999998,942.6447560000088,944.1614269000128,945.1788151000072,q,15.0,0.6948630999977468,1,+10,219,-10.695564856648318,0.110985407014355,-0.02257735586507925,932677.0,-0.5062413830683639,-0.2223206428809359,0.09918537838131991,936210.0,29.69805205471766,-0.6347163576677426,0.2880155314871544,984407.0,936.9333390965069,933.4003390965069,985.1303390965069
53,57,19,m,1,1,45.0,7,4,high,5 + 7 - 4 - 6 + 9,11,11,12,13,946.6953154000076,948.7196093000092,950.2349391000024,955.2532549000024,955.9327292000088,955.9327346000064,957.4496279000014,958.4670043000078,q,11.0,0.6794743000064045,1,+10,229,60.309319454197436,1.97559294762869,2.416840782687518,945980.0,-25.785244362177366,-2.1749359750956208,-0.7219305680262831,949514.0,20.214308883143673,-0.6206482771832316,-0.2276048161645272,1055814.0,950.2373390965068,946.7033390965069,1056.537339096507
54,57,19,m,1,1,46.0,8,2,low,9 + 5 - 6 + 1 - 1,8,7,8,9,959.983809600002,962.0121584000008,963.5273911000112,968.5457692000056,970.460737500005,970.4607426000002,971.9776550000096,972.9949571000034,w,8.0,1.9149682999996005,1,+1,230,-6.046218441381448,1.9368168657495266,0.02828959877549475,959272.0,14.690523930012205,-0.4124124133717588,-0.048916421522441134,962806.0,12.58499661260635,-0.024268275994327126,0.04232913732797394,1029183.0,963.5293390965069,959.9953390965069,1029.9063390965068
55,57,19,m,1,1,47.0,9,1,high,8 + 1 + 1 - 1 - 4,5,3,5,6,974.511966200007,976.5378218000114,978.0529969000054,983.0721363000048,983.612780800002,983.6127861000132,985.1293566000096,986.1461227000108,w,5.0,0.5406444999971427,1,+10,240,14.30666161407825,1.303670109777348,0.07213443614928705,973798.0,-14.567420656718271,-0.07007552589172583,0.4591794608672264,977332.0,-24.29866670946749,0.9610647224000255,-0.09751455103847251,1015038.0,978.0553390965068,974.5213390965068,1015.7613390965068
56,57,19,m,1,1,48.0,10,4,high,7 + 6 + 8 - 4 + 5,22,21,23,22,987.663032100012,989.6872334000072,991.2025136000012,996.221056600014,1000.980724500012,1000.9807294000055,1002.4973392000102,1003.5147831000068,e,22.0,4.759667899998021,1,+10,250,8.633440304983413,0.5802091036386474,-0.033376111481187465,986947.0,-39.446161340261966,0.5524346464901946,-0.04302291111060397,990481.0,8.254050775679977,0.6676727571237047,0.17189666136149961,1152798.0,991.2043390965068,987.6703390965068,1153.5213390965068
57,57,19,m,1,1,49.0,11,1,low,8 + 1 + 5 + 1 + 1,16,17,15,16,1005.0316211000028,1007.0578673000128,1008.5728466,1013.5919550000108,1014.2446962000104,1014.2447015000072,1015.7614577000058,1016.7783523000109,e,16.0,0.652741199999582,1,+1,251,22.25661372591537,1.8316238886716842,-0.05148986937763178,1004318.0,7.977390496910157,0.6487829259497948,0.08097031033077973,1007852.0,-4.573927022979975,0.18401406494990047,-0.0007957194002037316,1068918.0,1008.5753390965068,1005.0413390965068,1069.6413390965067
58,57,19,m,1,1,50.0,12,2,high,2 + 9 + 1 + 1 - 5,8,8,6,7,1018.2951811000094,1020.3224311000084,1021.8376233000016,1026.8566210999998,1028.388725900004,1028.3887311,1029.9057277000102,1030.9232839000033,q,8.0,1.5321048000041628,1,+10,261,39.93242448850865,-0.8805014441511032,0.0636728285397683,1017582.0,14.917536807528904,0.5649853498987207,0.06768488953342344,1021116.0,-19.56667202728255,0.32641642684996386,0.007118015910324571,1042494.0,1021.8393390965068,1018.3053390965068,1043.2173390965067
59,57,19,m,1,1,51.0,13,2,low,7 + 6 + 1 - 1 - 8,5,3,4,5,1032.4404922000103,1034.4674978000112,1035.9828572000115,1041.0013985000114,1041.7007856000128,1041.700790700008,1043.2173992000023,1044.234302500001,e,5.0,0.6993871000013314,1,+1,262,-3.802602261288925,-0.24218892693920502,0.11433300100719435,1031728.0,-26.171712378923036,0.8857177604910804,-0.2563644575187809,1035261.0,-20.065015665512103,-1.8792426441649095,-0.0671164363448411,1081983.0,1035.9843390965068,1032.451339096507,1082.7063390965068
60,57,19,m,1,1,52.0,14,4,low,3 + 9 - 4 + 7 + 6,21,21,19,20,1045.7511726000084,1047.7782124000078,1049.293516100006,1054.3120123000117,1055.0206880000042,1055.0206933000009,1056.537090800004,1057.554168600007,q,21.0,0.7086756999924546,1,+1,263,-16.14256673710217,-0.15262941827499077,-0.05472213194627118,1045038.0,-3.442989287811969,0.08162839362959673,0.018875180284732673,1048572.0,8.306946893706524,0.7362083621200008,0.10514477118848475,1295437.0,1049.2953390965067,1045.7613390965068,1296.1603390965067
61,57,19,m,1,1,53.0,15,1,low,2 + 1 + 9 + 1 + 1,14,14,13,12,1059.0722064,1061.0975697000104,1062.612605500006,1067.6305854000093,1068.1246356000047,1068.1246408000006,1069.6410893000138,1070.6579404000076,q,14.0,0.4940501999953994,1,+1,264,-9.429462201657252,0.5505700419689541,6.325208975352622,1058358.0,-21.27305375972044,0.7478573299199001,-0.4556652152630818,1061890.0,-31.173172133553173,-1.2439945957774636,-0.4366558581983031,1095102.0,1062.613339096507,1059.0813390965068,1095.825339096507
62,57,19,m,1,1,54.0,16,2,low,6 + 8 + 1 + 1 - 7,9,8,9,11,1072.174576800011,1074.2023745000042,1075.7177126000024,1080.7360363000043,1081.188576900007,1081.1885817000002,1082.7059241000095,1083.7229003000102,w,9.0,0.4525406000029761,1,+1,265,-1.2476806424935063,-0.15908187486204728,0.23960731755981035,1071462.0,-38.57527131054634,0.5663602245187436,0.11538128208768272,1074996.0,-8.967627731707552,0.18495006144934512,-0.13800403247123927,1225374.0,1075.719339096507,1072.1853390965068,1226.0973390965069
63,57,19,m,1,1,55.0,17,1,high,3 + 1 + 8 + 1 + 1,14,13,14,16,1085.2397287000058,1087.2670343000063,1088.782373500013,1093.800562700009,1094.3086721,1094.3086776000127,1095.8252280000015,1096.842699300003,w,14.0,0.5081093999906443,1,+10,275,-39.61244250508537,0.32157394911269144,0.05117575953218467,1084527.0,13.71738195137329,0.21216553413539074,0.07599685310679671,1088060.0,3.726858054506801,-0.8144555873650892,0.7205758233900261,1108206.0,1088.7833390965068,1085.2503390965069,1108.9293390965067
64,57,19,m,1,1,56.0,18,1,low,2 + 9 + 1 + 1 + 1,14,13,14,12,1098.3594119000045,1100.3864152000024,1101.9014446000074,1106.9194712000026,1107.4127684000125,1107.4127735000077,1108.928947700013,1109.9458804000024,w,14.0,0.4932972000096924,1,+1,276,0.7777434943096253,-0.31536537260401687,-0.04062816540095082,1097646.0,10.62199805890247,-0.40064754502154765,0.04383809903098501,1101179.0,-8.411739817625145,-0.04420782181180627,-0.05898105473917159,1252269.0,1101.902339096507,1098.3693390965068,1252.9923390965068
65,57,19,m,1,1,57.0,19,3,high,3 + 1 + 8 - 5 + 6,13,14,15,13,1111.462447400001,1113.4906422000058,1115.0062225,1120.024473100013,1122.892525800009,1122.892530700003,1124.409245100003,1125.4264362000104,q,14.0,2.868052699996042,0,+0,276,-16.444289314248927,-0.33767125768687967,-0.9506144037422832,1110751.0,0.7384106514830329,0.4927052514966215,0.16314480172977186,1114284.0,22.826892955797014,0.37556966465122255,0.056576356192046706,1322301.0,1115.007339096507,1111.4743390965068,1323.0243390965068
66,57,19,m,1,1,58.0,20,3,high,6 + 1 + 8 + 7 - 9,13,15,13,14,1126.9432900000102,1128.969642000011,1130.4845507000136,1135.503354300003,1138.1965846000094,1138.1965897000046,1139.7131754000002,1140.7304322000127,e,14.0,2.693230300006689,0,+0,276,18.36307710904489,6.71971994859868,2.4088623628225085,1126229.0,24.967153005735486,21.912190052286398,19.465899551959083,1129763.0,45.198901338582,0.09253711012775545,0.004691536607613012,1338333.0,1130.4863390965068,1126.9523390965069,1339.056339096507
67,57,19,m,1,1,59.0,21,4,high,7 + 6 - 9 + 8 - 3,9,8,9,7,1142.2472592000122,1144.2726769,1145.7881291000083,1150.8070238000073,1152.0045529000054,1152.0045580000003,1153.5210326000088,1154.5383056000137,w,9.0,1.1975290999980643,1,+10,286,29.499690935022006,0.5657882351483132,0.11426712215170465,1141532.0,-9.69508473730815,12.133062392975752,14.527894583339405,1145067.0,-15.327420397508892,0.02615675307472065,0.11161455726929748,1524821.0,1145.7903390965068,1142.2553390965068,1525.5443390965067
68,57,19,m,1,1,60.0,22,3,low,3 - 7 + 5 + 1 + 9,11,11,12,13,1156.055100800004,1158.0810266000044,1159.5963996000064,1164.614978800004,1169.6325753000128,1169.6325778000028,1171.1493498000054,1172.1707864000057,,,,0,Too Slow!,286,17.677554253688783,0.5519768175088617,0.1481573939099894,1155341.0,-2.5777791696667105,1.0385056933170485,0.309534371542606,1158875.0,-34.045980707960936,0.04443400821435883,0.03302483257001021,1170430.0,1159.5983390965068,1156.0643390965067,1171.153339096507
69,57,19,m,1,1,61.0,23,3,high,2 + 1 + 9 - 7 + 6,11,12,13,11,1173.6873522000096,1175.7131986000022,1177.2283235000068,1182.248462100004,1184.7485142000078,1184.748519300003,1186.2660378,1187.2845161000005,e,11.0,2.5000521000038134,1,+10,296,6.441388228413167,-0.4313925546396393,-0.10377751537205682,1172973.0,21.784415057436004,-0.10831753027356106,-0.06759026591979733,1176508.0,-0.3658188255742436,-0.11706673677910451,0.2697353995867675,1670897.0,1177.2313390965069,1173.6963390965068,1671.6203390965068
70,57,19,m,1,1,62.0,24,1,low,4 + 1 + 1 + 7 - 1,12,14,13,12,1188.8017993000103,1190.8292739000026,1192.3444779000129,1197.3627521000017,1197.8925043000054,1197.8925092000136,1199.4092513000069,1200.427353200008,w,13.0,0.5297522000037134,0,+0,296,-15.993462030903022,0.12378776957773541,0.05066936995642557,1188089.0,26.615641291181475,0.13149719930741544,0.13879488918105687,1191623.0,-0.3309545010131929,0.4134553318977787,0.22552762049484554,2744398.0,1192.3463390965069,1188.8123390965068,2745.1213390965067
71,57,19,m,1,1,63.0,25,3,high,8 - 7 + 9 + 1 + 4,15,14,15,16,1201.944346400007,1203.9714160000003,1205.4866739999998,1210.5043651000017,1211.1965144000133,1211.1965199000117,1212.7131258000009,1213.7303675000005,w,15.0,0.6921493000118062,1,+10,306,-2.9070712826133374,0.09946380261233156,-0.4643041329390456,1201231.0,2.5034372755935124,0.16939784942884462,0.1381171606847318,1204765.0,,,,,1205.488339096507,1201.9543390965068,
72,57,19,m,1,1,64.0,26,2,high,7 + 6 + 1 + 8 + 1,23,22,23,21,1215.2470658000093,1217.2728346000076,1218.7881664000015,1223.8068146000005,1224.5804793000134,1224.580484200007,1226.0970718000026,1227.1142980000004,w,23.0,0.7736647000128869,1,+10,316,15.68439714202789,0.04560622793507241,0.08121035826610279,1214532.0,-3.9272856367485733,-0.017174865998911937,-0.02197810563153957,1218066.0,,,,,1218.7893390965069,1215.2553390965068,
73,57,19,m,1,1,65.0,27,2,low,6 + 1 + 1 + 7 - 9,6,8,6,4,1228.6312928000116,1230.658342300012,1232.1735131000023,1237.1913463000092,1238.236459900014,1238.236465000009,1239.7538792000123,1240.7707877000066,w,6.0,1.0451136000046972,1,+1,317,-3.4318385755267578,0.38845934804462257,0.056037634983332474,1227918.0,28.4148387403077,-0.28653522178382973,0.06631191638545086,1231451.0,,,,,1232.1743390965069,1228.6413390965067,
74,57,19,m,1,1,66.0,28,1,high,6 + 1 + 8 + 1 - 1,15,15,13,14,1242.2877085000073,1244.3146232,1245.8303105000086,1250.848301200007,1251.4764142000058,1251.476419300001,1252.9928668000066,1254.0099310000078,q,15.0,0.628112999998848,1,+10,327,-0.36120141295244323,0.029886315231474336,-0.03608394795631775,1241574.0,24.182933611344588,0.6786392679344653,0.010120189151275438,1245108.0,,,,,1245.8313390965068,1242.297339096507,
75,57,19,m,1,1,67.0,29,2,high,5 + 1 + 7 - 6 + 1,8,6,8,7,1255.527088200004,1257.552326600009,1259.067664800008,1264.0878716000009,1264.676466200006,1264.676471400002,1266.192943800008,1267.211088600001,w,8.0,0.5885946000053082,1,+10,337,-13.821597892378747,0.366140112464469,0.06428529232912883,1254812.0,11.967708859792705,0.5625503558185558,0.10679156993715444,1258347.0,,,,,1259.0703390965068,1255.5353390965067,
76,57,19,m,1,1,68.0,30,4,low,8 + 4 + 7 - 5 - 6,8,8,9,7,1268.7275971000054,1270.7508220000018,1272.2661523000131,1277.2845252000116,1281.5565036000044,1281.556508700014,1283.073070700004,1284.090266500003,w,9.0,4.271978399992804,0,+0,337,-0.8420816936683035,0.41692493908733885,0.004056975024887999,1268011.0,8.922059996679367,0.1273829289960018,0.042944020649564596,1271544.0,,,,,1272.267339096507,1268.7343390965068,
77,57,19,m,1,1,69.0,31,4,low,8 + 7 - 4 + 5 + 9,25,24,25,26,1285.6073891000124,1287.6326909000054,1289.1484996000072,1294.16892560001,1294.6443986000086,1294.6444038000045,1296.1611074000102,1297.178391100009,w,25.0,0.4754729999986011,1,+1,338,-32.951190103315575,0.572236153014803,-0.050658947595850545,1284892.0,1.3250829720856663,-0.008820183440759077,-0.06898210269066363,1288428.0,,,,,1289.151339096507,1285.615339096507,
78,57,19,m,1,1,70.0,32,2,high,6 + 1 + 7 + 5 - 1,18,16,17,18,1298.6952342000004,1300.72004130001,1302.235444100006,1307.2534979000047,1308.2684061000036,1308.2684111000126,1309.7850446000084,1310.80233820001,e,18.0,1.0149081999988994,1,+10,348,-16.704392794442903,0.5915654760185403,-0.21244004116442983,1297979.0,3.85088686724448,-1.4561503563499518,-0.40538969405838077,1301513.0,,,,,1302.2363390965068,1298.7023390965069,
79,57,19,m,1,1,71.0,33,3,low,5 + 6 + 7 - 1 - 9,8,7,9,8,1312.3192437000107,1314.3447401000012,1315.860194400011,1320.8783933000086,1321.5083746000018,1321.5083797000116,1323.025364000001,1324.0423114000005,e,8.0,0.6299812999932328,1,+1,349,26.294802348524374,-0.4139944720287483,-0.07791469628782122,1311604.0,-24.291837826330383,0.03511976001841166,-0.08149567342217412,1315138.0,,,,,1315.8613390965068,1312.3273390965069,
80,57,19,m,1,1,72.0,34,3,high,9 + 3 - 4 + 6 + 7,21,22,23,21,1325.5589042000065,1327.5822012000135,1329.097351000004,1334.1161319000091,1337.5404224000083,1337.5404280000075,1339.0567331000057,1340.0741852000065,e,21.0,3.424290499999188,1,+10,359,-7.669343816354882,-1.1124355620612252,-0.09495911240050048,1324841.0,-27.565993967047092,-0.7590174509586256,-0.019930152092620945,1328375.0,,,,,1329.0983390965068,1325.5643390965067,
81,57,19,m,1,1,73.0,35,1,low,9 + 1 + 1 + 7 - 1,17,17,16,19,1341.5910023000033,1343.6180587000126,1345.1334717000136,1350.151803700006,1350.7082847000129,1350.7082900000096,1352.22489160001,1353.2417678000056,q,17.0,0.5564810000068974,1,+1,360,18.46404407665236,-0.3350185084086066,0.3157027243985686,1340877.0,-4.2275004089967085,0.1014336930942159,-0.04522787330047651,1344411.0,,,,,1345.134339096507,1341.6003390965068,
82,57,19,m,1,1,74.0,36,2,low,7 + 5 + 1 + 9 + 1,23,21,22,23,1354.7584470000002,1356.7858318000071,1358.3012361,1363.3193860000029,1363.844280300007,1363.8442856000038,1365.360775400011,1366.3775273000065,e,23.0,0.5248943000042345,1,+1,361,-17.397603467372907,0.4394839201770391,0.18403983626499842,1354045.0,-11.69436717235079,0.24158933098825264,0.038973700052335136,1357578.0,,,,,1358.3013390965068,1354.768339096507,
83,57,19,m,1,1,75.0,37,3,high,4 + 7 + 1 + 9 - 5,16,17,18,16,1367.8937068000089,1369.9188633000012,1371.434150400004,1376.4540978000005,1377.1324059000035,1377.132411300001,1378.6491307000106,1379.6664949000117,e,16.0,0.6783081000030506,1,+10,371,-3.368457505400208,-0.4680489892829782,0.02655719878855667,1367178.0,9.745909466993611,-0.15890959904300495,-0.10914713941033005,1370713.0,,,,,1371.4363390965068,1367.901339096507,
84,57,19,m,1,2,76.0,0,4,high,4 + 7 - 8 + 9 - 3,9,11,9,8,1498.400798200004,1500.4275301000016,1501.9428186000005,1506.9620558000024,1509.7482200000086,1509.748225400006,1511.2647622000077,1512.2821114000108,e,8.0,2.7861642000061693,0,+0,371,12.03419859813003,-37.78184025051365,-18.831087559897647,1497686.0,10.989704841039588,-0.15782550724170719,0.0349243519245952,1501221.0,,,,,1501.9443390965068,1498.4093390965068,
85,57,19,m,1,2,77.0,1,4,high,6 + 9 - 7 + 8 - 5,11,11,12,13,1513.798990700001,1515.8252521000104,1517.340224300002,1522.3589631000068,1524.028183100003,1524.0281884000142,1525.5446672000107,1526.5622775000083,q,11.0,1.6692199999961304,1,+10,381,-21.782133673651202,-0.0033924801247025016,0.045236681715854044,1513084.0,-5.284721676152507,0.44071189264073185,0.023666646950205816,1516617.0,,,,,1517.3403390965068,1513.807339096507,
86,57,19,m,1,2,78.0,2,2,high,4 + 8 + 1 + 1 - 5,9,11,8,9,1528.0791648000013,1530.106115500006,1531.6212592000084,1536.6392368000088,1537.0521483000048,1537.052154200006,1538.5683258000065,1539.5854232000129,e,9.0,0.4129114999959711,1,+10,391,8.37222599089282,0.05493803640358852,0.1095551418772387,1527364.0,-32.01214534827883,-0.5006454558011955,0.19853222329131315,1530898.0,,,,,1531.6213390965067,1528.0873390965069,
87,57,19,m,1,2,79.0,3,4,low,7 + 8 - 4 + 6 - 5,12,12,13,11,1541.1023024000024,1543.1242922000092,1544.6398228000037,1549.658453400014,1553.2842066000012,1553.284212700004,1554.800641000009,1555.817591400002,q,12.0,3.62575319998723,1,+1,392,14.629392666041282,0.1690059969063331,0.09760406726313864,1540383.0,2.4631445348303114,-1.3014732747910076,-0.4016141203990211,1543917.0,,,,,1544.6403390965068,1541.1063390965069,
88,57,19,m,1,2,80.0,4,4,low,3 + 9 - 5 + 8 - 7,8,9,7,8,1557.3344829000123,1559.359054900007,1560.8742622000136,1565.8923929000011,1566.668166000003,1566.6681719000044,1568.184469300002,1569.2014060000074,e,8.0,0.7757731000019703,1,+1,393,35.56249390922639,0.31270430412136463,0.023810060322451143,1556617.0,16.213338663029514,-0.013215032506793234,0.07005595112098639,1560151.0,,,,,1560.874339096507,1557.3403390965068,
89,57,19,m,1,2,81.0,5,1,low,7 - 1 + 1 + 9 - 1,15,13,14,15,1570.718142200014,1572.7441794000042,1574.2597155000112,1579.278405100005,1580.0041159000102,1580.0041211000062,1581.5202975000138,1582.5369116000074,e,15.0,0.7257108000048902,1,+1,394,-11.637045537377574,-0.35564804331127053,-0.04531361479245155,1570002.0,-3.756150507654553,0.04856953614663584,0.015227949595242096,1573537.0,,,,,1574.2603390965069,1570.7253390965068,
90,57,19,m,1,2,82.0,6,3,low,7 - 6 + 8 + 1 + 7,17,15,16,17,1584.054253600014,1586.0808930000055,1587.5960129000014,1592.6158655000036,1593.1641120000131,1593.1641170000075,1594.680784600001,1595.6977338000142,e,17.0,0.5482465000095544,1,+1,395,-31.027713251049295,0.13974171471518249,-0.02838378871907854,1583339.0,11.10225292947916,0.09561107666771629,0.011270379610476722,1586874.0,,,,,1587.5973390965069,1584.0623390965068,
91,57,19,m,1,2,83.0,7,2,low,9 + 6 + 1 + 7 + 1,24,25,24,23,1597.2141499999998,1599.2425744000066,1600.7578066000133,1605.7756598000124,1606.3801786000113,1606.3801841000095,1607.8973153000115,1608.9144524000003,w,24.0,0.6045187999989139,1,+1,396,0.7583932729908529,1.1141543559083649,0.15525299660016145,1596500.0,-23.79120167195194,13.026741193580435,9.608320959138755,1600034.0,,,,,1600.757339096507,1597.2233390965068,
92,57,19,m,1,2,84.0,8,4,high,4 + 7 + 8 - 3 + 9,25,26,25,24,1610.4307798000082,1612.4575179000094,1613.9725996000052,1618.9919141000137,1623.1881432000082,1623.188148900008,1624.7047391000087,1625.7217035000067,w,25.0,4.196229099994525,1,+10,406,0.34980811297106573,-0.06298243459685748,0.05651379829592851,1609716.0,20.88907115088864,1.6591695386574266,2.4760627648530242,1613251.0,,,,,1613.9743390965068,1610.4393390965067,
93,57,19,m,1,2,85.0,9,3,low,8 + 5 + 1 - 7 + 9,16,17,14,16,1627.238523100008,1629.260160900012,1630.7751387000026,1635.7936036000028,1639.188166900014,1639.1881723000115,1640.7048899000074,1641.72185490001,e,16.0,3.394563300011214,1,+1,407,1.4065554454218665,8.812557501070618,10.669059339667182,1626518.0,11.191817146808607,-0.0749472978180592,-0.2612388105896004,1630052.0,,,,,1630.7753390965067,1627.2413390965069,
94,57,19,m,1,2,86.0,10,1,high,5 + 1 + 1 + 9 + 1,17,16,17,19,1643.238693200008,1645.2645615000074,1646.7796233000115,1651.7976875000022,1652.4760733000005,1652.4760789000138,1653.9926808000018,1655.0101824000012,w,17.0,0.6783857999980683,1,+10,417,14.252347031804804,0.04334793248112945,0.30752136847800804,1642523.0,28.688755507688377,-4.723799983693915,-3.8582178359685106,1646056.0,,,,,1646.7793390965069,1643.2463390965067,
95,57,19,m,1,2,87.0,11,3,high,6 - 1 + 7 - 8 + 9,13,12,11,13,1656.5269296000042,1658.5519117000076,1660.067462100007,1665.086475300006,1670.1041119,1670.1041149000084,1671.6205814000132,1672.6386938000069,,,,0,Too Slow!,417,18.872071190326608,-18.518375825626165,-17.201206534980685,1655810.0,-0.6460544175501397,3.3893229600867905,3.7936297004064974,1659344.0,,,,,1660.0673390965069,1656.5333390965068,
96,57,19,m,1,2,88.0,12,1,low,3 + 1 + 1 + 9 - 1,13,13,14,12,1674.1554854000133,1676.1818921000086,1677.6970700000093,1682.7160431000084,1683.4119798000029,1683.4119855000026,1684.9283558000025,1685.9460113000096,q,13.0,0.6959366999944905,1,+1,418,-2.139589246936037,-0.3064635907595703,0.01053008988693982,1673440.0,-4.190612557582249,0.061920889743556584,0.1547677449081104,1676974.0,,,,,1677.6973390965068,1674.163339096507,
97,57,19,m,1,2,89.0,13,3,high,5 - 1 - 4 + 6 + 7,13,14,15,13,1687.462778800007,1689.4886946000042,1691.004078900005,1696.022620600008,1697.2920065000071,1697.2920118000038,1698.808452000012,1699.8262438000093,e,13.0,1.269385899999179,1,+10,428,-18.599798229079823,0.4055255567728624,0.05739931635207918,1686747.0,-15.255064567961568,-0.13566442965915426,0.10826805554479368,1690280.0,,,,,1691.0033390965068,1687.470339096507,
98,57,19,m,1,2,90.0,14,1,low,8 + 1 + 4 + 1 + 1,15,14,15,16,1701.3429909000115,1703.370108800009,1704.8854273000034,1709.9044804000005,1710.7719775000005,1710.7719829000123,1712.2888104000012,1713.3057076000114,w,15.0,0.8674971000000369,1,+1,429,1.6971775691287305,-17.093089446914227,-9.405001999860904,1700628.0,17.049345499871578,0.18500405897335925,0.033224568632496565,1704162.0,,,,,1704.8853390965069,1701.3513390965068,
99,57,19,m,1,2,91.0,15,3,high,8 + 4 + 1 - 7 + 9,15,13,16,15,1714.8226772000053,1716.8502563000077,1718.3655637000047,1723.3840150000033,1725.172035200012,1725.1720410000123,1726.6887585000077,1727.70590310001,e,15.0,1.7880202000087593,1,+10,439,-28.19710738976839,-14.990782641107693,-12.986062419427455,1714108.0,5.470475254774989,-29.674511567261884,-24.09272999443896,1717642.0,,,,,1718.365339096507,1714.8313390965068,
100,57,19,m,1,2,92.0,16,1,low,6 + 1 + 1 + 9 - 1,16,15,16,14,1729.2226968000032,1731.2488632000022,1732.7639920000074,1737.7831292000046,1739.667971200004,1739.6679765000008,1741.18438050001,1742.201759500007,w,16.0,1.8848419999994803,1,+1,440,12.517780926681109,1.4765376962898267,0.39725242030569086,1728506.0,5.574703935277176,-1.1849327691826894,-1.5037361648322145,1732041.0,,,,,1732.7643390965068,1729.229339096507,
101,57,19,m,1,2,93.0,17,4,low,6 + 7 + 9 - 3 + 5,24,22,24,23,1743.718532800005,1745.7453138000128,1747.2605585000128,1752.279201000012,1755.1882228000031,1755.1882287000044,1756.70546930001,1757.721934900008,w,24.0,2.909021799991024,1,+1,441,-9.152921033385624,3.412187728693987,2.7197579102607277,1743003.0,-16.161656265854248,-0.36749437569241383,-0.17095631866992722,1746537.0,,,,,1747.2603390965069,1743.7263390965068,
102,57,19,m,1,2,94.0,18,2,high,3 + 8 + 1 - 5 + 1,8,6,8,9,1759.2386517000125,1761.2604708,1762.7747793000017,1767.7934648000082,1770.596034000002,1770.5960393000132,1772.1127573000122,1773.1300136000064,w,8.0,2.8025691999937408,1,+10,451,-4.415223473330537,0.05314111472697691,0.2549438922374716,1758519.0,-14.979240772264326,0.12581236746549584,-0.016172774603963713,1762051.0,,,,,1762.7743390965068,1759.2423390965068,
103,57,19,m,1,2,95.0,19,3,high,7 - 1 + 8 - 6 + 4,12,13,11,12,1774.6461498000135,1776.6732945000113,1778.1886965000012,1783.207248000006,1784.467982400005,1784.4679878000024,1785.9848559000093,1787.002272400001,e,12.0,1.2607343999989098,1,+10,461,22.93005112848798,0.9270088099744402,0.07630276137142467,1773931.0,13.794979818874157,-0.382709720488851,-0.1166873432671085,1777465.0,,,,,1778.1883390965068,1774.6543390965069,
104,57,19,m,1,2,96.0,20,3,low,4 + 8 - 9 + 1 + 7,11,9,13,11,1788.519324400011,1790.5411346000035,1792.0556861000075,1797.074248200006,1799.2359455000114,1799.2359507000074,1800.7532345000072,1801.770121300011,e,11.0,2.1616973000054718,1,+1,462,-12.908758624478036,1.0463721219639006,0.2424693946245955,1787799.0,11.435096630802402,0.16542510284489875,0.011861205227625016,1791332.0,,,,,1792.055339096507,1788.5223390965068,
105,57,19,m,1,2,97.0,21,4,high,5 + 7 - 4 + 8 + 6,22,22,23,24,1803.2868416000128,1805.3090208000067,1806.8244733000029,1811.8429894,1813.4119519000087,1813.4119571000049,1814.9282813000027,1815.945217500004,w,23.0,1.568962500008638,0,+0,462,3.5580651953763898,0.391918749444077,0.03305115478500542,1802567.0,-1.7940845648477755,0.017158762852379272,0.10574925858893125,1806100.0,,,,,1806.8233390965067,1803.2903390965068,
106,57,19,m,1,2,98.0,22,1,low,2 + 1 + 9 + 1 - 1,12,13,12,11,1817.4616851000028,1819.4890776000104,1821.0040474000125,1826.0220209000108,1826.5078783000065,1826.5078832,1828.0245143000063,1829.0414425000051,w,12.0,0.4858573999954387,1,+1,463,1.6059081059929614,3.7701912305477365,2.158769801283989,1816747.0,-15.939712055371125,-29.845289590565585,-30.532349144049533,1820280.0,,,,,1821.0033390965068,1817.470339096507,
107,57,19,m,1,2,99.0,23,2,low,6 + 1 + 8 + 5 - 1,19,17,18,19,1830.5586396,1832.5862664000013,1834.1016353000011,1839.120584400007,1839.6758480000133,1839.675853100009,1841.1932315000013,1842.210057400007,e,19.0,0.5552636000065831,1,+1,464,-11.398284107782139,-0.4539140889897175,-0.1807086949295711,1829843.0,11.546804237982688,0.4491527998546596,0.26923799520052594,1833377.0,,,,,1834.1003390965068,1830.566339096507,
108,57,19,m,1,2,100.0,24,4,low,2 + 9 - 6 + 8 - 4,9,9,7,11,1843.7269672000111,1845.752486700003,1847.2681340000129,1852.286370700007,1855.2679083000112,1855.267913600008,1856.7849025000032,1857.8018507000088,q,9.0,2.98153760000423,1,+1,465,10.037079444071285,-0.24830308872136042,-0.027336068095409338,1843010.0,3.4506610790081265,-0.11014939909915888,-0.06667508516058018,1846544.0,,,,,1847.267339096507,1843.7333390965068,
109,57,19,m,1,2,101.0,25,3,low,6 + 7 + 8 + 1 - 9,13,13,14,15,1859.318687700012,1861.345696000004,1862.860989400011,1867.879794000008,1870.259886500004,1870.259892300004,1871.7765389000124,1872.792937400009,q,13.0,2.3800924999959534,1,+1,466,2.4063917008757416,0.2282409066761013,0.011899662163239899,1858603.0,-17.533541103262216,0.015939710580248345,-0.06765099669360608,1862137.0,,,,,1862.8603390965068,1859.326339096507,
110,57,19,m,1,2,102.0,26,1,high,7 - 1 + 8 + 1 - 1,14,13,12,14,1874.309661200008,1876.3313004000083,1877.8465433000088,1882.8653723000025,1883.787820500001,1883.7878262000013,1885.3042088000077,1886.3223537000013,e,14.0,0.922448199999053,1,+10,476,11.311375777081995,-0.19820230495905378,-0.19767351155595958,1873589.0,-29.943694326499166,0.2943135220611257,0.09369963828643613,1877123.0,,,,,1877.8463390965069,1874.3123390965068,
111,57,19,m,1,2,103.0,27,2,high,8 + 1 + 9 + 1 - 4,15,14,16,15,1887.8394654000003,1889.8628076000025,1891.3775519000048,1896.3957849,1896.923850600011,1896.9238561000093,1898.4402769000008,1899.457405100009,e,15.0,0.5280657000112114,1,+10,486,0.7418690238342389,-0.16773373191784247,-0.06350286314675957,1887120.0,-7.024480678501014,0.4444956605249235,-0.15830878802726267,1890653.0,,,,,1891.3763390965069,1887.8433390965067,
112,57,19,m,1,2,104.0,28,1,high,8 - 1 + 1 + 6 + 1,15,14,15,16,1900.974176600008,1903.0019777000125,1904.517404700004,1909.535828600012,1910.2037648000116,1910.2037732000024,1911.7202522000007,1912.737505500001,w,15.0,0.6679361999995308,1,+10,496,12.208541654292448,0.012319673404251663,0.09217793112178696,1900260.0,16.84748917271274,-29.77806926398037,-31.61400266225189,1903793.0,,,,,1904.5163390965067,1900.9833390965068,
113,57,19,m,1,2,105.0,29,1,low,4 + 8 + 1 - 1 - 1,11,13,9,11,1914.2544249000057,1916.279501200013,1917.7945335000115,1922.8136959000112,1923.3158114000107,1923.3158171000105,1924.832431200004,1925.8493122000075,e,11.0,0.5021154999994906,1,+1,497,17.988372053743486,0.25100419698817245,0.15969231716042342,1913537.0,-10.483561380371647,-1.3154285192128063,0.08607796718932459,1917071.0,,,,,1917.7943390965067,1914.2603390965069,
114,57,19,m,1,2,106.0,30,1,low,4 + 7 + 1 - 1 - 1,10,11,10,9,1927.3663783000084,1929.390460300012,1930.9057961000071,1935.9236110000056,1936.515715200003,1936.5157203000128,1938.032221500005,1939.0491920000056,w,10.0,0.5921041999972658,1,+1,498,-20.134177082180063,-28.398007252493162,-29.01376697598947,1926648.0,11.25323851371029,-0.0974529686702792,-0.1817051102028273,1930181.0,,,,,1930.9043390965069,1927.3713390965067,
115,57,19,m,1,2,107.0,31,3,low,6 - 1 + 7 - 8 + 9,13,11,12,13,1940.5664344000104,1942.5919449000064,1944.1073594000045,1949.1259359000103,1952.307727300009,1952.307732500005,1953.824244600008,1954.841163400008,e,13.0,3.181791399998474,1,+1,499,-13.623449433598093,0.6911873949543645,0.09994453144815751,1939849.0,11.818491302381727,-0.06347003861813283,0.0034784666131355557,1943383.0,,,,,1944.1063390965069,1940.5723390965068,
116,57,19,m,1,2,108.0,32,1,high,6 + 1 + 8 + 1 + 1,17,17,15,16,1956.357881200005,1958.383528800012,1959.8989232000024,1964.917339000007,1965.5556832,1965.5556888000135,1967.0723275000053,1968.0896828000116,q,17.0,0.6383441999932984,1,+10,509,-0.1176001134037783,-0.00943821399798761,-0.02830171354037847,1955641.0,13.962601701005152,0.20580909668743663,0.0964872677908244,1959174.0,,,,,1959.8973390965068,1956.364339096507,
117,57,19,m,1,2,109.0,33,4,high,6 + 5 - 7 + 8 - 9,3,3,5,4,1969.6065637000136,1971.6312556000048,1973.1465819000005,1978.1654760000088,1979.8517635000023,1979.8517727,1981.3682762000096,1982.385259200004,w,5.0,1.686287499993341,0,+0,509,0.6281092241040618,-6.1815558393035115,-2.409031401660637,1968889.0,0.9581053517204579,0.169308874536513,0.21208128733812304,1972423.0,,,,,1973.1463390965068,1969.6123390965067,
118,57,19,m,1,2,110.0,34,2,high,3 - 1 + 9 - 5 + 1,7,5,6,7,1983.902146700013,1985.9278503000096,1987.4430525000064,1992.4608379000128,1995.1557272000064,1995.1557324000023,1996.672198900007,1997.689413400003,e,7.0,2.69488929999352,1,+10,519,0.3513415853248745,5.295649620861847,2.4948748464078343,1983185.0,10.131714625019766,-6.178617010406388,-5.829811624294105,1986718.0,,,,,1987.441339096507,1983.9083390965068,
119,57,19,m,1,2,111.0,35,1,low,7 + 1 + 5 + 1 - 1,13,12,14,13,1999.2064755000029,2001.2340854000067,2002.7493028000024,2007.7693806000025,2008.2756776000024,2008.275682700012,2009.792280700014,2010.8091343000124,e,13.0,0.5062969999999041,1,+1,520,6.943916819562716,-0.43737589346766503,0.8685955428649252,1998491.0,8.732981779433452,-0.7835262863870383,-0.031564371426296756,2002026.0,,,,,2002.749339096507,1999.2143390965068,
120,57,19,m,1,2,112.0,36,4,low,8 + 3 - 4 + 5 + 9,21,21,23,22,2012.325587600004,2014.3528773,2015.8678789000116,2020.885685000001,2022.747714100013,2022.7477194000091,2024.2642108,2025.2810574000032,q,21.0,1.8620291000115683,1,+1,521,5.933977922193179,1.7700635304313863,0.18733950972621072,2011610.0,13.923136340546968,1.692767061931769,0.11135991174918791,2015143.0,,,,,2015.8663390965069,2012.3333390965067,
121,57,19,m,1,2,113.0,37,2,low,9 + 4 + 5 + 1 - 1,18,18,17,19,2026.7976965000123,2028.8231618000136,2030.338440300009,2035.3571423000103,2035.8357006000008,2035.835705800011,2037.3523333000048,2038.369317000004,q,18.0,0.4785582999902544,1,+1,522,9.790431094054426,0.34786845874417605,-0.12857690477205974,2026080.0,-17.556989740307124,1.3105916661845254,-0.18563342770316948,2029614.0,,,,,2030.3373390965069,2026.8033390965068,
122,57,19,m,1,3,114.0,0,1,high,5 + 6 + 1 + 1 + 1,14,16,14,15,2084.528041400001,2086.556448100004,2088.0717733000056,2093.090213500007,2093.7156051000056,2093.7156103000016,2095.2326208000013,2096.2499927000026,w,14.0,0.625391599998693,1,+10,532,-1.3709291598958302,-0.3062474565102895,-0.04782003412937108,2083813.0,14.967402673230305,2.224137786969509,0.34433904501326884,2087347.0,,,,,2088.070339096507,2084.5363390965067,
123,57,19,m,1,3,115.0,1,1,high,2 + 1 + 9 + 1 - 1,12,11,13,12,2097.766692100005,2099.791996200001,2101.307299600012,2106.3253832000046,2107.675622400013,2107.675627700009,2109.1921766000014,2110.209840700001,e,12.0,1.3502392000082182,1,+10,542,-12.837109434218522,0.6187816257466034,0.10557672696287645,2097049.0,9.901568062992231,-0.1747073400737631,0.019034577859490476,2100582.0,,,,,2101.3053390965065,2097.7723390965066,
124,57,19,m,1,3,116.0,2,2,low,4 + 9 + 1 - 7 - 1,6,6,5,8,2111.7265901000064,2113.753255200005,2115.268554800001,2120.2872672000085,2121.515511800011,2121.5155169000063,2123.031725500012,2124.0486682000046,q,6.0,1.228244600002654,1,+1,543,5.211836318134392,0.12217295971640674,-0.1684920241320138,2111010.0,6.904786479259101,0.03280739978868219,0.06590879098774138,2114544.0,,,,,2115.2673390965065,2111.733339096507,
125,57,19,m,1,3,117.0,3,3,high,9 - 5 - 1 - 6 + 8,5,5,7,4,2125.565328600001,2127.592950800012,2129.108229400008,2134.126614200009,2135.8835396000068,2135.883545100005,2137.4009871000017,2138.4181618,w,7.0,1.7569253999972716,0,+0,543,23.242612347193166,0.3504358614043468,0.058882003143367,2124849.0,1.481773014297679,0.8303363959386845,1.8937665222583977,2128383.0,,,,,2129.1063390965064,2125.5723390965068,
126,57,19,m,1,3,118.0,4,4,high,7 + 6 - 4 + 9 - 5,13,13,12,14,2139.9349376000027,2141.959598300004,2143.474879000001,2148.493130300005,2149.035531900008,2149.0355370000034,2150.5512376000115,2151.568228700009,q,13.0,0.5424016000033589,1,+10,553,-46.192605274970234,0.6617550396331275,0.8202906315700917,2139216.0,27.69580077160874,-0.7690187040000453,-1.2367951980635132,2142750.0,,,,,2143.4733390965066,2139.9393390965065,
127,57,19,m,1,3,119.0,5,2,low,3 + 1 + 8 - 5 - 1,6,7,6,5,2153.085368500004,2155.1131147000124,2156.6284204000112,2161.6464466000034,2163.5715154000063,2163.571520800004,2165.0880366000056,2166.1049842000066,q,7.0,1.9250688000029184,0,+0,553,0.6341936009116047,0.4979815133147656,0.04807173255176056,2152369.0,-27.8698697166403,0.04434060893697578,-0.3915337811132411,2155903.0,,,,,2156.6263390965064,2153.0923390965067,
128,57,19,m,1,3,120.0,6,3,high,3 + 8 + 1 + 5 - 9,8,7,9,8,2167.621998500006,2169.649551600014,2171.164456600003,2176.182814700005,2177.9155279000115,2177.915533800013,2179.4322970000067,2180.449592600009,e,8.0,1.7327132000064012,1,+10,563,-2.732158159780276,0.05763851467986547,-0.37037436002868684,2166906.0,-9.609337165517015,-0.37745386887289323,0.020648018977104776,2170439.0,,,,,2171.1623390965065,2167.6293390965066,
129,57,19,m,1,3,121.0,7,1,low,3 + 1 + 8 + 1 + 1,14,13,14,12,2181.966517200009,2183.991864300013,2185.506882700007,2190.524946000005,2191.0435201000078,2191.0435251000017,2192.5603341000096,2193.577303100013,w,14.0,0.5185741000022972,1,+1,564,4.351255787509949,-0.0622072254051762,-0.05466880209089431,2181248.0,-16.503686540208776,0.3843745871549624,0.03248802680775964,2184781.0,,,,,2185.5043390965066,2181.9713390965067,
130,57,19,m,1,3,122.0,8,1,low,9 + 8 + 1 + 1 - 1,18,20,17,18,2195.0940700000065,2197.118536300012,2198.6336605000106,2203.651686600002,2204.31553230001,2204.3155378000083,2205.8321009000065,2206.849078900006,e,18.0,0.6638457000080962,1,+1,565,-36.15565308518288,0.5037845657638305,0.12682792694346912,2194375.0,12.842588008484647,0.05991123211088345,-0.07947633162460521,2197908.0,,,,,2198.6313390965065,2195.0983390965066,
131,57,19,m,1,3,123.0,9,3,low,7 + 5 + 9 + 1 - 6,16,15,14,16,2208.365747100004,2210.3929167000024,2211.907812600009,2216.926035800003,2218.8834611000057,2218.883467000007,2220.400053800011,2221.416965200013,e,16.0,1.9574253000027968,1,+1,566,-17.605770713882393,0.3728398382307203,0.08334026218469637,2207649.0,33.12270479529367,2.7794595360736105,0.20187445562669115,2211182.0,,,,,2211.9053390965064,2208.3723390965065,
132,57,19,m,1,3,124.0,10,4,low,9 + 7 - 5 + 8 + 6,25,25,24,27,2222.933665100005,2224.960073300012,2226.475463400013,2231.4938464000006,2233.9714407000138,2233.9714459000097,2235.487940100007,2236.505239000005,e,27.0,2.477594300013152,0,+0,566,-12.336062017803215,-0.48611133701891074,-0.33949703254353913,2222216.0,9.25039196364609,-1.1527966655321813,0.0865692201640178,2225750.0,,,,,2226.4733390965066,2222.9393390965065,
133,57,19,m,1,3,125.0,11,4,low,4 + 8 + 9 - 3 + 7,25,26,24,25,2238.021620300002,2240.045765600007,2241.5609604000056,2246.579387000005,2249.0834978000057,2249.083504200011,2250.600201100009,2251.6177032000123,e,25.0,2.5041108000004897,1,+1,567,24.017782173110614,0.08470686064859678,0.016477352965047043,2237302.0,18.70788624506604,0.04020680587849057,-0.11939597896445542,2240836.0,,,,,2241.5593390965064,2238.0253390965067,
134,57,19,m,1,3,126.0,12,4,low,3 + 8 - 4 + 9 + 6,22,21,22,23,2253.13437900001,2255.160946300006,2256.676217900007,2261.695509200013,2262.4273938000115,2262.4273994000105,2263.9449344000022,2264.962435600013,w,22.0,0.7318845999980113,1,+1,568,11.244298633817357,0.058569466020513605,-0.020194535264636215,2252417.0,13.80664275514355,0.027805932810780698,-0.010703679366438346,2255951.0,,,,,2256.6743390965066,2253.1403390965065,
135,57,19,m,1,3,127.0,13,2,low,9 + 6 + 1 + 7 + 1,24,23,25,24,2266.479142000011,2268.506577600012,2270.0218265000003,2275.0403506,2275.675386300005,2275.6753914,2277.191697800008,2278.208651100009,e,24.0,0.6350357000046642,1,+1,569,-26.48903688305579,0.13217450334094005,0.26994416444029334,2265763.0,-25.234234542603424,0.02450139900425463,-0.013948898119165554,2269296.0,,,,,2270.0193390965064,2266.4863390965065,
136,57,19,m,1,3,128.0,14,2,high,5 + 7 - 8 + 1 + 1,6,6,7,8,2279.7254209000093,2281.7526830000133,2283.2679654000094,2288.286699300006,2290.3713736000063,2290.3713786000008,2291.88748830001,2292.9046750000125,w,7.0,2.084674300000188,0,+0,569,-6.862873154949153,18.75806328375247,19.1427504567027,2279009.0,-34.63559885062059,-2.062540112705511,-1.3906192192081828,2282543.0,,,,,2283.2663390965067,2279.7323390965066,
137,57,19,m,1,3,129.0,15,3,low,3 + 8 - 7 + 1 + 9,14,12,14,13,2294.421437500001,2296.4481588000053,2297.963192500014,2302.981836100007,2304.035323300006,2304.035328500002,2305.551355700009,2306.5681282000005,w,14.0,1.0534871999989264,1,+1,570,-4.5175596138134795,-0.13723040899295347,-0.027384628087417928,2293704.0,-1.4365122072598755,-0.20129455290860543,-0.06513900136257122,2297238.0,,,,,2297.9613390965064,2294.427339096507,
138,57,19,m,1,3,130.0,16,3,high,6 + 8 + 7 + 1 - 9,13,15,13,14,2308.085010300012,2310.1077485000133,2311.622983100009,2316.641418500003,2317.243407700007,2317.243412900003,2318.759912300011,2319.7771897000057,w,13.0,0.6019892000040272,1,+10,580,13.998104459702535,0.33706468267512535,-0.3343233859105761,2307364.0,28.668972812468144,0.655299171209617,0.01912783737761803,2310897.0,,,,,2311.6203390965065,2308.0873390965066,
139,57,19,m,1,3,131.0,17,2,low,4 + 9 - 7 + 1 - 1,6,6,8,5,2321.294109900002,2323.317394200014,2324.832642900001,2329.8510894000065,2330.6353338000044,2330.635338900014,2332.151842600011,2333.1687788000127,q,6.0,0.7842443999979878,1,+1,581,-5.421628862757256,-0.41071417930790854,-0.09712201839321799,2320573.0,-20.83542851124762,15.630940446480837,5.308636798276626,2324107.0,,,,,2324.8303390965066,2321.2963390965065,
140,57,19,m,1,3,132.0,18,2,high,5 + 9 - 8 + 1 + 1,8,7,9,8,2334.685722800001,2336.7116052000056,2338.226588000005,2343.244657100004,2344.7793302000064,2344.779335500003,2346.2954129000136,2347.312713900013,e,8.0,1.534673100002692,1,+10,591,11.046140906153797,0.8178013030974685,0.4553191348714962,2333968.0,-16.515700673372876,0.0910223557042209,0.12862397384427116,2337501.0,,,,,2338.224339096507,2334.6913390965065,
141,57,19,m,1,3,133.0,19,4,low,5 + 6 - 4 + 7 + 9,23,24,25,23,2348.829477700012,2350.8543268000067,2352.369229600008,2357.3874985,2357.9632992000115,2357.9633043000067,2359.480268500003,2360.497220900012,e,23.0,0.5758007000113139,1,+1,592,-18.18254043575844,0.9624130970339491,0.026705213567013608,2348110.0,-5.708199379924139,2.4592445787703037,0.08401551156228204,2351644.0,,,,,2352.3673390965064,2348.8333390965067,
142,57,19,m,1,3,134.0,20,3,high,7 + 1 + 9 + 5 - 6,16,16,14,15,2362.014012000014,2364.039832600014,2365.555212600011,2370.5737486,2371.3313557000074,2371.331361100005,2372.8479435000045,2373.86551470001,q,16.0,0.7576071000075899,1,+10,602,2.932287288198165,-0.2888381432510645,-0.012386742653585303,2361296.0,16.171028264087344,1.1193207393643014,-0.1973979891064912,2364830.0,,,,,2365.5533390965065,2362.0193390965064,
143,57,19,m,1,3,135.0,21,2,high,3 + 8 - 5 + 1 + 1,8,9,8,6,2375.382445500014,2377.409834000005,2378.9250409000088,2383.943846900001,2385.7633746000065,2385.7633803000062,2387.2803076000127,2388.2976274000102,w,8.0,1.8195277000049828,1,+10,612,6.78691515694722,-0.02863451835860964,-0.01676130901127526,2374665.0,3.593404659374004,0.20942242004018485,-0.025170296516401347,2378200.0,,,,,2378.9233390965064,2375.3883390965066,
144,57,19,m,1,3,136.0,22,3,high,8 - 1 + 6 - 7 + 5,11,13,12,11,2389.814329700006,2391.84269830001,2393.3577618000127,2398.376199300008,2400.6592855000054,2400.6592911000043,2402.1765704000136,2403.1938276,e,11.0,2.283086199997342,1,+10,622,22.80785637788982,-0.29008637308491103,0.06293319187399038,2389098.0,-16.59507173852421,-0.09884485085399186,-0.02796344838409559,2392632.0,,,,,2393.3553390965067,2389.8213390965066,
145,57,19,m,1,3,137.0,23,1,high,3 + 1 + 8 - 1 + 1,12,13,10,12,2404.710435800007,2406.7347693000047,2408.249861300006,2413.267864900001,2413.731308400005,2413.731313400014,2415.2478106000053,2416.265199200003,e,12.0,0.4634435000043595,1,+10,632,20.475878079066923,0.40382289583853526,0.0584536636795554,2403990.0,39.58730946525764,-0.19930519414283943,0.02168644074555104,2407524.0,,,,,2408.2473390965065,2404.7133390965064,
146,57,19,m,1,3,138.0,24,1,high,6 + 9 + 1 + 1 - 1,16,14,15,16,2417.782638900011,2419.808119700014,2421.323375600012,2426.34153830001,2427.163329200004,2427.163335100005,2428.679904700009,2429.697165900012,e,16.0,0.8217908999940846,1,+10,642,-3.5115278844283235,-0.10451213118045688,-0.043485669056546605,2417064.0,-20.349508449165025,-0.1853954151162025,-0.014059465585553266,2420597.0,,,,,2421.320339096507,2417.7873390965065,
147,57,19,m,1,3,139.0,25,1,high,7 - 1 + 9 + 1 - 1,15,13,15,14,2431.2137220000004,2433.2388803000067,2434.754274700012,2439.772534200005,2440.8592665000037,2440.859272200003,2442.375613600001,2443.3928637000063,w,15.0,1.0867322999984026,1,+10,652,19.372897349871707,-0.8736658612564399,0.02454185590827307,2430494.0,-12.663834498530491,-0.40635577093012687,0.028560902222908302,2434028.0,,,,,2434.7513390965064,2431.2173390965067,
148,57,19,m,1,3,140.0,26,4,low,3 + 9 - 5 + 6 + 8,21,22,21,23,2444.909992800007,2446.937024800005,2448.452272200011,2453.470097800004,2455.3631838,2455.3631890000106,2456.879659600003,2457.896352300013,w,21.0,1.8930859999964011,1,+1,653,-52.281363719478,0.3682346823835041,0.08128541792406518,2444192.0,-31.28649147163345,1.9637849505263252,1.54824475972819,2447726.0,,,,,2448.4493390965067,2444.9153390965066,
149,57,19,m,1,3,141.0,27,3,low,8 + 3 + 1 - 7 + 9,14,14,12,15,2459.4129910000047,2461.438752300004,2462.954234500008,2467.9740451000107,2469.9472312,2469.947236600012,2471.4638903000014,2472.4811322000023,e,15.0,1.9731860999891069,0,+0,653,7.3250540835215014,0.00430129091320941,0.13240387668389975,2458694.0,15.002306522231853,-0.42761311169598315,0.011678165469015234,2462230.0,,,,,2462.9533390965066,2459.4173390965066,
150,57,19,m,1,3,142.0,28,2,high,5 - 8 + 7 + 1 + 1,6,8,6,7,2473.9980299000017,2476.025446700005,2477.540659500009,2482.559763600002,2487.0191619000107,2487.019167300008,2488.535625500008,2489.5527779000117,e,7.0,4.459398300008616,0,+0,653,-1.6553446520215438,-0.3889523070089198,-0.048121273133870046,2473281.0,-5.8268031235551785,-22.375202387292873,-12.837943177813944,2476815.0,,,,,2477.5383390965067,2474.0043390965066,
151,57,19,m,1,3,143.0,29,4,high,9 + 4 - 6 + 8 + 7,22,21,22,24,2491.069701200002,2493.0960858000035,2494.6110683000006,2499.629568200005,2502.779263400007,2502.7792692000075,2504.295892000009,2505.3127247000084,e,24.0,3.149695200001588,0,+0,653,0.9366332757060238,0.6999033782681752,0.0704037164842024,2490352.0,-1.245217061472017,4.61766229178326,1.9543522830674138,2493885.0,,,,,2494.608339096507,2491.0753390965065,
152,57,19,m,1,3,144.0,30,1,high,7 + 1 + 4 + 1 - 1,12,13,11,12,2506.8296310000005,2508.851493600014,2510.3667269,2515.3850418000075,2516.0671131000126,2516.0671188000124,2517.583465000004,2518.600496800005,e,12.0,0.682071300005191,1,+10,663,-19.36685914616836,0.4425324271538087,0.2613360741083195,2506107.0,-6.985022862117013,-1.9957611391262802,-0.6386997148141496,2509641.0,,,,,2510.3643390965067,2506.8303390965066,
153,57,19,m,1,3,145.0,31,3,high,5 + 1 + 7 - 8 + 6,11,11,9,13,2520.1176306000125,2522.1394710000022,2523.654748400004,2528.6732215000084,2532.275136600001,2532.27514160001,2533.792394300006,2534.8096238,q,11.0,3.601915099992766,1,+10,673,-15.902383885432,-0.4066997600767319,0.05302658461423637,2519395.0,-29.737957221402013,-0.5589220539291331,-0.2369160594575388,2522929.0,,,,,2523.6523390965067,2520.1183390965066,
154,57,19,m,1,3,146.0,32,4,high,2 + 9 - 4 + 8 + 7,22,21,23,22,2536.3276971000014,2538.352937600008,2539.868173200012,2544.886327900007,2545.299057100012,2545.299062800012,2546.8153811000084,2547.8324301000102,e,22.0,0.4127292000048328,1,+10,683,-0.5854572382401386,-0.026654528034419034,0.1162171342933358,2535608.0,-15.11403770965908,-0.17879675702439002,0.06042937713235186,2539142.0,,,,,2539.8653390965064,2536.331339096507,
155,57,19,m,1,3,147.0,33,4,high,4 + 7 - 8 + 9 - 4,8,7,8,9,2549.3499481000035,2551.373913500007,2552.889260900003,2557.907544600006,2561.3711560000083,2561.371161400006,2562.887703600005,2563.9050269,w,8.0,3.4636114000022644,1,+10,693,-17.882830984272875,0.19535091233621893,0.04687937297959732,2548629.0,-13.487194770663349,0.4871360623749328,0.12240138415005175,2552163.0,,,,,2552.8863390965066,2549.3523390965065,
156,57,19,m,1,3,148.0,34,3,low,5 + 7 + 1 - 4 + 6,15,17,13,15,2565.4220405000087,2567.4459698000137,2568.961128300012,2573.9809485000005,2574.443201000002,2574.4432057000085,2575.9595987000066,2576.977037700009,w,13.0,0.4622525000013411,0,+0,693,18.59958579636225,-0.6205408368827126,-0.001059112402775897,2564702.0,-56.69549354983202,0.4874602568082307,-0.11308809857306001,2568236.0,,,,,2568.9593390965065,2565.425339096507,
157,57,19,m,1,3,149.0,35,2,high,7 + 1 + 9 - 1 - 8,8,6,8,7,2578.493863900003,2580.5202444000024,2582.035470700008,2587.054000200005,2587.923054900006,2587.923060000001,2589.4390571000117,2590.45644010001,w,8.0,0.8690547000005608,1,+10,703,9.807347304756362,0.6469353606169364,0.13294747208079438,2577776.0,2.111609239115106,-0.202374706847817,-0.026732232412042922,2581309.0,,,,,2582.032339096507,2578.4993390965064,
158,57,19,m,1,3,150.0,36,4,low,5 + 7 - 4 - 6 + 9,11,13,12,11,2591.973292900002,2593.9953453000053,2595.510479000004,2600.5288880000007,2602.755068300001,2602.7550741000014,2604.2719077000074,2605.288928400012,q,13.0,2.226180300000124,0,+0,703,10.781419368996335,0.1035437562973569,-0.04252246872663412,2591251.0,-9.678170168612024,0.27480465760505135,-0.023466728099327483,2594784.0,,,,,2595.5073390965067,2591.974339096507,
159,57,19,m,1,3,151.0,37,1,high,9 + 7 + 1 + 1 + 1,19,20,19,18,2606.805764400008,2608.8333835000085,2610.348582000006,2615.366357200008,2616.099101500004,2616.0991068000003,2617.6156749000074,2618.633453200004,w,19.0,0.7327442999958294,1,+10,713,-24.80826320567,0.36365668173974086,0.25790536065930825,2606089.0,24.946918190306274,0.4318390676362256,-0.4267180761405063,2609622.0,,,,,2610.3453390965065,2606.8123390965065,
160,57,19,m,1,4,152.0,0,3,low,4 + 8 - 3 + 5 - 1,13,14,12,13,2685.8554439,2687.882299100005,2689.397284700012,2694.416594800001,2695.147049600011,2695.1470551000093,2696.663726100014,2697.6807296000043,e,13.0,0.7304548000101931,1,+1,714,-15.574674552878765,-8.211891380994045,-10.554925649105712,2685137.0,-44.73248267170189,1.2364133068722116,-0.05542420422430383,2688672.0,,,,,2689.3953390965066,2685.860339096507,
161,57,19,m,1,4,153.0,1,2,low,5 - 1 + 1 + 8 + 9,22,23,21,22,2699.197550500001,2701.225354900001,2702.740322400001,2707.7587367000087,2711.507030200009,2711.507035600007,2713.0235227000085,2714.040727700005,q,23.0,3.748293500000728,0,+0,714,-2.7287671637191835,-0.2241154830756107,-1.009251827488437,2698480.0,5.29492504720627,0.4156053591117479,0.03294380787163731,2702013.0,,,,,2702.7363390965065,2699.2033390965066,
162,57,19,m,1,4,154.0,2,2,high,4 + 7 + 1 + 1 - 8,5,4,5,7,2715.5576770000043,2717.5848288000125,2719.100011600007,2724.1180756000103,2725.9789241000108,2725.9789293000067,2727.4954037000134,2728.512379600012,e,7.0,1.8608485000004291,0,+0,714,3.410388940765774,-0.1597899596054051,0.19569921716062266,2714840.0,-5.311525073037323,-26.652526347789333,-16.49706828919568,2718373.0,,,,,2719.0963390965067,2715.5633390965068,
163,57,19,m,1,4,155.0,3,3,low,2 + 9 + 1 - 5 + 7,14,15,12,14,2730.0291884000035,2732.0565455000037,2733.571983600006,2738.590343600008,2743.60754170001,2743.6075442,2745.124370400008,2746.143190700008,,,,0,Too Slow!,714,-4.61079075819314,-0.5954348842185815,-0.6364008295824184,2729312.0,-4.7661437445279375,-1.0943400697979635,-1.8358189394776312,2732846.0,,,,,2733.5693390965066,2730.0353390965065,
164,57,19,m,1,4,156.0,4,2,low,3 + 9 + 1 - 5 + 1,9,7,9,8,2747.660875500005,2749.6882257000107,2751.203073900004,2756.221147000004,2757.434852400009,2757.4348574000032,2758.9515421000106,2759.968563500006,q,7.0,1.213705400004983,0,+0,714,-11.756223201978987,0.7035401014624774,-1.4436769421207023,2746943.0,3.2049642380154317,-0.975979097025859,-0.7221202856029807,2750476.0,,,,,2751.1993390965067,2747.666339096507,
165,57,19,m,1,4,157.0,5,2,high,5 + 8 + 1 - 1 + 9,22,21,22,23,2761.4853116000013,2763.510529200008,2765.025814000008,2770.044823300006,2771.098903400009,2771.098908500004,2772.6157614000117,2773.633069400006,w,22.0,1.0540801000024658,1,+10,724,15.86076064143397,0.2678488351535264,0.10259911503402375,2760765.0,-18.231087722217598,0.09327822558825405,-0.4671474773177142,2764300.0,,,,,2765.023339096507,2761.4883390965065,
166,57,19,m,1,4,158.0,6,2,high,4 + 1 + 9 + 1 - 6,9,9,8,7,2775.1507950000087,2777.1755244000087,2778.6907809000118,2783.7090768000053,2785.098883800005,2785.098889400004,2786.615122100004,2787.632368300008,q,9.0,1.389806999999564,1,+10,734,-11.326701517298975,-0.23378654130778398,0.06897094616906019,2774430.0,14.79538027867821,0.25522376525111246,0.17254406152047919,2777963.0,,,,,2778.686339096507,2775.1533390965064,
167,57,19,m,1,4,159.0,7,2,low,9 + 4 - 6 + 1 - 1,7,7,9,8,2789.1490432000137,2791.1775165,2792.6929393000028,2797.7112640000123,2799.586896200009,2799.586901600007,2801.104656100011,2802.122074400002,q,7.0,1.8756321999971988,1,+1,735,-14.364842410247977,0.3243709642715269,0.12654373870739044,2788432.0,-48.47904856491558,0.340415783673476,0.1266060476667208,2791966.0,,,,,2792.6893390965065,2789.1553390965064,
168,57,19,m,1,4,160.0,8,3,low,4 + 1 + 8 + 9 - 5,17,18,19,17,2803.638677800001,2805.6657575000136,2807.1808560000063,2812.1987668000074,2813.7869809000117,2813.786989,2815.3035747000104,2816.3208031000104,q,18.0,1.5882141000038246,0,+0,735,0.6642678214917517,0.0026573782165459914,-0.03880211614292839,2802920.0,9.373473627022696,0.1207555782616454,0.046681105198666195,2806454.0,,,,,2807.177339096507,2803.6433390965067,
169,57,19,m,1,4,161.0,9,4,low,3 + 8 - 5 + 9 - 7,8,7,6,8,2817.8373676000047,2819.8645044000004,2821.379758400013,2826.399341300013,2827.346830200011,2827.346835500008,2828.8633431000053,2829.8805682000093,w,6.0,0.947488899997552,0,+0,735,-16.759676236557844,-0.2293774624614624,-0.8614504902654856,2817119.0,6.627614493117524,0.5695554666616109,2.157868894854273,2820653.0,,,,,2821.3763390965064,2817.8423390965067,
170,57,19,m,1,4,162.0,10,3,high,7 - 5 + 9 + 1 - 4,8,9,8,7,2831.39723290001,2833.4241945000103,2834.9396141000034,2839.958028000008,2840.5308062000117,2840.5308116000087,2842.047127400001,2843.065959300002,w,8.0,0.5727782000030857,1,+10,745,3.1369934757767286,-0.2943463147384833,-0.1981633287714546,2830679.0,10.287836568385917,-21.54916278359749,-32.30075121774632,2834213.0,,,,,2834.936339096507,2831.4023390965067,
171,57,19,m,1,4,163.0,11,4,high,3 + 8 - 4 + 9 + 7,23,23,22,24,2844.5826991000067,2846.606885100002,2848.1221080000105,2853.1402621000016,2854.6508403000043,2854.650845700002,2856.1673859,2857.184819800008,e,24.0,1.510578200002783,0,+0,745,-16.878230507067826,0.5363597120276691,0.7704353156857424,2843861.0,-13.776073170172578,-0.5022657367962657,-1.0408166477589564,2847395.0,,,,,2848.1183390965066,2844.5843390965065,
172,57,19,m,1,4,164.0,12,1,low,3 + 1 + 9 + 1 + 1,15,15,14,17,2858.701823200012,2860.7276453000086,2862.2429492000083,2867.260824600002,2868.3068080000085,2868.3068139000097,2869.8233327000053,2870.840333900007,q,15.0,1.045983400006662,1,+1,746,-32.881736393959464,0.4083955515746778,-0.008721759921257233,2857982.0,2.959180171203732,0.3240463331242016,0.07112820816057708,2861515.0,,,,,2862.2383390965065,2858.7053390965066,
173,57,19,m,1,4,165.0,13,4,low,8 + 4 - 5 + 7 - 6,8,8,6,7,2872.356991500012,2874.3835974000103,2875.8986685000127,2880.917365500005,2883.914872700014,2883.9148781000117,2885.431582300007,2886.448686800009,e,7.0,2.9975072000088403,0,+0,746,4.463391365059252,-0.6554606427237459,5.694927840109045,2871638.0,-52.19474757486642,-0.017464969979273715,1.1696909002786815,2875172.0,,,,,2875.8953390965066,2872.3613390965065,
174,57,19,m,1,4,166.0,14,2,high,6 + 1 + 8 + 7 - 1,21,19,21,23,2887.965406100004,2889.989480500008,2891.504866400006,2896.5237149000022,2897.042771000008,2897.042776000002,2898.5592250000045,2899.5765783000097,w,21.0,0.5190561000054004,1,+10,756,-24.216963116178277,0.1991751868969247,-0.014959898225582968,2887244.0,35.3976731406434,0.062467755279929094,0.10224721597775832,2890778.0,,,,,2891.5013390965064,2887.9673390965067,
175,57,19,m,1,4,167.0,15,3,low,3 + 8 - 7 - 1 + 9,12,12,13,14,2901.0933891000022,2903.121526000002,2904.6368646000046,2909.65491930001,2910.8027606000105,2910.802765900007,2912.320443900011,2913.337749400001,w,13.0,1.1478413000004366,0,+0,756,49.22313326556132,9.102428703027453,1.2129566505971758,2900376.0,5.38617019997281,-13.486062411720884,-17.706839826289727,2903910.0,,,,,2904.6333390965065,2901.099339096507,
176,57,19,m,1,4,168.0,16,2,high,6 + 1 + 1 + 8 - 9,7,5,9,7,2914.8544817000075,2916.882379700008,2918.3974410000083,2923.4156277,2923.834744600012,2923.83475010001,2925.3510810000007,2926.368337600012,e,7.0,0.4191169000114314,1,+10,766,20.494135034734484,-0.08982025092327417,0.06237121504369725,2914137.0,1.7472763600731689,0.20518621417210126,0.087911868728491,2917670.0,,,,,2918.3933390965067,2914.860339096507,
177,57,19,m,1,4,169.0,17,2,low,6 + 1 + 7 - 8 - 1,5,5,7,4,2927.8851555,2929.912939800008,2931.4282512000063,2936.4470669,2939.5627405000123,2939.562746300013,2941.0793005000014,2942.096398300011,w,7.0,3.1156736000120877,0,+0,766,-20.194622917130236,0.07877260608473535,0.025616665861334598,2927167.0,4.95017705868145,0.15434637320189193,0.0459644564717514,2930701.0,,,,,2931.4243390965066,2927.8903390965065,
178,57,19,m,1,4,170.0,18,4,high,2 + 5 - 3 + 9 + 8,21,21,22,19,2943.613254900003,2945.63926560001,2947.1544660000072,2952.173412300006,2955.546735100012,2955.546740500009,2957.063374800011,2958.0808964000025,w,22.0,3.3733228000055533,0,+0,766,16.5122479598295,0.027032864186690375,0.23368166147654512,2942893.0,-8.446267663931307,-0.09538563539990763,-0.11193423108803446,2946428.0,,,,,2947.1513390965065,2943.6163390965066,
179,57,19,m,1,4,171.0,19,3,low,2 + 1 + 9 - 5 + 6,13,11,13,14,2959.597670400006,2961.6244731000043,2963.1397145000083,2968.157889000009,2969.6027676000085,2969.602772700004,2971.1193943000108,2972.1362421000085,w,13.0,1.444878599999356,1,+1,767,15.177264905605982,-0.0861831035904117,-0.06435031400241709,2958879.0,10.081677947867952,0.14864483805633366,-0.18218543374485985,2962412.0,,,,,2963.1353390965064,2959.6023390965065,
180,57,19,m,1,4,172.0,20,2,high,8 + 1 + 7 + 1 - 4,13,12,13,14,2973.652884100011,2975.679481900006,2977.194703100002,2982.213104600014,2983.066782600013,2983.066787800009,2984.5830777000083,2985.6002878,w,13.0,0.8536779999994906,1,+10,777,1.079191919895857,0.11747206271070398,-0.015486928547220113,2972934.0,-5.144261220917969,-0.3485610835603037,-0.24870575459786104,2976467.0,,,,,2977.1903390965067,2973.657339096507,
181,57,19,m,1,4,173.0,21,2,high,7 + 8 + 1 + 9 + 1,26,26,25,24,2987.117033300005,2989.141376600004,2990.656560100004,2995.676205800002,2996.2026755000115,2996.2026807000075,2997.7195126000006,2998.7366462000064,q,26.0,0.5264697000093292,1,+10,787,3.367564525604312,-0.03304473329788715,-0.0355890094397584,2986395.0,-10.866606750783212,0.3260089915781961,-0.08926929904337544,2989930.0,,,,,2990.6533390965064,2987.1183390965066,
182,57,19,m,1,4,174.0,22,1,low,5 + 1 + 1 + 6 + 1,14,16,13,14,3000.252921100008,3002.2788648000133,3003.794138600002,3008.81189740001,3009.442665300012,3009.4426707000093,3010.959234500013,3011.976019400012,e,14.0,0.6307679000019561,1,+1,788,-6.292647877811531,0.041208258177294343,0.05923876607495715,2999533.0,18.337719180635606,0.1434624081684619,0.012675025184810007,3003066.0,,,,,3003.7893390965064,3000.2563390965065,
183,57,19,m,1,4,175.0,23,3,high,7 - 1 + 8 - 6 + 4,12,13,12,11,3013.492948400002,3015.519335600009,3017.034696100003,3022.052934300009,3022.770721000008,3022.770726700008,3024.2874132000143,3025.3055762000004,w,12.0,0.7177866999991238,1,+10,798,24.85494192666752,0.2042341781101824,0.20001805914396487,3012773.0,14.995760142510148,0.10745591034204383,0.03055740557232922,3016307.0,,,,,3017.0303390965064,3013.4963390965067,
184,57,19,m,1,4,176.0,24,2,low,3 + 9 - 1 - 5 + 1,7,7,6,5,3026.822784700009,3028.8502605000103,3030.3655216000043,3035.3837479000067,3035.914691800004,3035.914696800013,3037.4312008000124,3038.4479143000062,q,7.0,0.53094389999751,1,+1,799,-0.9734554250347944,0.6070701967275967,-0.05736911719454829,3026104.0,42.03250022523941,0.23311978973380354,-0.02735551621111365,3029638.0,,,,,3030.3613390965065,3026.8273390965064,
185,57,19,m,1,4,177.0,25,4,high,6 + 9 + 7 - 3 - 5,14,14,12,13,3039.9649017000047,3041.991087100003,3043.506337700004,3048.524845300009,3051.186573200001,3051.186578500012,3052.7032573000038,3053.720519900002,q,14.0,2.6617278999910923,1,+10,809,-6.8170078340668,0.0768306357300732,0.08554750578932602,3039245.0,18.549957453241586,-0.39104881122609547,-0.02464496563325702,3042779.0,,,,,3043.5023390965066,3039.9683390965065,
186,57,19,m,1,4,178.0,26,4,low,7 + 8 - 4 + 6 + 5,22,22,21,23,3055.237500300005,3057.2639846000093,3058.7792756000126,3063.7990387000027,3065.738593700007,3065.7385988000024,3067.2551011000032,3068.2719401000068,q,22.0,1.939555000004475,1,+1,810,-16.664808159964878,-0.639411572592822,-0.07302762130955798,3054518.0,13.018732672231302,-0.08494876643341609,0.011973746236102034,3058053.0,,,,,3058.7763390965065,3055.2413390965066,
187,57,19,m,1,4,179.0,27,3,low,8 + 6 - 7 + 1 - 4,4,5,3,4,3069.7886363,3071.815682500004,3073.330816000001,3078.349408000009,3079.402649800002,3079.402654900012,3080.919156600008,3081.9357833000104,e,4.0,1.0532417999929748,1,+1,811,-39.58037681383447,-0.0756307200949422,-0.010119356604691765,3069070.0,7.961686301924951,-0.11273566891462439,-0.022775796150910743,3072603.0,,,,,3073.3263390965067,3069.7933390965068,
188,57,19,m,1,4,180.0,28,1,high,6 + 9 + 1 + 1 - 1,16,16,14,15,3083.4525622000074,3085.4758574000007,3086.9910831000016,3092.010354900005,3092.506657200007,3092.5066630000074,3094.0232874000067,3095.0410854000074,q,16.0,0.4963023000018438,1,+10,821,-43.923476736432846,0.002730620644889381,0.11292408794835951,3082730.0,6.036922855852826,-28.037534757956706,-12.575421641856773,3086264.0,,,,,3086.9873390965067,3083.4533390965066,
189,57,19,m,1,4,181.0,29,2,low,2 + 1 + 9 - 4 + 1,9,8,9,11,3096.5581608000066,3098.581931400011,3100.0972981000086,3105.1153137000074,3108.298645900009,3108.298651300007,3109.81529720001,3110.8323376000044,q,8.0,3.1833322000020416,0,+0,821,8.529421019538802,-0.6703135040633628,-1.2033353453840923,3095836.0,-29.12430759654843,-0.10159164336586768,0.042679987449367296,3099369.0,,,,,3100.0923390965067,3096.5593390965064,
190,57,19,m,1,4,182.0,30,4,high,7 + 6 - 9 + 8 - 3,9,8,9,7,3112.3491685000045,3114.3759504000045,3115.8913540000067,3120.9100892000133,3121.386645800012,3121.386651400011,3122.9032499000023,3123.920542800013,w,9.0,0.4765565999987302,1,+10,831,23.788592569425358,0.4101483889649189,-0.029708471494426014,3111630.0,0.4837326476689796,-0.1889601013192148,0.25228904912702665,3115164.0,,,,,3115.887339096507,3112.3533390965067,
191,57,19,m,1,4,183.0,31,1,low,2 + 9 + 1 + 1 + 1,14,12,14,13,3125.437260400009,3127.4655326000066,3128.980732300013,3133.9985861000023,3134.8745296000125,3134.87453500001,3136.391010000006,3137.407452200001,w,14.0,0.8759435000101803,1,+1,832,-27.826201508500944,0.1402449993335977,0.01569083727667242,3124719.0,-10.377093638832896,1.5003798149188512,-0.045426662650631666,3128252.0,,,,,3128.9753390965066,3125.4423390965067,
192,57,19,m,1,4,184.0,32,3,high,7 - 1 + 9 - 5 + 4,14,15,13,14,3138.9242484000133,3140.950195700003,3142.4662670000107,3147.484295500006,3151.04249620001,3151.042501700009,3152.559065600013,3153.5770125000126,e,14.0,3.558200700004818,1,+10,842,-54.918821246706536,-0.018598868394220203,0.08568698778483341,3138204.0,18.348696691104237,-0.9298060302454685,0.04791699704744712,3141738.0,,,,,3142.4613390965064,3138.927339096507,
193,57,19,m,1,4,185.0,33,1,low,7 + 1 + 4 + 1 - 1,12,12,11,13,3155.0937664000085,3157.118308300007,3158.633507300008,3163.6526725000003,3164.3145506,3164.3145562000136,3165.831057500007,3166.847710300004,q,12.0,0.6618780999997398,1,+1,843,12.50669731488847,-0.1676439387281592,-0.11108155748884485,3154372.0,6.170762400403689,-0.6073152137540663,0.05970947094243684,3157906.0,,,,,3158.6293390965066,3155.0953390965065,
194,57,19,m,1,4,186.0,34,3,high,5 + 6 - 4 - 1 + 8,14,15,14,16,3168.3649032000103,3170.392572900004,3171.9078058000014,3176.925775900003,3177.8664381000126,3177.8664433000085,3179.382935100002,3180.400279900001,w,14.0,0.9406622000096831,1,+10,853,-4.10533764539637,-0.019565460098958765,0.08932063325529427,3167646.0,-5.972150403398263,0.7617969462874521,0.2018552299272922,3171179.0,,,,,3171.9023390965067,3168.369339096507,
195,57,19,m,1,4,187.0,35,2,low,2 + 9 - 4 + 1 + 1,9,9,8,11,3181.917066000009,3183.945172900014,3185.4600878000056,3190.4781333000137,3192.018465000001,3192.0184701000107,3193.535162100001,3194.5523222000047,q,9.0,1.5403316999872914,1,+1,854,1.1053058913007945,0.22264767462527013,0.024205476781660407,3181199.0,1.0847192281968283,-0.02309127780107456,-0.017111925126788163,3184732.0,,,,,3185.4553390965066,3181.9223390965067,
196,57,19,m,1,4,188.0,36,3,low,2 + 9 - 3 + 4 + 1,13,14,11,13,3196.069083800001,3198.0951960000093,3199.610776600006,3204.6290512000123,3206.410396200008,3206.4104016000056,3207.926698500014,3208.9442382000125,q,14.0,1.781344999995781,0,+0,854,15.712575101586356,-0.0975795570226754,-0.08302824308778844,3195349.0,24.593268571810846,1.5353714586298568,0.8668660520861957,3198883.0,,,,,3199.6063390965064,3196.0723390965068,
197,57,19,m,1,4,189.0,37,2,high,9 + 1 + 6 + 7 + 1,24,24,23,25,3210.460667600011,3212.487366400004,3214.002503900003,3219.020656400011,3219.506439600009,3219.5064449000056,3221.022972100007,3222.040320900007,q,24.0,0.485783199997968,1,+10,864,-8.783959468029556,0.32455119826263057,0.39496456911742217,3209740.0,28.64153326145625,-0.15416269955009643,-0.05306527201822164,3213274.0,,,,,3213.9973390965065,3210.4633390965064,
198,57,19,m,1,5,190.0,0,4,low,8 + 4 + 7 - 5 - 6,8,6,8,9,3371.6630334000074,3373.689385000005,3375.204051500012,3380.2238297000004,3380.794382900014,3380.794388500013,3382.310897400006,3383.3278015000105,w,8.0,0.5705532000138192,1,+1,865,23.828186680577247,-0.6019137597739042,-0.007351018962501232,3370942.0,7.776182058863192,0.6514063733435043,1.434344686696619,3374477.0,,,,,3375.2003390965065,3371.6653390965066,
199,57,19,m,1,5,191.0,1,2,high,6 + 1 + 1 + 7 - 9,6,6,4,8,3384.8444219000085,3386.8703273000137,3388.385702300002,3393.40390450001,3395.994212800011,3395.99421840001,3397.510651100005,3398.5279052000114,q,6.0,2.590308300001197,1,+10,875,-18.926720363748878,10.017707171107858,6.474298273058752,3384124.0,-0.5625991948422326,-2.2816221611704446,5.072289934896682,3387657.0,,,,,3388.3803390965068,3384.8473390965064,
