,id,age,sex,cued,block,trial,trialinblock,efflev,rewlev,calc,corAns,option1,option2,option3,tstart,ITI1Time,probTime,respTime,selectTime,ITI2Time,fbTime,ITI3Time,key_press,chosenAns,RT,acc,feedback,total_points,cuescr,cuecor,cuezyg,cuetime,probscr,probcor,probzyg,probtime,fbscr,fbcor,fbzyg,fbtime,probtime_c,cuetime_c,fbtime_c
0,59,27,f,0,Practice,,0,1,0,4 + 1 + 9 + 1 + 1,16,16,15,14,71.34095390001312,,71.34095600002911,76.4399675000459,79.1610776000307,79.16108390002046,80.67788000003202,81.69900100002997,w,15.0,2.7211100999847986,0,Incorrect,0,,,,,-24.406904235875473,0.591837966848527,-1.6576644505340221,67663.0,-6.420071169093761,-1.1249598257882902,0.392743475460259,76923.0,71.42661070502544,,80.68661070502544
1,59,27,f,0,Practice,,1,1,0,3 + 1 + 1 + 8 - 1,12,10,11,12,83.2156590000377,,83.21566200000234,88.23627010005293,89.36906880000606,89.36907510005403,90.88583890005248,91.90521190001164,e,12.0,1.1327986999531277,1,Correct,0,,,,,22.37805901382182,0.07037986312952338,0.021795074410484006,79460.0,-39.22427470034159,0.07479619760150946,0.16638672631705886,87129.0,83.22361070502544,,90.89261070502545
2,59,27,f,0,Practice,,2,2,0,8 + 1 + 6 + 1 - 4,12,10,12,11,93.42287330003457,,93.42287900001976,98.44243740005186,99.78495450003538,99.78496060002362,101.30158420000224,102.31991440005368,w,12.0,1.3425170999835243,1,Correct,0,,,,,3.180140159910092,0.35628253004662014,-0.09424086433522771,89666.0,-48.05110828955962,-1.8745478973834855,0.05955675549131212,97544.0,93.42961070502544,,101.30761070502544
3,59,27,f,0,Practice,,3,2,0,9 + 4 - 6 + 1 - 1,7,5,7,6,103.83690340002067,,103.83690640004352,108.85698270000285,111.72110170003724,111.72110810002778,113.2370029000449,114.25421870005084,w,7.0,2.864119000034407,1,Correct,0,,,,,16.539290829419038,-0.6676356290478607,-0.22615490886062295,100081.0,15.184829637983885,-0.2526655493902421,0.05793373855065287,109478.0,103.84461070502545,,113.24161070502544
4,59,27,f,0,Practice,,4,3,0,9 + 3 - 5 + 6 + 7,20,21,22,20,115.77101880003464,,115.77102210000156,120.7901305000414,123.3689629000146,123.36896900000283,124.88513300003252,125.9021275000414,e,20.0,2.57883239997318,1,Correct,0,,,,,9.897098499855698,-0.49493664605438425,-0.24754988593293326,112014.0,-21.248189520579622,1.6129417335773333,0.040032288828274254,121126.0,115.77761070502544,,124.88961070502545
5,59,27,f,0,Practice,,5,3,0,2 + 1 + 9 - 7 + 6,11,11,9,10,127.41895180003483,,127.41895459999796,132.43797640001867,133.4331291000126,133.43313520000083,134.94983750005483,135.9682245000149,q,11.0,0.9951526999939232,1,Correct,0,,,,,17.289925952516345,-0.3892967397956326,0.12552990745983794,123661.0,-32.35763506348361,0.04859483992564151,-0.1473524345120758,131192.0,127.42461070502544,,134.95561070502544
6,59,27,f,0,Practice,,6,4,0,4 + 8 + 5 - 3 + 7,21,22,23,21,137.48501860001124,,137.48502150003333,142.50567070004763,143.52890680002747,143.52891360002104,145.04515700001502,146.06316450005397,e,21.0,1.0232360999798402,1,Correct,0,,,,,2.3754536804601507,-0.49037399036920126,-0.06450455852709003,133729.0,-3.1607660343596855,-0.20550883394114017,-0.053081035327365855,141287.0,137.49261070502544,,145.05061070502543
7,59,27,f,0,Practice,,7,4,0,5 + 8 - 4 + 6 + 9,24,23,24,22,147.58025860000637,,147.5802616000292,152.5999814000097,154.13691860000836,154.13692460005404,155.65359450003598,156.67170380003515,w,24.0,1.536937199998647,1,Correct,0,,,,,11.332298283036254,-0.23147949009261026,0.10917791651077713,143823.0,12.15835192190504,-0.1115893241436483,0.02778107441205724,151895.0,147.58661070502544,,155.65861070502544
8,59,27,f,1,0,0.0,0,3,high,4 + 8 - 9 + 1 + 7,11,9,13,11,293.646771300002,295.69824610004434,297.21359990001656,302.2322537000291,303.3505331000197,303.3505379999988,304.8671275000088,305.8844544000458,e,11.0,1.1182793999905698,1,+10,10,4.5912385322624605,0.30683512396163515,-0.4743076254751495,289921.0,12.743062266320484,-0.2094578879659066,-0.35428576998932515,293455.0,-7.614610774068762,-0.18780511209618744,-0.1916455405242563,301107.0,297.2186107050254,293.6846107050254,304.87061070502546
9,59,27,f,1,0,1.0,1,3,high,5 + 6 - 4 - 1 + 7,13,13,14,15,307.40115220000735,309.4247282000142,310.9398821000359,315.95853430003626,316.8785340000177,316.8785415000166,318.3953462000354,319.41243140003644,q,13.0,0.9199996999814176,1,+10,20,-23.637387674903714,-0.8938703632597953,-0.7567749082925745,303647.0,-0.7577564204672051,-0.7135977789177685,-0.0877306991309732,307181.0,-19.540916757409597,-1.6123847527800272,-1.4127458420588446,314635.0,310.9446107050254,307.4106107050254,318.3986107050254
10,59,27,f,1,0,2.0,2,4,high,5 + 7 - 4 - 6 + 9,11,12,11,13,320.92911720002303,322.98440340004163,324.49926150002284,329.5177963000024,330.4304697000189,330.43047540000407,331.9469481999986,332.96414400002686,w,11.0,0.9126734000165015,1,+10,30,22.654573600001218,0.48583248834651815,-0.0033323531295910147,317208.0,-29.6179709267902,-0.12085506122362766,-0.1416153858565452,320740.0,2.4708308187228667,-0.4460466243221477,0.6433667983425515,328187.0,324.50361070502544,320.97161070502545,331.95061070502544
11,59,27,f,1,0,3.0,3,2,high,4 + 8 + 1 + 1 - 6,8,7,9,8,334.48097220005,336.53917440003715,338.0542509000516,343.07258040003944,344.1585700000287,344.1585752000101,345.67564630002016,346.6922586000292,e,8.0,1.0859895999892617,1,+10,40,-9.816129172897488,-0.21108384291722349,0.16978578072942874,330762.0,-1.3531416450293916,-0.7299093764688607,-0.007242965809274526,334295.0,0.711175061079862,-0.7531119640024864,-0.1600680460393198,341915.0,338.05861070502544,334.52561070502543,345.67861070502545
12,59,27,f,1,0,4.0,4,1,high,8 + 1 + 1 - 1 - 4,5,6,5,3,348.2090270000044,350.3689587000408,351.8840899000061,356.90255060000345,357.8625079000485,357.86251320003066,359.3795055000228,360.3968166000559,w,5.0,0.959957300045062,1,+10,50,5.442774655110814,-0.4064757250113509,0.16042438532780068,344592.0,5.6089793728339,0.046404151022265694,0.018317329561650997,348125.0,14.18795796327102,0.3778817295328718,0.08167182061112044,355619.0,351.8886107050254,348.3556107050254,359.38261070502546
13,59,27,f,1,0,5.0,5,1,low,5 + 9 - 1 + 1 + 1,15,17,13,15,361.9134449000121,364.05422859999817,365.5695931000519,370.5879410000052,372.29453569999896,372.2945423000492,373.811437700002,374.8281054000254,e,15.0,1.7065946999937296,1,+1,51,4.135016532114637,-0.026029192972493398,-0.04605679811748753,358277.0,5.8561508508669,0.8225369849155859,-0.090127780761172,361810.0,30.058451619902122,-0.0759497839036376,0.2553374676213691,370051.0,365.57361070502543,362.0406107050254,373.8146107050254
14,59,27,f,1,0,6.0,6,2,high,7 + 5 + 1 + 9 + 1,23,23,21,22,376.344935400004,378.37138440000126,379.886598800018,384.9053400000557,385.94248240004526,385.9424878000282,387.45878300000913,388.4760576999979,q,23.0,1.0371423999895342,1,+10,61,4.244634299314303,0.44767447044050446,0.04162905439124831,372595.0,-17.61741595577336,-0.5753622087850951,0.029731587104331547,376128.0,-20.667930574334413,-0.5406232164947715,-0.008636768053794874,383699.0,379.8916107050254,376.35861070502546,387.46261070502544
15,59,27,f,1,0,7.0,7,3,high,3 + 8 - 7 - 1 + 9,12,14,13,12,389.9923812000197,392.020433800004,393.5358993000118,398.5547621000442,399.59847180004,399.5984769000206,401.11488470004406,402.13226670003496,e,12.0,1.0437096999958158,1,+10,71,-10.489474507045355,-0.2089450972450635,-0.049332992969475686,386242.0,2.2858935765749084,-0.8342765967576025,-0.07874291394987232,389777.0,13.170203917130841,-0.6361133815522955,-0.13339516987487143,397355.0,393.5406107050254,390.00561070502545,401.11861070502545
16,59,27,f,1,0,8.0,8,3,high,3 + 1 + 8 - 5 + 9,16,15,16,17,403.6488679000177,405.6725928000524,407.187355800008,412.2066832000273,415.7263979000272,415.7264032000094,417.2423756000353,418.2596614000504,w,16.0,3.519714699999895,1,+10,81,-9.421238054013234,0.2641932357080936,-0.028808781207018574,399895.0,30.330750063233378,-0.4634058897646991,0.0723079378918352,403429.0,-33.796292835088884,-0.8947963293933618,0.11059610183131419,413482.0,407.1926107050254,403.6586107050254,417.24561070502546
17,59,27,f,1,0,9.0,9,3,low,5 - 1 - 4 + 6 + 7,13,13,14,15,419.7765524000279,421.9115238000522,423.4266764000058,428.44727380003314,429.4224252999993,429.4224308000412,430.9386117000249,431.9553039000021,q,13.0,0.9751514999661596,1,+1,82,-18.421003296694295,-1.2441022335191487,0.11169087086470109,416134.0,4.66170223093377,0.042025132684783806,-0.4295379406337092,419669.0,-4.010967218946458,-0.9501394269743493,0.010838659250424154,427178.0,423.4326107050254,419.89761070502544,430.9416107050254
18,59,27,f,1,0,10.0,10,1,high,4 + 9 + 1 - 1 - 1,12,12,13,11,433.4719212000491,435.4937489000149,437.0087901000516,442.0270356000401,443.85444250004366,443.8544476000243,445.3715546000167,446.3887631000253,q,12.0,1.8274069000035524,1,+10,92,-17.53081391884916,-0.08885351579668566,-0.02522742404201872,429716.0,-15.209161539825047,0.4787688386882456,-0.03902303864664569,433249.0,-1.8542406114914627,-0.3529546359896232,0.072156324924743,441611.0,437.01261070502545,433.47961070502544,445.3746107050254
19,59,27,f,1,0,11.0,11,3,high,9 + 3 - 4 + 6 + 7,21,21,23,22,447.905462900002,449.9313967000344,451.4464515,456.4649007000262,457.6464256000472,457.6464310000301,459.1628185000154,460.1796630000463,q,21.0,1.1815249000210315,1,+10,102,3.032525846393505,-0.3640807309666556,0.03734784102447475,444154.0,7.871156841949933,0.22799903545385014,0.07375186336935924,447687.0,-8.795149859211401,-1.4694217188665482,0.16265409893206573,455403.0,451.45061070502544,447.9176107050254,459.16661070502545
20,59,27,f,1,0,12.0,12,4,low,4 + 7 + 8 - 3 + 9,25,25,24,26,461.6958314000513,463.787475500023,465.3022585000144,470.3207587000216,475.21432510000886,475.21433050005,476.7308580000536,477.74853420001455,q,25.0,4.893566399987321,1,+1,103,-27.62707639972832,-0.9894274798669249,0.11044884176463299,458010.0,0.2583844717137671,-0.9866924667441186,0.1114826228757777,461543.0,-38.46565593429613,-2.530150872218016,-0.060362731399016045,472971.0,465.30661070502543,461.7736107050254,476.73461070502543
21,59,27,f,1,0,13.0,13,3,high,8 - 7 + 9 + 1 + 4,15,15,14,16,479.26605050003855,481.2930899000494,482.8080674000085,487.8269973000279,489.87027610000223,489.8702811000403,491.386755100044,492.4039288000204,e,16.0,2.04327879997436,0,+0,103,-3.696641821050127,-0.4202805677969428,-0.35495426376219297,475515.0,28.629323233203166,-0.6591028577424227,-0.037232745496231345,479049.0,-70.19290405958286,-1.1950309356922215,-0.03681755927527641,533778.0,482.8126107050254,479.2786107050254,537.5416107050255
22,59,27,f,1,0,14.0,14,2,high,3 + 8 - 5 + 1 + 1,8,9,6,8,493.9212657000171,495.9478642000468,497.4631494000205,502.4820312000229,504.345620600041,504.3456267000293,505.8620257000439,506.8789038000396,e,8.0,1.8635894000181,1,+10,113,0.8863804514637015,-0.1462120518348522,-0.0030915290375728155,490170.0,-1.7565705691392628,-0.7970686735849695,0.03237471062460173,493704.0,-8.996455769156002,-0.34069850019342063,0.15005045793794847,502101.0,497.46761070502544,493.93361070502544,505.8646107050254
23,59,27,f,1,0,15.0,15,4,low,4 + 7 - 8 + 9 - 4,8,9,7,8,508.3958283000393,510.4205873000319,511.93508570001,516.9544407000067,521.1903212000034,521.190326400043,522.7069883000222,523.7238844000385,e,8.0,4.235880499996711,1,+1,114,0.4230949599665781,0.10303021346641472,-0.011964807357148333,504642.0,-42.15740404779261,-0.13795427151607864,-6.562696875067608e-05,508176.0,-13.183081966528615,-0.4583133760108762,0.07162221728196183,518946.0,511.9396107050254,508.4056107050254,522.7096107050255
24,59,27,f,1,0,16.0,16,3,high,3 + 8 + 1 + 5 - 9,8,9,8,7,525.2406380000175,527.2681471000542,528.7834643000388,533.8016869000276,536.0222756000003,536.0222805000376,537.5388028000016,538.5560390000464,w,8.0,2.2205886999727227,1,+10,124,-9.420804872481757,-0.0963242763149621,-0.10277014123351558,521490.0,18.88423975844998,-0.6462650661856264,0.015448103143729464,525024.0,-37.913155856433036,-0.3728358294327956,0.06463229036160412,632857.0,528.7876107050255,525.2536107050255,636.6206107050255
25,59,27,f,1,0,17.0,17,1,high,3 + 1 + 8 + 1 + 1,14,14,13,12,540.0727114000474,542.0961538000265,543.6111594000249,548.6295141000301,550.0382944000303,550.0382996000117,551.554641900002,552.571872600005,q,14.0,1.4087803000002168,1,+10,134,9.108489426840165,-0.01123746472467868,0.018152680695386447,536318.0,13.218683019511296,-0.8869326594116762,0.14244034896790647,539851.0,-10.663693004241555,-0.6776754784683972,0.061702126791170375,547794.0,543.6146107050255,540.0816107050255,551.5576107050255
26,59,27,f,1,0,18.0,18,4,high,2 + 9 - 3 + 5 + 8,21,23,21,22,554.0885232000146,556.1280379000236,557.6429572000052,562.6613993000356,564.8623095000512,564.8623147000326,566.379132400034,567.3963304000208,w,21.0,2.2009102000156417,1,+10,144,-16.55891333679986,-0.5491685166164499,0.09945650806689255,550350.0,6.283308041500565,-0.025315043693560746,0.09799286088964454,553883.0,13.684680774924384,0.17185929229038965,0.10134965431059761,562618.0,557.6466107050255,554.1136107050255,566.3816107050255
27,59,27,f,1,0,19.0,19,1,high,5 + 6 + 1 + 1 + 1,14,14,13,16,568.9131443000515,570.9394171000458,572.4543076000409,577.4715353000211,578.5582334000501,578.5582385000307,580.0748553000158,581.0924912000191,q,14.0,1.0866981000290252,1,+10,154,-15.949721023762452,-0.513913491529765,0.05781180519634388,565161.0,17.49581748453251,-0.09808627808691472,0.07212603091440628,568694.0,-69.14202027364789,0.4424613731233977,-0.03004806410066152,576314.0,572.4576107050254,568.9246107050254,580.0776107050254
28,59,27,f,1,0,20.0,20,1,high,2 + 9 + 1 + 1 + 1,14,14,12,13,582.6088614000473,584.6339970999979,586.1491914000362,591.1673869000515,592.1342632000451,592.134268200025,593.6508875000291,594.6682291000034,q,14.0,0.9668762999936008,1,+10,164,-2.244355883010863,-0.9086639298750008,-0.056556841285315684,578856.0,3.8538064369000686,0.77141184413553,-0.015211713916105207,582389.0,8.736067462083948,0.2630164348763957,-0.05704386711072118,589890.0,586.1526107050255,582.6196107050255,593.6536107050255
29,59,27,f,1,0,21.0,21,4,high,8 + 3 - 4 + 5 + 9,21,21,22,23,596.1845886000083,598.2104946000036,599.7255159000051,604.743909700017,606.3181936000474,606.318199100031,607.8346389000071,608.8523245000397,q,21.0,1.574283900030423,1,+10,174,-4.841663195884574,-0.35327572146506103,0.0471238126996012,592432.0,-21.811439801098405,-0.7293824487113723,-0.056900099594556997,595965.0,26.9538921506753,-0.33181505105331066,0.06336648960387592,604074.0,599.7286107050255,596.1956107050255,607.8376107050254
30,59,27,f,1,0,22.0,22,1,low,6 + 9 + 1 + 1 - 1,16,16,14,15,610.3690978000523,612.3958283000393,613.9110388000263,618.928922799998,620.0301962000085,620.0302011000458,621.5465599000454,622.5634831000352,q,16.0,1.101273400010541,1,+1,175,-2.9335416572921726,-0.6737109437221793,-0.05774069706064444,606617.0,14.902645679609975,0.27858442898963975,-0.03071936248869167,610151.0,-3.131780604917008,-0.3185768730708558,0.11935531396753873,617785.0,613.9146107050254,610.3806107050254,621.5486107050255
31,59,27,f,1,0,23.0,23,3,low,9 - 5 - 1 - 6 + 8,5,4,7,5,624.0805554000544,626.1066966000362,627.621544499998,632.6408132000361,635.1021631000331,635.1021681000129,636.6187503000256,637.635578400048,e,5.0,2.461349899997004,1,+1,176,-21.305147483318272,-0.17537955942098105,0.04255152565593834,620328.0,15.8731702212887,-0.35881644469576734,0.013607166696930406,623862.0,-25.18952589047901,-0.13135015211673196,-0.04978677632005013,734720.0,627.6256107050255,624.0916107050255,738.4836107050255
32,59,27,f,1,0,24.0,24,2,high,5 - 8 + 7 + 1 + 1,6,8,6,7,639.1522403000272,641.1800367000396,642.6952885000501,647.7137870000442,648.7901603000355,648.7901653000154,650.306484700006,651.3237170000211,w,6.0,1.0763732999912463,1,+10,186,7.762678280864383,-0.31322588510174576,-6.423637961594508e-05,635401.0,-1.1440397991912636,-0.468985315257183,-0.04506880366160937,638935.0,-2.8137534548960135,-0.43296125344773095,-0.026282704057101425,646545.0,642.6986107050254,639.1646107050254,650.3086107050254
33,59,27,f,1,0,25.0,25,4,low,8 + 4 + 7 - 5 - 6,8,6,8,9,652.8407365000458,654.8626286000363,656.3776844000095,661.3965558000491,664.7181856000097,664.7181907000486,666.2345663000015,667.251712199999,q,6.0,3.321629799960647,0,+0,186,12.675338379860069,-0.7677649642622484,0.04858300454274822,649084.0,19.224838443190244,-0.044035496585516753,-0.02438436320206172,652618.0,10.67997250771794,-1.025835782448019,-0.01294077902051094,721113.0,656.3816107050255,652.8476107050254,724.8766107050255
34,59,27,f,1,0,26.0,26,4,high,3 + 8 - 4 + 9 + 6,22,22,21,23,668.7685078000068,670.7947226000251,672.3098727000179,677.328129200032,682.3455713000149,682.3455738000339,683.8621988000232,684.929343900003,,,,0,Too Slow!,186,7.277089409172195,0.20134011635849092,-0.012903872654478121,665017.0,0.04962524999718099,-0.5566682322833776,-0.05773051376932603,668549.0,-22.656508128571144,-0.7201878222667455,-0.010816097876911401,680151.0,672.3126107050255,668.7806107050255,683.9146107050254
35,59,27,f,1,0,27.0,27,1,low,8 + 1 + 5 + 1 + 1,16,15,16,17,686.446713900019,688.4713153000339,689.9863848000532,695.0045404000557,695.8781965000089,695.8782017000485,697.3957123000291,698.4131071000011,w,16.0,0.873656099953223,1,+1,187,-3.7119775117936467,-0.9646950765938604,-0.08874019463958138,682692.0,0.6214714197006463,0.08013704695075852,-0.08933448043115466,686226.0,,,,,689.9896107050255,686.4556107050255,
36,59,27,f,1,0,28.0,28,1,high,5 + 1 + 1 + 9 + 1,17,16,17,19,699.939809500007,701.9666477999999,703.4817896000459,708.5000149000552,709.2942132000462,709.2942183000268,710.8107269000029,711.8276541000232,w,17.0,0.7941982999909669,1,+10,197,-11.528146916959216,-0.7728755161045466,0.1986179496538245,696188.0,6.42595349098308,-0.211109281680133,0.05056202701818613,699721.0,,,,,703.4846107050255,699.9516107050255,
37,59,27,f,1,0,29.0,29,4,high,8 + 5 - 4 + 7 + 9,25,24,26,25,713.3443273000303,715.3660032000043,716.8814192000427,721.9005209000316,723.358031700016,723.3580366000533,724.8744720000541,725.8913298000116,e,25.0,1.4575107999844477,1,+10,207,-7.917393444276517,-1.289710591228391,0.07506955866859033,709587.0,35.609637772306634,-0.6534655861797463,0.04684305266472477,713122.0,,,,,716.8856107050254,713.3506107050255,
38,59,27,f,1,0,30.0,30,3,low,8 + 5 + 1 - 7 + 9,16,16,14,17,727.4081595000462,729.4314294000505,730.94655350002,735.9649391000276,736.966086600034,736.9660916000139,738.4824613000383,739.4990276000462,q,16.0,1.001147500006482,1,+1,208,-5.648453761373936,0.19137859410355595,-0.08893762307113962,723653.0,0.5361687904551644,-0.32821042402680245,-0.046496091057543154,727186.0,,,,,730.9496107050255,727.4166107050255,
39,59,27,f,1,0,31.0,31,2,low,4 + 9 - 7 + 1 - 1,6,5,6,8,741.015633300005,743.0518801000435,744.5673446000437,749.586037400004,752.0140972000081,752.0141023000469,753.5304520000354,754.5473471000441,w,6.0,2.428059800004121,1,+1,209,8.103845839954511,0.08822567434459216,-0.0002451742821782954,737273.0,-31.451023276432423,-0.40019571469987003,-0.018971670326874746,740807.0,,,,,744.5706107050255,741.0366107050255,
40,59,27,f,1,0,32.0,32,1,low,3 + 1 + 9 + 1 - 1,13,13,12,14,756.0639573000371,758.0905354000279,759.6056973000523,764.624073300045,765.7740148000303,765.7740199000109,767.2906257000286,768.3072554000537,q,13.0,1.1499414999852888,1,+1,210,16.396640093612692,-1.064054848827321,0.39551812156573884,752311.0,-1.1351025807118926,-0.0563324184607632,0.043960925554081154,755845.0,,,,,759.6086107050255,756.0746107050255,
41,59,27,f,1,0,33.0,33,4,low,5 + 7 - 4 + 6 + 9,23,24,25,23,769.823841000034,771.8508931000251,773.366102,778.3847426000284,779.4940070000011,779.4940127000446,781.010428300011,782.0271970000467,e,23.0,1.1092643999727445,1,+1,211,25.4561554404736,-0.3322640984139187,0.27407001065190006,766072.0,-28.762986614838873,0.07992578123625371,-0.08742177976009446,769606.0,,,,,773.3696107050255,769.8356107050255,
42,59,27,f,1,0,34.0,34,4,high,7 + 6 - 9 + 8 - 3,9,7,8,9,783.5437458000379,785.5701269000419,787.0850263000466,792.1051608000416,793.1660049000056,793.166009800043,794.6820126000093,795.699800900009,e,9.0,1.0608440999640152,1,+10,221,7.7909911893246875,-0.20420257128224417,-0.03216969483574861,779791.0,-0.5606714070679324,0.012420121596700362,-0.06745717350028002,783326.0,,,,,787.0896107050255,783.5546107050255,
43,59,27,f,1,0,35.0,35,4,high,4 + 7 - 8 + 9 - 3,9,8,9,11,797.2172478000284,799.2410020000534,800.7563285000506,805.7744063000428,806.7020385000505,806.7020436000312,808.218431700021,809.2363843000494,e,11.0,0.9276322000077926,0,+0,221,11.453191546171896,-0.6554254224536531,0.27038628673307996,793462.0,10.205555998491452,-0.3700941530046151,-0.02705050495001493,796996.0,,,,,800.7596107050255,797.2256107050255,
44,59,27,f,1,0,36.0,36,2,low,3 + 1 + 8 - 5 - 1,6,7,5,6,810.7532926000422,812.7806347000296,814.2955413000309,819.3135297000408,820.1500087000313,820.1500137000112,821.6663541000453,822.6833124000113,e,6.0,0.8364789999905042,1,+1,222,23.29926276910866,-1.0278830693326428,0.14409930283808303,807001.0,11.649278928409522,-0.3131208488967445,-0.01217041838705124,810534.0,,,,,814.2976107050255,810.7646107050255,
45,59,27,f,1,0,37.0,37,1,high,3 + 1 + 9 + 1 + 1,15,15,14,17,824.2000142000034,826.2274883000064,827.7429069000063,832.7609162000008,833.7500013000099,833.7500062000472,835.2667050000164,836.2837972000125,q,15.0,0.989085100009106,1,+10,232,-36.785629028541535,-0.31661691545304205,-0.012578850946729059,820448.0,-18.5019650811698,-0.5556287680400445,-0.01118343207596384,823982.0,,,,,827.7456107050255,824.2116107050255,
46,59,27,f,1,1,38.0,0,4,high,7 + 6 - 4 + 9 - 5,13,14,12,13,883.8182773000444,885.8435847000219,887.3587458000402,892.3795136000263,893.413989600027,893.4139953000122,894.9310304000392,895.949082200008,e,13.0,1.0344760000007227,1,+10,242,6.6341350427976735,1.3658503805077242,0.0886915029174773,880064.0,-6.208742050395812,0.08661727779650752,-0.05458154782352964,883600.0,,,,,887.3636107050255,883.8276107050254,
47,59,27,f,1,1,39.0,1,3,low,2 + 1 + 9 - 5 + 6,13,11,14,13,897.4658435000456,899.4870833000168,901.0023434000324,906.0221099000192,907.7418725000462,907.7418779000292,909.2589555000304,910.275843200041,e,13.0,1.7197626000270247,1,+1,243,-11.748482474163723,0.11704276861967822,0.04584903052928935,893708.0,11.184988457446053,0.14180905116151132,-0.026723959451381285,897242.0,,,,,901.0056107050254,897.4716107050255,
48,59,27,f,1,1,40.0,2,2,low,8 + 1 + 9 + 1 - 5,14,13,14,15,911.7928704000078,913.82037890004,915.335483300034,920.3535531000234,921.2058999,921.2059048000374,922.722249500046,923.7390458000008,w,14.0,0.8523467999766581,1,+1,244,-5.297811730326831,0.007661580878199237,-0.0015948646568395564,908041.0,-50.789952494441586,0.014043439809598546,0.037270955313257526,911574.0,,,,,915.3376107050254,911.8046107050255,
49,59,27,f,1,1,41.0,3,3,high,7 + 5 + 9 + 1 - 6,16,14,15,16,925.2555610000272,927.282345900021,928.7979496000336,933.8162242000108,934.8938575000502,934.8938626000308,936.4109562000376,937.4281419000472,e,16.0,1.0776333000394516,1,+10,254,26.202404615602937,0.08497917903036756,0.06576491324845724,921502.0,-12.009432705566818,-0.14385767158036544,0.04146215940534548,925036.0,,,,,928.7996107050254,925.2656107050254,
50,59,27,f,1,1,42.0,4,4,low,3 + 8 - 7 + 9 - 5,8,8,7,9,938.9448347000288,940.9695609000046,942.48457900004,947.5042438000092,948.7338958000182,948.7339008999988,950.2505042000556,951.2673905999982,q,8.0,1.2296520000090825,1,+1,255,29.23363985913086,0.02459327139020462,0.09230839907074984,935190.0,-36.647603400526656,0.21494186144525873,0.09722137894276162,938724.0,,,,,942.4876107050255,938.9536107050255,
51,59,27,f,1,1,43.0,5,2,high,3 + 8 + 1 - 5 + 1,8,6,9,8,952.7848736000014,954.8089449000544,956.32388000004,961.3421184000326,963.7498227000468,963.7498278000276,965.2661243000184,966.2836305000236,e,8.0,2.407704300014302,1,+10,265,-10.764515535687984,0.5793379221412227,-0.1439948362446326,949029.0,7.716988219818958,0.3201814769539484,-0.14971630730835073,952562.0,,,,,956.3256107050255,952.7926107050255,
52,59,27,f,1,1,44.0,6,2,high,6 + 1 + 8 + 5 - 1,19,17,19,18,967.8000815000267,969.8264701000298,971.3414397000452,976.3596147000208,977.1658566000406,977.1658620000236,978.6826371000498,979.6997229000552,w,19.0,0.8062419000198133,1,+10,275,-46.285218952396406,-0.007532018985005884,-0.30462766718711065,964046.0,11.302133203373963,0.06941612421496512,0.01420550158052003,967580.0,,,,,971.3436107050255,967.8096107050255,
53,59,27,f,1,1,45.0,7,4,low,7 + 6 - 9 + 8 - 3,9,9,7,8,981.2161395000294,983.2404810000444,984.7557020000532,989.7742479000008,990.6058142000112,990.6058195000514,992.1220699000404,993.1392393000424,q,9.0,0.8315663000103086,1,+1,276,-8.54508281584964,0.05071453254739766,0.06711366868903457,977460.0,25.01509805791564,0.08893005163612155,-0.05360551762427335,980994.0,,,,,984.7576107050255,981.2236107050255,
54,59,27,f,1,1,46.0,8,3,high,8 - 1 + 6 - 7 + 5,11,12,13,11,994.6560532000148,996.6841374000068,998.199245900032,1003.2177479000528,1004.1018236000092,1004.101828700048,1005.618223700032,1006.6355113000028,e,11.0,0.8840756999561563,1,+10,286,-5.053620113736754,-0.27850366307384866,0.058126236025464184,990904.0,25.561268340683817,-0.04073604354777949,-0.09308507557457202,994438.0,,,,,998.2016107050255,994.6676107050255,
55,59,27,f,1,1,47.0,9,2,high,2 + 1 + 9 - 4 + 1,9,11,8,9,1008.1521837000035,1010.1781110000449,1011.6930919000296,1016.7253127000296,1017.5418078000076,1017.5418128000456,1019.0588962000328,1020.0761280000444,e,9.0,0.8164950999780558,1,+10,296,-10.383127163118054,-0.12317395668188547,0.02571560869385081,1004398.0,-14.451826313639355,0.14814222555941337,0.07945608757829614,1007945.0,,,,,1011.7086107050255,1008.1616107050255,
56,59,27,f,1,1,48.0,10,2,high,8 + 1 + 7 + 1 - 4,13,12,14,13,1021.59274490003,1023.61628440005,1025.1315824000048,1030.1503930000472,1031.6778639000258,1031.6778689000057,1033.1951516000554,1034.2122085000155,e,13.0,1.5274708999786526,1,+10,306,20.423752716714855,0.16621283343142612,0.07120806158227566,1017836.0,18.69841983178258,0.12166223299480716,-0.07321481938411711,1021370.0,,,,,1025.1336107050254,1021.5996107050255,
57,59,27,f,1,1,49.0,11,3,low,8 + 4 + 1 - 7 + 9,15,15,16,13,1035.7286222000257,1037.7541149000172,1039.2692295000306,1044.2875825000228,1045.0857280000346,1045.0857330000144,1046.6022363000084,1047.6192306000155,q,15.0,0.7981455000117421,1,+1,307,18.04832322076126,0.12037018265615096,0.011245928689786355,1031974.0,18.23283383037323,0.17774794833667862,0.11105512549471319,1035507.0,,,,,1039.2706107050255,1035.7376107050254,
58,59,27,f,1,1,50.0,12,4,high,5 + 7 - 4 - 6 + 9,11,11,13,12,1049.1360258000204,1051.1599910000225,1052.675241900026,1057.693711800035,1058.5897199000465,1058.5897248000256,1060.1062219000305,1061.1234259000048,q,11.0,0.896008100011386,1,+10,317,8.789290563865094,-0.08822749073121461,0.10036637518993063,1045380.0,47.49086213573945,0.0645871811187706,0.01700349005801116,1048913.0,,,,,1052.6766107050255,1049.1436107050256,
59,59,27,f,1,1,51.0,13,2,low,9 + 1 + 6 + 7 + 1,24,24,23,25,1062.6403572999989,1064.6665818000329,1066.1813493000227,1071.1997427000315,1072.6376637000358,1072.637669100019,1074.1537439000094,1075.1709364000126,w,23.0,1.4379210000042804,0,+0,317,-8.92827351114455,-0.04072692195632399,0.04055137154102306,1058886.0,4.07290459895755,0.09179997452273958,-0.018056235466533233,1062419.0,,,,,1066.1826107050256,1062.6496107050255,
60,59,27,f,1,1,52.0,14,2,low,6 + 1 + 1 + 7 - 9,6,6,8,4,1076.68773460004,1078.7114260000526,1080.2265403000056,1085.2445748000173,1085.9898589000222,1085.9898646000074,1087.5077348000486,1088.5245001000003,q,6.0,0.7452841000049375,1,+1,318,2.395803003185481,0.17996805455492604,0.03007135928272664,1072931.0,-9.766286407048238,-0.05770287533784968,-0.03810354173443353,1076464.0,,,,,1080.2276107050254,1076.6946107050255,
61,59,27,f,1,1,53.0,15,4,low,3 + 9 - 4 + 7 + 6,21,19,21,20,1090.0412121000118,1092.0685818000347,1093.5832167000044,1098.6016986000468,1099.5176808000542,1099.517685800034,1101.0342751000426,1102.051170300052,w,21.0,0.91598220000742,1,+1,319,11.653144011630967,-2.3117174468148667,-6.455557252566814,1086288.0,-39.746889466675526,0.2528748715472271,-0.21128573288771935,1089821.0,,,,,1093.5846107050254,1090.0516107050255,
62,59,27,f,1,1,54.0,16,4,low,6 + 9 + 7 - 3 - 5,14,13,15,14,1103.5677911000091,1105.5921671000542,1107.1074611000367,1112.1260943000088,1112.909660800011,1112.9096659000495,1114.4261058000266,1115.4429428000003,e,14.0,0.7835665000020526,1,+1,320,2.6989598854803116,0.03940680602288538,-0.049666493003165835,1099812.0,27.109899863763033,-0.1740765968121154,-0.43148887457608676,1103346.0,,,,,1107.1096107050255,1103.5756107050254,
63,59,27,f,1,1,55.0,17,1,high,6 + 9 + 1 + 1 - 1,16,15,14,16,1116.9593855999992,1118.9867823000532,1120.5015789000315,1125.5194410000113,1126.2536547000054,1126.2536600000458,1127.76997090003,1128.7871283999991,e,16.0,0.7342136999941431,1,+10,330,-10.228568093819817,0.16926694423135857,-0.04857802131068856,1113206.0,2.725714564060585,0.09359177391004603,0.14294788778845402,1116739.0,,,,,1120.5026107050255,1116.9696107050254,
64,59,27,f,1,1,56.0,18,2,high,6 + 1 + 7 - 8 - 1,5,5,4,7,1130.3041133000515,1132.329966600053,1133.8448838000186,1138.8634313000366,1139.7256243000156,1139.7256293000537,1141.2421172000468,1142.2586322000134,q,5.0,0.8621929999790154,1,+10,340,11.900724198095851,0.29698454879320835,0.06604539899344775,1126550.0,-11.194583386773852,-0.07894541944781386,-0.0812170695215444,1130083.0,,,,,1133.8466107050256,1130.3136107050254,
65,59,27,f,1,1,57.0,19,1,low,9 + 1 + 1 + 7 - 1,17,17,19,16,1143.7751983000198,1145.802035300003,1147.3172200000265,1152.3358254000195,1153.1256282000104,1153.1256333000492,1154.6420609000488,1155.6585657000542,q,17.0,0.7898027999908663,1,+1,341,8.090929629423952,-0.03569346407156271,0.04551054878251981,1140022.0,-6.267524958755115,0.042633584822176385,0.04991527078882796,1143555.0,,,,,1147.3186107050255,1143.7856107050254,
66,59,27,f,1,1,58.0,20,1,low,2 + 1 + 9 + 1 + 1,14,13,12,14,1157.1752285000402,1159.1994412000058,1160.7145702000123,1165.732215200027,1166.829612900037,1166.8296178000164,1168.3460858000326,1169.362888600037,e,14.0,1.0973977000103332,1,+1,342,-2.338654621939649,-0.07670567095156766,0.1052001511814804,1153419.0,4.044984277194295,0.20870717772257352,4.945629073849276,1156952.0,,,,,1160.7156107050255,1157.1826107050256,
67,59,27,f,1,1,59.0,21,3,low,8 + 6 - 7 + 1 - 4,4,3,4,5,1170.8796582000214,1172.9069768000045,1174.422945600003,1179.44137460005,1180.2855385000005,1180.2855434000376,1181.801942500053,1182.8178273000522,w,4.0,0.8441638999502175,1,+1,343,20.634062012353457,-0.01431396647745542,0.2498517238544249,1167126.0,-15.742570236377855,-0.08700296047590683,0.06054343885818381,1170661.0,,,,,1174.4246107050255,1170.8896107050255,
68,59,27,f,1,1,60.0,22,2,high,5 + 8 + 1 - 1 + 9,22,21,22,23,1184.334180900012,1186.3609901000164,1187.8759266000125,1192.8939539000276,1193.581717000052,1193.5817220000315,1195.0981814000406,1196.1151501000277,w,22.0,0.6877631000243127,1,+10,353,-10.315642210671907,-0.17717629772454724,0.22495622831850648,1180579.0,12.900127824855637,-0.1747883844042235,0.01953427823623355,1184113.0,,,,,1187.8766107050255,1184.3426107050254,
69,59,27,f,1,1,61.0,23,1,low,3 + 1 + 1 + 8 - 1,12,12,13,14,1197.6325080000097,1199.6594514000462,1201.1742984000011,1206.1919384000355,1207.1576528000296,1207.1576577000087,1208.673386800045,1209.690352000005,q,12.0,0.9657143999938852,1,+1,354,9.016430392720661,-0.040738797840003116,-0.005156296277620154,1193878.0,-34.290448637939875,0.12055313655753541,-0.08357054198060765,1197411.0,,,,,1201.1746107050255,1197.6416107050254,
70,59,27,f,1,1,62.0,24,3,high,6 - 1 + 7 - 8 + 9,13,11,12,13,1211.207177400007,1213.2349443000276,1214.7500480000162,1219.768157500017,1220.7015685000224,1220.701574000006,1222.218237000052,1223.2355720000342,e,13.0,0.9334110000054352,1,+10,364,25.835425751022154,-0.19075445355815623,0.023570910568507575,1207454.0,-5.31188306605921,0.054613838398551495,0.04255521241851712,1210987.0,,,,,1214.7506107050256,1211.2176107050254,
71,59,27,f,1,1,63.0,25,1,low,3 + 1 + 8 - 1 + 1,12,13,10,12,1224.7522966000251,1226.7799654000555,1228.2954234000065,1233.3135096000042,1234.077548900037,1234.07755430002,1235.5941386000486,1236.6110696000396,e,12.0,0.7640393000328913,1,+1,365,-11.805694030444206,0.12168305406365132,0.045105486112269055,1220999.0,-30.904802083223665,0.006752185929597587,0.060092142479825084,1224532.0,,,,,1228.2956107050254,1224.7626107050255,
72,59,27,f,1,1,64.0,26,4,high,9 + 4 - 6 + 8 + 7,22,21,24,22,1238.128601400007,1240.156553500041,1241.671610600024,1246.6907107000006,1248.9975487000193,1248.9975535999984,1250.5137399000232,1251.5308506000438,e,22.0,2.3068380000186157,1,+10,375,-37.91208358824138,0.09015393170582398,0.05815655304762446,1234375.0,-1.3349737298398416,-0.0751689813123626,-0.04440396388226464,1237909.0,,,,,1241.6726107050256,1238.1386107050255,
73,59,27,f,1,1,65.0,27,2,low,5 - 1 + 1 + 8 + 9,22,23,21,22,1253.04749550001,1255.0731098000542,1256.5880110000144,1261.607126100047,1262.613587800006,1262.6135930000455,1264.1298049000325,1265.146717800002,e,22.0,1.006461699958891,1,+1,376,-25.0275136421194,-0.043831757634275936,-0.06614941007408381,1249292.0,-2.761246236083519,0.07995450593938691,0.5442565796379271,1252826.0,,,,,1256.5896107050255,1253.0556107050254,
74,59,27,f,1,1,66.0,28,3,high,4 + 1 + 8 + 9 - 5,17,18,19,17,1266.6633023000322,1268.6906166000408,1270.205680700019,1275.223683600023,1276.021525600052,1276.0215307000326,1277.5381607000018,1278.5551003,e,17.0,0.7978420000290498,1,+10,386,4.4860914248035355,0.08609703774455113,0.08917813330120561,1262909.0,18.057459319992546,-0.24841816928417493,0.04868192072336508,1266442.0,,,,,1270.2056107050255,1266.6726107050256,
75,59,27,f,1,1,67.0,29,2,low,8 + 1 + 1 + 9 - 4,15,14,15,16,1280.071422100009,1282.098279500031,1283.6131434999988,1288.632699400012,1290.109484900022,1290.1094901000033,1291.625829000026,1292.642560200009,w,15.0,1.47678550001001,1,+1,387,-2.96710345976215,0.05827114550233903,-0.35474409942367435,1276317.0,11.581147220110713,-0.19165910196070302,0.06128698408989264,1279851.0,,,,,1283.6146107050256,1280.0806107050255,
76,59,27,f,1,1,68.0,30,2,high,3 - 1 + 9 - 5 + 1,7,7,5,6,1294.1592261000187,1296.1861463000532,1297.70119230001,1302.7191091999994,1304.8214728000455,1304.821477600024,1306.3381089000031,1307.3552998000523,q,7.0,2.102363600046374,1,+10,397,-19.04948421931297,0.0637072781517789,0.014137332391775503,1290405.0,-13.258466478709463,0.02734345118508763,0.041368893375177684,1293938.0,,,,,1297.7016107050256,1294.1686107050255,
77,59,27,f,1,1,69.0,31,2,low,6 + 8 + 1 + 1 - 7,9,8,11,9,1308.8720735000095,1310.899768400006,1312.415405000036,1317.4337516000378,1318.1094337000395,1318.109438400017,1319.6255945000448,1320.6424920000136,e,9.0,0.6756821000017226,1,+1,398,-6.113834516573814,-0.04653274724841472,0.07193251308556503,1305118.0,-5.205513631418151,-0.007533462947834302,0.022049651222719957,1308653.0,,,,,1312.4166107050255,1308.8816107050254,
78,59,27,f,1,1,70.0,32,4,low,5 + 9 - 4 + 7 + 6,23,25,23,24,1322.1593298000516,1324.1862783000106,1325.701538400026,1330.7198330000392,1331.5654375000158,1331.5654431000005,1333.0830567000085,1334.0997748000082,w,23.0,0.8456044999766164,1,+1,399,5.223219611739294,-0.11145071922228666,0.11382040873003207,1318405.0,8.71587678682398,0.0020047888541414594,0.2628120771686988,1321938.0,,,,,1325.7016107050256,1322.1686107050255,
79,59,27,f,1,1,71.0,33,4,low,5 + 6 - 4 + 7 + 9,23,23,25,24,1335.6165251000202,1337.6422993000017,1339.157425100042,1344.1757110000472,1345.037413600017,1345.0374185000546,1346.554798200028,1347.572244000039,q,23.0,0.8617025999701582,1,+1,400,23.17125099150794,-0.06990179577947186,0.046712189065986065,1331861.0,-21.218654278930057,0.1330054934631959,0.038937286225308565,1335394.0,,,,,1339.1576107050255,1335.6246107050256,
80,59,27,f,1,1,72.0,34,4,high,5 + 8 - 6 + 7 + 4,18,19,18,17,1349.0887710000388,1351.1157227000222,1352.6315058000037,1357.6501214000164,1358.8373785000294,1358.837383200007,1360.3539953000145,1361.3710578000173,w,18.0,1.1872571000130847,1,+10,410,-10.370429132927478,0.39832664035636656,3.087622384767563e-05,1345334.0,-7.7049003785394525,0.20813321684582853,-0.01753089914546635,1348868.0,,,,,1352.6316107050254,1349.0976107050255,
81,59,27,f,1,1,73.0,35,2,low,9 + 5 - 6 + 1 - 1,8,8,9,7,1362.8876932000276,1364.915312600031,1366.430530600017,1371.449131500034,1372.4374326000109,1372.4374376000487,1373.953956500045,1374.970719200035,q,8.0,0.9883010999765248,1,+1,411,-1.8462446639026737,0.01909780817588924,-0.05587427039776305,1359134.0,-0.20337463249883925,-0.7493784767969691,-0.07511018203703101,1362668.0,,,,,1366.4316107050254,1362.8976107050255,
82,59,27,f,1,1,74.0,36,4,low,7 + 6 + 8 - 4 + 5,22,23,21,22,1376.4873761000345,1378.5156413000077,1380.0307466000086,1385.0499719000072,1386.3574207000202,1386.3574264000054,1387.8732184000546,1388.8900499000447,e,22.0,1.307448800012935,1,+1,412,32.51202684628829,0.042659898671555396,-0.051677716682036356,1372734.0,-28.977961366436286,-0.20322888072670153,0.04647127762594394,1376268.0,,,,,1380.0316107050255,1376.4976107050254,
83,59,27,f,1,1,75.0,37,3,low,7 - 1 + 9 - 5 + 4,14,13,15,14,1390.406827400031,1392.4336621000548,1393.948601400014,1398.9671501000412,1401.1093723000376,1401.1093774000185,1402.6259449000354,1403.6430687000393,e,14.0,2.142222199996468,1,+1,413,-32.729361177195905,0.08832167700858107,0.08964366560890369,1386652.0,-4.679798404864716,0.03386129477975297,-0.05301079613312343,1390185.0,,,,,1393.9486107050254,1390.4156107050255,
84,59,27,f,1,2,76.0,0,2,low,9 + 4 - 6 + 1 - 1,7,9,8,7,1456.2257007000153,1458.253584900056,1459.7694659000265,1464.7888249000534,1466.1172629000505,1466.1172678000294,1467.634092500026,1468.6506840000511,e,7.0,1.3284379999968223,1,+1,414,-4.2345907183542435,-2.7788737331668436,-9.362441421174136,1452472.0,9.14784112503559,-0.7378163277743366,-0.30966362964189864,1456007.0,,,,,1459.7706107050255,1456.2356107050255,
85,59,27,f,1,2,77.0,1,4,low,3 + 9 - 5 + 6 + 8,21,21,23,22,1470.167288800003,1472.1931131000165,1473.7082963000285,1478.7265237000538,1479.8373508000514,1479.8373562000345,1481.3539611000451,1482.3710934000555,w,23.0,1.1108270999975502,0,+0,414,11.874336718289092,0.6706752310093504,-0.3198157566326527,1466411.0,-44.05009849820859,0.1523820024563438,-0.6319125097964302,1469945.0,,,,,1473.7086107050254,1470.1746107050255,
86,59,27,f,1,2,78.0,2,3,low,2 + 9 - 3 + 4 + 1,13,13,11,14,1483.887702200038,1485.912922700052,1487.4281957000494,1492.4482258000062,1495.6613583000144,1495.6613637000555,1497.1777180000208,1498.1946766000474,e,14.0,3.2131325000082143,0,+0,414,-7.63889596927247,0.13195611759950032,-0.20300667904706948,1480131.0,-14.194129976718589,0.18720993783158701,0.31381634248128476,1483666.0,,,,,1487.4296107050254,1483.8946107050256,
87,59,27,f,1,2,79.0,3,3,high,6 + 1 + 8 + 7 - 9,13,13,15,14,1499.7113324000384,1501.7378052000422,1503.252981199999,1508.2711647000397,1509.1013459000387,1509.1013515000232,1510.6176227000542,1511.6345702000544,q,13.0,0.8301811999990605,1,+10,424,-42.424628426969164,-0.1697947129855757,0.08721348492771464,1495956.0,1.0908726374696993,0.019292994173006894,-0.15571634293395809,1499489.0,,,,,1503.2526107050255,1499.7196107050254,
88,59,27,f,1,2,80.0,4,3,low,7 - 5 + 9 + 1 - 4,8,8,9,7,1513.151326100051,1515.175395600032,1516.690556400048,1521.709569700004,1522.5332584000423,1522.5332635000232,1524.0500254000071,1525.0668311000336,q,8.0,0.823688700038474,1,+1,425,3.2734118703944852,0.07166820227350557,0.2477889434295686,1509393.0,-33.81786849980872,0.05283823860460157,0.4589137462753299,1512928.0,,,,,1516.6916107050256,1513.1566107050255,
89,59,27,f,1,2,81.0,5,3,low,5 + 6 + 7 - 1 - 9,8,8,7,9,1526.583811700053,1528.6097687000292,1530.125278600026,1535.1440808000043,1535.9172144000186,1535.9172194999992,1537.4335901000304,1538.4505834000302,q,8.0,0.7731336000142619,1,+1,426,7.798246793758732,0.06416470223222759,-0.07809585151808607,1522828.0,7.1370005616088505,0.026071061855117206,0.11687721761477388,1526362.0,,,,,1530.1256107050256,1526.5916107050255,
90,59,27,f,1,2,82.0,6,1,low,2 + 1 + 9 + 1 - 1,12,11,12,13,1539.9675619000336,1541.9948633000022,1543.5099912000005,1548.5292234000517,1549.453357500024,1549.4533630000078,1550.9696719000349,1551.9863497000188,w,12.0,0.9241340999724345,1,+1,427,-36.886182522928124,-0.01645714220727168,-0.43869054190514145,1536213.0,16.696845038129283,0.18202364821726436,-0.4131687058967781,1539746.0,,,,,1543.5096107050256,1539.9766107050255,
91,59,27,f,1,2,83.0,7,4,low,6 + 9 + 7 - 3 - 5,14,12,14,13,1553.5029136000085,1555.5297399000265,1557.0447839000262,1562.0656448000227,1563.5973252000404,1563.5973309000256,1565.1140687000006,1566.1313194000395,w,14.0,1.531680400017649,1,+1,428,16.553274645510058,-5.498211825562157,0.9627532038804194,1549748.0,-36.894218202805334,0.07808262990242798,-0.25648239815403384,1553282.0,,,,,1557.0456107050254,1553.5116107050255,
92,59,27,f,1,2,84.0,8,2,low,7 + 5 + 1 - 1 - 8,4,2,3,4,1567.6480473000556,1569.6753643000266,1571.1903615000192,1576.2087983000092,1577.061186100007,1577.0611913000466,1578.5775904000038,1579.5943221000489,e,4.0,0.852387799997814,1,+1,429,5.829151032696561,0.1553544516795411,0.021478529590522655,1563893.0,0.9082282176960206,-0.09458327624095708,-0.04549777525442167,1567427.0,,,,,1571.1906107050254,1567.6566107050255,
93,59,27,f,1,2,85.0,9,2,low,7 + 6 + 1 + 8 + 1,23,22,23,21,1581.1108969000052,1583.1338880000403,1584.6498119000462,1589.6681355000474,1590.4852522000438,1590.4852578000282,1592.0014729000395,1593.0180575000122,w,23.0,0.8171166999964043,1,+1,430,-8.447218236573761,0.1935557685156195,0.07310032019619905,1577352.0,2.0404361108288427,0.005205113526436378,-0.0834599236787783,1580886.0,,,,,1584.6496107050255,1581.1156107050256,
94,59,27,f,1,2,86.0,10,2,low,5 + 9 - 8 + 1 + 1,8,9,7,8,1594.5347409000387,1596.556302800018,1598.0711335000233,1603.0891656000167,1604.245182200044,1604.2451872000238,1605.7613958000438,1606.778084999998,e,8.0,1.1560166000272147,1,+1,431,0.24832678368585093,0.06461507748287998,0.8348035723697631,1590774.0,-10.45816905398215,-0.15846938028840363,-0.4232050609493667,1594307.0,,,,,1598.0706107050255,1594.5376107050254,
95,59,27,f,1,2,87.0,11,1,high,4 + 8 + 1 - 1 - 1,11,9,11,13,1608.294608300028,1610.3224736000411,1611.8376038999995,1616.855904100055,1619.317090800032,1619.3170956000104,1620.833458600042,1621.8506904000533,w,11.0,2.461186699976679,1,+10,441,10.924721507946684,-0.0856157183524755,-0.024068993863363808,1604540.0,4.276342823393589,-0.13108846902912674,-0.09248543174756518,1608074.0,,,,,1611.8376107050256,1608.3036107050254,
96,59,27,f,1,2,88.0,12,3,high,7 + 1 + 9 + 5 - 6,16,15,14,16,1623.3675528000458,1625.3921826000442,1626.907054100011,1631.9257742000043,1633.2852084000478,1633.28521370003,1634.8016327000223,1635.8188943000278,q,15.0,1.3594342000433244,0,+0,441,25.335090732966695,0.2542821086675846,0.1543610305006684,1619610.0,0.774115207872903,0.03603882100225997,-0.22977405719387178,1623143.0,,,,,1626.9066107050255,1623.3736107050254,
97,59,27,f,1,2,89.0,13,3,high,6 + 8 + 7 + 1 - 9,13,15,13,14,1637.335588400019,1639.3619430000545,1640.8771165000508,1645.8959089000127,1649.0691297000158,1649.0691351999994,1650.5858775000088,1651.6032423000431,w,13.0,3.173220800003037,1,+10,451,-27.949770953799764,-2.5912135082023795,-0.003220707301921699,1633579.0,-48.53367801940606,0.1563663256750769,-0.306359594121842,1637113.0,,,,,1640.8766107050255,1637.3426107050254,
98,59,27,f,1,2,90.0,14,3,low,3 + 8 - 7 + 1 + 9,14,14,12,13,1653.1199612000491,1655.1467960000157,1656.6623469000333,1661.682296300016,1662.3570699000263,1662.3570749000064,1663.8735990000423,1664.890109000029,q,14.0,0.674773600010667,1,+1,452,-53.56813865496367,-0.620761195375302,0.06526721225038501,1649364.0,7.5631548849628025,0.09433904162272189,0.14638064604692946,1652900.0,,,,,1656.6636107050256,1653.1276107050255,
99,59,27,f,1,2,91.0,15,3,high,7 - 6 + 8 + 1 + 7,17,15,16,17,1666.4067555000074,1668.4333024000516,1669.9481247000513,1674.9665422000107,1675.6851579000358,1675.6851630000165,1677.2015265000518,1678.2186024000405,e,17.0,0.7186157000251114,1,+10,462,10.712419290052452,0.12972390347901186,-0.13479997200450988,1662650.0,7.1672291971237385,-0.03815423021358111,-0.07706272293509664,1666184.0,,,,,1669.9476107050255,1666.4136107050256,
100,59,27,f,1,2,92.0,16,1,low,6 + 9 + 1 + 1 - 1,16,16,14,15,1679.7357835000148,1681.7628395000356,1683.2778607000364,1688.296035700012,1689.1731548000243,1689.1731601000065,1690.6896945000044,1691.7065256000496,q,16.0,0.8771191000123508,1,+1,463,28.896351320535516,0.41202866907881486,0.07721899292301071,1675980.0,23.18279862122786,-0.03241086248252634,-0.055958469646876896,1679513.0,,,,,1683.2766107050254,1679.7436107050255,
101,59,27,f,1,2,93.0,17,3,low,3 + 1 + 8 - 5 + 6,13,14,15,13,1693.223083900055,1695.2501508000423,1696.76613610005,1701.7852682000375,1702.589067200024,1702.5890728000086,1704.1058717000417,1705.1227281000463,e,13.0,0.8037989999866113,1,+1,464,-2.065572564388958,0.05191551309905673,-0.030680042903955096,1689467.0,19.189046871092607,0.18843584301741956,0.04099732879500495,1693003.0,,,,,1696.7666107050254,1693.2306107050256,
102,59,27,f,1,2,94.0,18,4,low,4 + 7 + 9 - 5 + 7,22,24,22,23,1706.6396115000243,1708.664888600004,1710.1797053000191,1715.198084300035,1716.413033000019,1716.4130379999988,1717.9293839000163,1718.9462664000455,w,22.0,1.2149486999842338,1,+1,465,23.27935655540205,0.2710450589528417,0.10999794682424069,1702882.0,-9.98678579382512,-0.12446444009537316,0.019685944084706364,1706415.0,,,,,1710.1786107050254,1706.6456107050255,
103,59,27,f,1,2,95.0,19,3,low,3 - 7 + 5 + 1 + 9,11,13,12,11,1720.4635195000446,1722.4903092000168,1724.0051186000346,1729.0251080000307,1729.9570795000182,1729.957084499998,1731.4736074000248,1732.4903803000343,e,11.0,0.9319714999874122,1,+1,466,16.867494641423896,0.10393815039981424,0.014352208856310167,1716707.0,-11.857650926581126,-0.015818877629822925,-0.016803321352770517,1720243.0,,,,,1724.0066107050254,1720.4706107050256,
104,59,27,f,1,2,96.0,20,2,high,5 + 1 + 7 - 6 + 1,8,7,8,6,1734.0071893000277,1736.0325839000288,1737.5475729000173,1742.565922000038,1743.4609983000555,1743.4610036000377,1744.977489700017,1745.99480450002,w,8.0,0.8950763000175357,1,+10,476,28.118082494765815,0.11126349568652039,-0.12062548220482183,1730250.0,35.343985566511975,0.04304962742257201,-0.4643858643439436,1733783.0,,,,,1737.5466107050254,1734.0136107050255,
105,59,27,f,1,2,97.0,21,3,low,9 - 1 + 5 - 6 + 8,15,15,14,17,1747.5115890000015,1749.5386283000116,1751.0534344000043,1756.0724429000402,1757.285128700023,1757.2851339000044,1758.8017416000366,1759.8182900000247,q,15.0,1.2126857999828644,1,+1,477,12.00320630877432,0.07536535307484327,0.078812905168413,1743756.0,-26.387244158802197,-0.036091097149513196,0.10324689538834564,1747290.0,,,,,1751.0536107050254,1747.5196107050256,
106,59,27,f,1,2,98.0,22,2,high,6 + 1 + 1 + 7 - 9,6,8,4,6,1761.3349725000444,1763.3621913000245,1764.8774043000303,1769.895991700003,1770.877009000047,1770.877014000027,1772.3936432000482,1773.4107874000329,e,6.0,0.9810173000441864,1,+10,487,2.687374690241814,0.10056614229326155,0.11295627477484405,1757579.0,13.330076236992486,-0.010984761752509176,0.11665656018553561,1761113.0,,,,,1764.8766107050255,1761.3426107050254,
107,59,27,f,1,2,99.0,23,3,high,4 + 5 - 3 + 7 - 1,12,11,13,12,1774.9272800000035,1776.9553745000158,1778.470502300013,1783.489086800022,1784.348988900019,1784.3489951000083,1785.865596000047,1786.883007800032,e,12.0,0.8599020999972709,1,+10,497,42.24786899734293,0.16406548253536135,0.14301064159009846,1771173.0,-17.34396406826092,0.10008783454622838,0.031066393957454252,1774706.0,,,,,1778.4696107050254,1774.9366107050255,
108,59,27,f,1,2,100.0,24,4,low,8 + 7 - 4 + 5 + 9,25,24,26,25,1788.399427700031,1790.4272969000158,1791.9423661000328,1796.960443500022,1798.3009752000216,1798.3009802000015,1799.8173620000016,1800.8342262000078,e,25.0,1.3405316999997012,1,+1,498,4.8835897203833145,0.11409289001501577,-0.03382249931394132,1784644.0,-26.015073320373318,-0.0244014277162794,-0.03110517553618708,1788178.0,,,,,1791.9416107050256,1788.4076107050255,
109,59,27,f,1,2,101.0,25,1,low,7 + 1 + 4 + 1 - 1,12,12,14,13,1802.3511538000312,1804.379119600053,1805.8945102000143,1810.912866800034,1811.6769516000056,1811.6769563000416,1813.1933528000368,1814.210234099999,q,12.0,0.7640847999718972,1,+1,499,-41.31483920343482,-0.10112393799900632,-0.08502812744239363,1798596.0,21.47544162415299,0.01406922198239835,0.05373656650510439,1802130.0,,,,,1805.8936107050256,1802.3596107050255,
110,59,27,f,1,2,102.0,26,3,low,5 + 7 + 1 - 4 + 6,15,15,17,13,1815.7266978000407,1817.7525156000047,1819.2676990000184,1824.28621010005,1827.4289566000225,1827.4289616000024,1828.945357900055,1829.9620895000407,q,15.0,3.142746499972418,1,+1,500,13.75279263192769,-0.0482571747412992,-0.047311990969132856,1811970.0,1.8921877351724596,0.345339213692196,-0.0784270764877999,1815503.0,,,,,1819.2666107050254,1815.7336107050255,
111,59,27,f,1,2,103.0,27,2,high,3 + 9 - 1 - 5 + 1,7,7,5,6,1831.478377900028,1833.50333950005,1835.0184989000556,1840.036728200037,1840.8689173000168,1840.8689224000557,1842.3851555000288,1843.4019745000403,q,7.0,0.8321890999795869,1,+10,510,-9.525968489520281,-0.0003033054933587742,0.26154714408546464,1827720.0,-4.838555866681564,0.15225944420775894,-0.08421190125937916,1831254.0,,,,,1835.0176107050254,1831.4836107050255,
112,59,27,f,1,2,104.0,28,2,low,9 + 6 + 1 + 7 + 1,24,25,24,23,1844.9188246999984,1846.9463464000144,1848.4615127000145,1853.47963180003,1854.5249383000191,1854.5249434,1856.0416447000464,1857.0585875000104,w,24.0,1.0453064999892376,1,+1,511,-9.938090369203572,7.818337876953514,0.805681777139017,1841164.0,-37.01272172632802,-5.3321630805367475,-1.9595547886474542,1844696.0,,,,,1848.4596107050254,1844.9276107050255,
113,59,27,f,1,2,105.0,29,1,high,8 + 1 + 4 + 1 + 1,15,15,14,16,1858.5754345000023,1860.6012186000007,1862.1161989000395,1867.1346987000436,1867.876889700012,1867.876895100053,1869.393533500028,1870.4107172000224,q,15.0,0.7421909999684431,1,+10,521,0.8278773317885246,-0.1815319087244469,-0.13640263167520095,1854818.0,-4.057109195086776,0.2232264208257777,0.16332099493055563,1858352.0,,,,,1862.1156107050256,1858.5816107050255,
114,59,27,f,1,2,106.0,30,1,high,4 + 1 + 1 + 7 - 1,12,14,13,12,1871.9273255000007,1873.9513538000172,1875.466357000056,1880.484448800038,1881.3488314000424,1881.348836500023,1882.8650925000547,1883.882207900053,e,12.0,0.8643826000043191,1,+10,531,16.781567930677504,-0.11720858254181143,-0.2263869097926723,1868168.0,7.870299262237814,-0.03632652242490897,-0.06949283943758999,1871701.0,,,,,1875.4646107050255,1871.9316107050254,
115,59,27,f,1,2,107.0,31,4,low,9 + 8 - 5 - 7 + 6,11,13,11,10,1885.39896760002,1887.425930200028,1888.9410143000423,1893.959712500044,1896.3968274000215,1896.3968320999995,1897.913262600021,1898.9305864000344,e,10.0,2.4371148999780416,0,+0,531,-0.748154417840853,-0.00882879761781119,0.06850923147378563,1881643.0,19.87441686585852,-0.09300951206279606,-0.21425336913098958,1885176.0,,,,,1888.9396107050254,1885.4066107050255,
116,59,27,f,1,2,108.0,32,2,low,2 + 9 + 1 + 1 - 5,8,8,7,6,1900.4474742000457,1902.4748109000504,1903.9898957000116,1909.0081767000372,1909.764846800012,1909.7648518000497,1911.28083220002,1912.2974385000416,q,8.0,0.7566700999741443,1,+1,532,-54.19467826010262,-0.038005783651730685,-0.026291999845366787,1896692.0,15.245524803198313,0.02129163375305554,0.05794156890776092,1900225.0,,,,,1903.9886107050254,1900.4556107050255,
117,59,27,f,1,2,109.0,33,4,low,3 + 9 - 5 + 8 - 7,8,7,8,9,1913.8140814000508,1915.8408914000029,1917.3558307000203,1922.3742065000115,1923.220955800032,1923.2209612000152,1924.737608000054,1925.7543891000096,w,8.0,0.8467493000207469,1,+1,533,28.287931109429568,0.08581571954386469,-0.17339956383398913,1910057.0,-6.660524148859118,-0.05504577652224363,0.3660134331725349,1913591.0,,,,,1917.3546107050254,1913.8206107050255,
118,59,27,f,1,2,110.0,34,2,high,8 + 1 + 4 - 7 + 1,7,7,5,6,1927.2711411000344,1929.2960442000183,1930.8107129000127,1935.829023200029,1936.7888911000337,1936.7888961000133,1938.3051884000304,1939.3222234999996,e,6.0,0.9598679000046104,0,+0,533,-12.010924838809544,-0.0942644936855972,-1.364808805028693,1923513.0,-32.66113054108832,0.05844068065162755,0.03286177335416096,1927045.0,,,,,1930.8086107050256,1927.2766107050254,
119,59,27,f,1,2,111.0,35,4,low,4 + 7 + 8 - 3 + 9,25,24,26,25,1940.8393311000543,1942.8636519000283,1944.378943600052,1949.3978082000397,1950.156851900043,1950.1568573000256,1951.6734058000147,1952.6904704000333,e,25.0,0.7590437000035308,1,+1,534,20.26886769981567,-0.03849853345552079,-0.06702972904654936,1937080.0,22.366536667502405,-0.01416905761402587,0.06383066413140015,1940614.0,,,,,1944.3776107050255,1940.8436107050254,
120,59,27,f,1,2,112.0,36,4,high,4 + 9 - 7 + 8 + 5,19,20,21,19,1954.2073003000116,1956.2357566000428,1957.7508834000328,1962.7693349000183,1963.644799200003,1963.6448044000424,1965.161245900032,1966.1783946000503,e,19.0,0.875464299984742,1,+10,544,7.772415972865308,0.13297279137846507,-0.013506170613199364,1950452.0,-4.942285234901341,0.2941955588960159,-0.054405001730339464,1953986.0,,,,,1957.7496107050256,1954.2156107050255,
121,59,27,f,1,2,113.0,37,1,low,3 + 1 + 1 + 9 - 1,13,13,12,14,1967.6950454000037,1969.7218168000109,1971.2370524000144,1976.2558405000016,1976.9489644000423,1976.9489693000212,1978.4652284000183,1979.4820499000489,q,13.0,0.6931239000405185,1,+1,545,-24.70514852778965,0.10296729003852345,-0.01753566521500738,1963938.0,64.95007923954053,0.13012057879201988,-0.04456624521555397,1967472.0,,,,,1971.2356107050255,1967.7016107050256,
122,59,27,f,1,3,114.0,0,3,low,5 + 6 - 4 - 1 + 8,14,15,14,16,2073.6762255000067,2075.7036057000514,2077.21885070001,2082.237879200024,2085.1566685000435,2085.1566738000256,2086.6734764000284,2087.690466,e,16.0,2.918789300019853,0,+0,545,12.99308699366738,-0.5716804227775514,-0.1394170015591727,2069920.0,-6.8555285589382144,0.10065368234197525,-0.07398404444538165,2073454.0,,,,,2077.2176107050254,2073.6836107050253,
123,59,27,f,1,3,115.0,1,1,low,7 + 1 + 4 + 1 - 1,12,11,13,12,2089.2076832000166,2091.2323522000224,2092.747580500029,2097.7678828000207,2098.612715700001,2098.6127210000413,2100.128968600009,2101.1462546000257,e,12.0,0.844832899980247,1,+1,546,12.314262788252783,-0.01655814513492304,0.3164189505071522,2085448.0,-19.494330007601086,-0.1647201558058713,-0.11659758836694256,2088983.0,,,,,2092.7466107050254,2089.211610705025,
124,59,27,f,1,3,116.0,2,1,low,4 + 7 + 1 - 1 - 1,10,10,11,9,2102.6629242000054,2104.687174700026,2106.202113700041,2111.220305500028,2113.9007025000174,2113.9007077999995,2115.417080400046,2116.4344020000426,w,11.0,2.6803969999891706,0,+0,546,33.883494207245114,0.15117090302904357,0.22669528320716315,2098903.0,22.424273302176807,0.18447399958113708,-0.09612266477243248,2102436.0,,,,,2106.1996107050254,2102.666610705025,
125,59,27,f,1,3,117.0,3,1,low,6 + 1 + 1 + 7 - 1,14,12,13,14,2117.9511218000557,2119.9777037000167,2121.492796500039,2126.511038900004,2127.340635800036,2127.3406441000407,2128.8570051999995,2129.8745116000064,e,14.0,0.8295969000319019,1,+1,547,34.98376295929372,0.2675277327828105,-0.015836924072365477,2114193.0,32.33405545148277,-0.10139361286855153,-0.03795636956120507,2117727.0,,,,,2121.490610705025,2117.9566107050255,
126,59,27,f,1,3,118.0,4,3,low,6 - 1 + 7 - 8 + 9,13,13,12,11,2131.391163000022,2133.418924000056,2134.933794800017,2139.9525093000266,2140.5646202000207,2140.564625600004,2142.0813433000003,2143.098189400044,q,13.0,0.6121108999941498,1,+1,548,-24.11806209129783,0.06808019933274112,0.003081144396900548,2127635.0,-4.385607790787969,-0.28403193615597044,-0.17789745229616893,2131168.0,,,,,2134.9316107050254,2131.3986107050255,
127,59,27,f,1,3,119.0,5,3,high,6 + 7 + 8 + 1 - 9,13,15,13,14,2144.6149271000177,2146.6373563000234,2148.1525592000107,2153.171055700048,2154.6366555000423,2154.636660600023,2156.153042900027,2157.1701758000418,w,13.0,1.4655997999943793,1,+10,558,-3.568457748691852,-0.1881051453846192,-0.17342124850071117,2140853.0,15.938620014915264,-0.05594704061454636,-0.042529728323760896,2144387.0,,,,,2148.1506107050254,2144.6166107050253,
128,59,27,f,1,3,120.0,6,3,high,7 - 1 + 8 - 6 + 4,12,11,13,12,2158.687014300027,2160.709118400002,2162.2247648000484,2167.2433774000383,2167.972612100013,2167.9726174000534,2169.488875900046,2170.506120100036,e,12.0,0.7292346999747679,1,+10,568,41.97177989824682,0.041303980672166674,-0.07690791553252962,2154925.0,54.48043063169088,0.0821606680602951,0.2291181839407268,2158459.0,,,,,2162.222610705025,2158.6886107050254,
129,59,27,f,1,3,121.0,7,2,high,4 + 1 + 9 + 1 - 6,9,7,9,8,2172.0224890000536,2174.049249200034,2175.5643141000182,2180.581999700051,2181.404670800024,2181.404675800004,2182.9212751000305,2183.9384009000496,w,9.0,0.8226710999733768,1,+10,578,-48.23867135238017,0.15802753823824944,0.09214057887471849,2168265.0,-0.241782653944981,-0.07495154254103675,-0.04962731889027827,2171798.0,,,,,2175.561610705025,2172.028610705025,
130,59,27,f,1,3,122.0,8,1,low,6 + 1 + 8 + 1 + 1,17,15,16,17,2185.455370200041,2187.483399500022,2188.9986694000545,2194.0166230000323,2194.604556400038,2194.6045615000185,2196.1210535000428,2197.137846700032,e,17.0,0.5879334000055678,1,+1,579,8.681252645651007,0.2403600180046923,-0.062445640538083325,2181699.0,8.454087764693075,0.03351748952160283,-0.0415292460275003,2185232.0,,,,,2188.9956107050252,2185.4626107050253,
131,59,27,f,1,3,123.0,9,1,low,5 + 1 + 1 + 6 + 1,14,14,16,13,2198.654683400004,2200.6787298000418,2202.1942483000457,2207.2116875000065,2207.860571200028,2207.8605763000087,2209.3768580000037,2210.393648100028,q,14.0,0.6488837000215426,1,+1,580,-52.993346356306155,0.06270345849973413,0.7188879514239082,2194894.0,-5.976185927193628,-0.08702131969636673,-0.15291653110512038,2198427.0,,,,,2202.1906107050254,2198.657610705025,
132,59,27,f,1,3,124.0,10,1,high,2 + 1 + 9 + 1 - 1,12,12,13,11,2211.910388600023,2213.9374476000085,2215.4529830000247,2220.471458200016,2221.0364826000296,2221.0364876000094,2222.552807,2223.5702399000293,q,12.0,0.565024400013499,1,+10,590,-18.282169334713316,-0.03659398595610974,0.11432041239144897,2208153.0,-4.957814882160437,-0.034014758487432406,0.1831385650542927,2211687.0,,,,,2215.450610705025,2211.916610705025,
133,59,27,f,1,3,125.0,11,1,high,2 + 1 + 1 + 9 - 1,12,13,12,11,2225.0870569000253,2227.111819600046,2228.6266085000243,2233.644800900016,2234.476627800032,2234.4766327000107,2235.9931274000555,2237.0103328000405,w,12.0,0.8318269000155851,1,+10,600,26.117590179193968,0.09811005046441057,-0.03089799218377598,2221327.0,3.580888958901461,0.0670130358294585,0.160049182581814,2224860.0,,,,,2228.6236107050254,2225.0906107050255,
134,59,27,f,1,3,126.0,12,4,high,6 + 7 + 9 - 3 + 5,24,22,23,24,2238.526819200022,2240.5538833000464,2242.068856500031,2247.0872086000163,2247.908500600024,2247.9085059000063,2249.4247356000124,2250.441811800003,e,24.0,0.8212920000078157,1,+10,610,-27.436567677537475,0.052996753168478516,-0.21419559824639367,2234769.0,20.65916916633621,-0.006005089555311205,0.15226628697559197,2238302.0,,,,,2242.0656107050254,2238.532610705025,
135,59,27,f,1,3,127.0,13,2,low,9 + 4 + 5 + 1 - 1,18,18,19,17,2251.958457400033,2253.986037000024,2255.5010966000264,2260.519064100052,2261.364622700028,2261.3646280000103,2262.8811806000303,2263.8979479000554,q,18.0,0.8455585999763571,1,+1,611,0.1073247338970944,0.07610457479016164,-0.11236165730184822,2248201.0,-10.665148250097321,-0.06642377320048354,-0.04794458044020833,2251734.0,,,,,2255.497610705025,2251.9646107050253,
136,59,27,f,1,3,128.0,14,1,low,7 + 1 + 5 + 1 - 1,13,12,13,14,2265.4145966000506,2267.4408227000386,2268.955726800021,2273.975807200012,2274.8365595000214,2274.8365644000005,2276.353047200013,2277.369913100032,w,13.0,0.8607523000100628,1,+1,612,-13.523393436537066,0.11635980750986352,0.23181312305580515,2261656.0,-4.115237429993609,-0.012252526138183839,-0.42427815901427923,2265191.0,,,,,2268.954610705025,2265.419610705025,
137,59,27,f,1,3,129.0,15,4,low,5 + 7 - 4 + 8 + 6,22,23,22,24,2278.887012800027,2280.9146820000024,2282.429438100022,2287.447959500016,2288.292464099999,2288.29246950004,2289.8088756000507,2290.82570440002,w,22.0,0.8445045999833383,1,+1,613,49.24937237014348,0.16797999283306808,-0.06512019859739038,2275130.0,26.608783360069552,0.03235856974265605,0.12015176599067434,2278663.0,,,,,2282.4266107050253,2278.8936107050254,
138,59,27,f,1,3,130.0,16,2,high,2 + 1 + 9 - 4 + 1,9,9,8,11,2292.3423717000405,2294.3656334000407,2295.8806856000447,2300.898796500056,2303.372487400018,2303.3724927000003,2304.889176000026,2305.9071709000277,q,9.0,2.4736908999620937,1,+10,623,4.507308712974233,0.09902001132776661,0.6651651245894845,2288581.0,-0.5443919856813251,0.08044087347341566,-0.08453026033860711,2292114.0,,,,,2295.8776107050253,2292.3446107050254,
139,59,27,f,1,3,131.0,17,1,high,9 + 8 + 1 + 1 - 1,18,18,20,17,2307.423966900038,2309.4514395000297,2310.966526400007,2315.9846728999983,2316.732454300043,2316.732459400024,2318.2488601000514,2319.2662495000404,q,18.0,0.7477814000449143,1,+10,633,16.53960817581122,0.007449395669500092,-0.08344268397876364,2303666.0,-7.756455313506013,-0.1119610578821848,0.003613207646580463,2307199.0,,,,,2310.9626107050253,2307.4296107050254,
140,59,27,f,1,3,132.0,18,3,low,4 + 7 + 1 + 9 - 5,16,17,16,18,2320.783123800007,2322.8068351000547,2324.321940200054,2329.341884500056,2330.396465500002,2330.3964707000414,2331.912433300051,2332.929352700012,e,18.0,1.054580999945756,0,+0,633,9.079376891548748,-0.20344266333973904,0.022530749532395644,2317022.0,14.08506005342199,-0.011117846347706628,0.013875117467335052,2320557.0,,,,,2324.320610705025,2320.785610705025,
141,59,27,f,1,3,133.0,19,2,low,6 + 1 + 1 + 8 - 9,7,7,5,9,2334.4462039000355,2336.4740990000428,2337.9890573000303,2343.007151100028,2343.5643907000194,2343.5643960000016,2345.080805100035,2346.097578100045,q,7.0,0.5572395999915898,1,+1,634,14.65731518175383,0.175672296246848,0.056018603861500926,2330689.0,16.948703805236132,0.0034358984080964383,-0.012297175937314053,2334222.0,,,,,2337.9856107050255,2334.452610705025,
142,59,27,f,1,3,134.0,20,4,low,8 + 4 - 5 + 7 - 6,8,6,8,7,2347.614103900036,2349.6396695000003,2351.154719900049,2356.174971500004,2356.948430600052,2356.9484358000336,2358.4655161000555,2359.4828385,w,8.0,0.7734591000480577,1,+1,635,23.012990657368867,0.2528079296250465,0.0420447987603243,2343854.0,-28.868359952537663,0.29985308074885086,0.04160893695423007,2347390.0,,,,,2351.153610705025,2347.617610705025,
143,59,27,f,1,3,135.0,21,2,high,4 + 7 + 1 + 1 - 8,5,5,4,7,2360.99921020004,2363.022865100007,2364.5376410000026,2369.5560107000056,2370.284490500053,2370.2844960000366,2371.801393300004,2372.818529700045,q,5.0,0.7284798000473529,1,+10,645,11.478304028157636,-0.07029386231129076,-0.019307333660142367,2357238.0,-27.387575316854548,-0.04142268575519159,0.12418550924468863,2360771.0,,,,,2364.5346107050254,2361.001610705025,
144,59,27,f,1,3,136.0,22,2,high,4 + 9 - 7 + 1 - 1,6,6,8,5,2374.3363950000494,2376.359883400029,2377.875002500019,2382.894934500044,2383.604415400012,2383.6044205000508,2385.1206673000124,2386.137797800009,q,6.0,0.7094808999681845,1,+10,655,5.5956510640546835,0.026812097702675786,0.03589993868204444,2370575.0,14.730974570203372,-0.04352881565558375,-0.0639671159373214,2374109.0,,,,,2377.872610705025,2374.338610705025,
145,59,27,f,1,3,137.0,23,2,high,3 + 9 + 1 - 5 + 1,9,8,9,7,2387.6544584000367,2389.6804480000283,2391.1954231000277,2396.2135966000496,2397.116385500005,2397.116390900046,2398.6330407000496,2399.6499275000533,w,9.0,0.9027888999553396,1,+10,665,17.386782034919964,0.15520809607018782,-0.031956138407108314,2383895.0,15.797360324934708,0.05379516991542044,0.03175095590729149,2387428.0,,,,,2391.191610705025,2387.6586107050252,
146,59,27,f,1,3,138.0,24,4,low,3 + 8 - 4 + 9 + 7,23,22,23,24,2401.1665359000326,2403.19263200002,2404.7077927000355,2409.726789200038,2411.060304600047,2411.060309900029,2412.5766737000085,2413.5938593000174,w,23.0,1.333515400008764,1,+1,666,3.8405933378173955,0.0929321882495775,0.137626409617974,2397407.0,6.78517474559615,-0.026091156617879196,-0.19577384850262192,2400941.0,,,,,2404.704610705025,2401.1706107050254,
147,59,27,f,1,3,139.0,25,2,low,7 + 1 + 9 - 1 - 8,8,7,8,6,2415.1107587000006,2417.13922740001,2418.6538806000026,2423.672324100044,2424.2603497000528,2424.2603547000326,2425.776937800052,2426.79352570005,w,8.0,0.5880256000091322,1,+1,667,26.175617302110858,-0.17528933018477622,0.000785095047119988,2411352.0,2.7564292913882475,0.0011318648824092392,0.10816096247767448,2414887.0,,,,,2418.6506107050254,2415.115610705025,
148,59,27,f,1,3,140.0,26,4,high,6 + 9 - 7 + 8 - 5,11,12,13,11,2428.3101642000256,2430.336503900005,2431.8513845000416,2436.869743800024,2437.8444346000324,2437.844439800014,2439.361389800033,2440.3785357000306,e,11.0,0.9746908000088296,1,+10,677,17.866165298397025,-0.0009987994935896083,0.003107819708618509,2424551.0,-3.575948282203246,0.49087401356018523,-0.048435715850688954,2428084.0,,,,,2431.847610705025,2428.314610705025,
149,59,27,f,1,3,141.0,27,1,high,8 - 1 + 1 + 6 + 1,15,14,15,16,2441.8951257000444,2443.9195591000025,2445.4347822000277,2450.4528617000324,2451.4363223000546,2451.436327500036,2452.952843700012,2453.9697263000417,w,15.0,0.9834606000222266,1,+10,687,-21.600730097704307,-0.19664954389056466,-0.07274252655032809,2438134.0,-35.052077054696056,-0.07272067514819769,0.13522046641666585,2441667.0,,,,,2445.430610705025,2441.8976107050253,
150,59,27,f,1,3,142.0,28,1,high,7 + 1 + 6 + 1 + 1,16,16,18,17,2455.486303600017,2457.511319800047,2459.026758400025,2464.04486210004,2464.892299500003,2464.8923043000395,2466.40862240002,2467.42633690004,q,16.0,0.8474373999633826,1,+10,697,18.549049108390854,-0.13247029521507248,0.015026957775688743,2451726.0,16.85086814099011,0.029424085962792113,-0.00991126704896117,2455259.0,,,,,2459.0226107050253,2455.4896107050254,
151,59,27,f,1,3,143.0,29,1,low,7 - 1 + 1 + 9 - 1,15,15,14,13,2468.942926500051,2470.9707904000534,2472.4858602000168,2477.504143700004,2478.364345000009,2478.3643502000486,2479.8807071000338,2480.8975007000263,q,15.0,0.8602013000054285,1,+1,698,11.914282231503712,-0.08106145908565887,0.004738228115891863,2465185.0,29.463729595101718,0.06974583441383242,0.02344162967982455,2468718.0,,,,,2472.481610705025,2468.948610705025,
152,59,27,f,1,3,144.0,30,2,low,6 + 1 + 8 + 7 - 1,21,21,23,19,2482.4138670000248,2484.440763300052,2485.9559404000174,2490.976260800031,2491.7482901000185,2491.748295600002,2493.264718200022,2494.2812329000444,q,21.0,0.77202929998748,1,+1,699,-50.67478503786648,-0.18455234079076854,0.05009908126635554,2478654.0,-6.448859671672874,0.04562046027153954,-0.0767655403631402,2482190.0,,,,,2485.9536107050253,2482.4176107050253,
153,59,27,f,1,3,145.0,31,3,low,3 + 1 + 6 - 8 + 9,11,13,11,12,2495.7982377000158,2497.825647900056,2499.3405587000307,2504.3586069000303,2505.164359700051,2505.164364800032,2506.681359500042,2507.698744699999,w,11.0,0.8057528000208549,1,+1,700,-60.46890339171448,0.12979091179477065,-0.09854561349086532,2492040.0,0.29897103483305365,0.1212899240431522,-0.022821756013837513,2495573.0,,,,,2499.336610705025,2495.803610705025,
154,59,27,f,1,3,146.0,32,4,high,4 + 8 + 9 - 3 + 7,25,26,24,25,2509.2149738000007,2511.237851500045,2512.7529621000285,2517.7721097000176,2519.2041720999987,2519.2041771000368,2520.720580100024,2521.738092500018,e,25.0,1.4320623999810778,1,+10,710,5.147136167439256,-0.20916145256111918,-0.00527257553023075,2505452.0,1.8573995711961615,-0.13397259603681055,0.04805045958191245,2508985.0,,,,,2512.7486107050254,2509.2156107050255,
155,59,27,f,1,3,147.0,33,3,low,2 + 1 + 9 - 7 + 6,11,12,13,11,2523.2548794000177,2525.2771307000075,2526.792203400051,2531.810348100029,2532.460215600033,2532.460220500012,2533.9764711000025,2534.9933616000344,e,11.0,0.6498675000038929,1,+1,711,40.06853964344115,-0.04239506890466371,0.07094084742392748,2519491.0,-1.2365054296642874,-0.13284414426932978,0.09541507455306175,2523025.0,,,,,2526.7886107050253,2523.2546107050252,
156,59,27,f,1,3,148.0,34,1,low,9 + 8 + 1 + 1 - 1,18,18,17,19,2536.51059000002,2538.5375856000464,2540.0536208000267,2545.071364000032,2545.708325000014,2545.7083302000538,2547.225035900017,2548.2416424000403,q,18.0,0.6369609999819659,1,+1,712,-3.7630397846134507,0.02608870452014056,0.012445421172862181,2532751.0,5.890665943978536,0.35996467270002097,0.8656471211606354,2536285.0,,,,,2540.048610705025,2536.5146107050255,
157,59,27,f,1,3,149.0,35,4,high,8 + 4 + 7 - 5 - 6,8,9,8,7,2549.758064100053,2551.7855382999987,2553.300888400001,2558.319243900012,2559.084187100001,2559.0841925000423,2560.6007488000323,2561.6178481000243,w,8.0,0.7649431999889202,1,+10,722,56.2891703469864,0.23976837380473026,0.09355053287720794,2545999.0,-50.10209884832762,0.05268799688114223,0.03454341108332848,2549533.0,,,,,2553.296610705025,2549.762610705025,
158,59,27,f,1,3,150.0,36,1,high,7 + 1 + 4 + 1 - 1,12,12,11,13,2563.134365900012,2565.1590172,2566.6737184000085,2571.6924548000097,2572.3802102000336,2572.380215200013,2573.896730900044,2574.9138534000376,q,12.0,0.6877554000238888,1,+10,732,16.15560295320464,0.06153809832202395,0.03371642601913383,2559373.0,9.614254532784031,0.004844581693509653,0.08097929261391457,2562906.0,,,,,2566.669610705025,2563.1366107050253,
159,59,27,f,1,3,151.0,37,1,high,5 + 6 + 1 + 1 + 1,14,16,15,14,2576.4305959000485,2578.4568281000247,2579.971885100007,2584.989347900031,2585.8761605000477,2585.8761654000264,2587.392617000034,2588.409826600051,e,14.0,0.8868126000161283,1,+10,742,-10.096510548382145,0.07406150992305571,-0.0459668120492005,2572671.0,0.6806479628549065,0.12370723820145546,0.08936786527123775,2576203.0,,,,,2579.9666107050252,2576.434610705025,
160,59,27,f,1,4,152.0,0,3,high,4 + 1 + 8 + 9 - 5,17,19,18,17,2596.9997457000427,2599.025008800032,2600.540026700008,2605.5591247000266,2607.396150400047,2607.396156200033,2608.9127015999984,2609.9307425000006,e,17.0,1.837025700020604,1,+10,752,-26.317894319629154,-2.3065052239951065,-8.09448271111469,2593239.0,-20.41009990492295,0.1299317331811385,0.3196744132880074,2596773.0,,,,,2600.5366107050254,2597.0026107050253,
161,59,27,f,1,4,153.0,1,2,low,7 + 6 + 1 - 1 - 8,5,5,4,3,2611.44759180001,2613.472911900026,2614.987916700018,2620.007204600028,2620.788183100056,2620.7881883000373,2622.3045356000075,2623.3214156000176,q,5.0,0.7809785000281408,1,+1,753,1.0006619072025238,0.008815310876656213,-0.062001716869369616,2607687.0,0.4527521234377666,0.1432012099699107,0.3171439637003157,2611220.0,,,,,2614.983610705025,2611.450610705025,
162,59,27,f,1,4,154.0,2,4,high,8 + 4 + 7 - 5 - 6,8,8,6,9,2624.838154900004,2626.863749600016,2628.379207800026,2633.3995366000454,2635.836218100041,2635.8362233000225,2637.352025500033,2638.369300600025,q,8.0,2.436681499995757,1,+10,763,-43.059697830067805,0.09541376480624475,0.47674528405419725,2621077.0,14.944302249106066,0.07312415003401451,0.252314509063861,2624613.0,,,,,2628.376610705025,2624.8406107050255,
163,59,27,f,1,4,155.0,3,1,high,3 + 1 + 8 + 1 + 1,14,13,14,16,2639.885577200039,2641.9096510000527,2643.4246588000096,2648.4425780000165,2649.3401079000323,2649.3401131000137,2650.856562400004,2651.873511600017,w,14.0,0.8975299000157975,1,+10,773,41.33375957032668,0.14881532091836114,0.3849424592268993,2636123.0,-11.42104622981175,0.028007698596484776,0.22813418746915826,2639656.0,,,,,2643.419610705025,2639.8866107050253,
164,59,27,f,1,4,156.0,4,2,high,6 + 1 + 7 + 5 - 1,18,18,17,16,2653.3905531000346,2655.4178386999997,2656.9329708000296,2661.951945800043,2662.788079800026,2662.788084800006,2664.304549799999,2665.3217685000272,q,18.0,0.8361339999828488,1,+10,783,3.7784841904033186,0.252599430506804,-0.2565978279605874,2649631.0,-0.9575424899961325,0.07834124170665735,0.004476315122551533,2653165.0,,,,,2656.928610705025,2653.394610705025,
165,59,27,f,1,4,157.0,5,1,low,9 + 7 + 1 + 1 + 1,19,20,18,19,2666.8386879000464,2668.866239800001,2670.381268199999,2675.399206500035,2676.236142800015,2676.2361480000545,2677.7521374000357,2678.7688404000364,e,19.0,0.8369362999801524,1,+1,784,-18.6190137679927,0.19667804793812538,0.5350471557400507,2663080.0,6.069577298508113,0.11323087485163752,0.4521586134925877,2666612.0,,,,,2670.3756107050253,2666.843610705025,
166,59,27,f,1,4,158.0,6,2,low,9 + 6 + 1 + 7 + 1,24,24,23,25,2680.285481000028,2682.3120708000497,2683.827191200049,2688.84505470004,2689.7721132000443,2689.7721184000256,2691.2885368000134,2692.3056738000014,q,24.0,0.9270585000049324,1,+1,785,11.393712039377336,-0.007009344523811745,0.011628850782348543,2676525.0,0.16523752149711268,0.005601367577915628,-0.05952047156230433,2680058.0,,,,,2683.8216107050253,2680.2886107050253,
167,59,27,f,1,4,159.0,7,4,high,9 + 3 - 5 + 8 + 6,21,21,19,23,2693.822009299998,2695.8509045000537,2697.365779500047,2702.384040300036,2704.4760409000446,2704.4760459000245,2705.992550200026,2707.009691100044,e,23.0,2.09200060000876,0,+0,785,-11.986893324774652,0.06096267256000498,0.4119078857348244,2690064.0,6.41065933029156,0.1549481078640791,0.1597459530954497,2693597.0,,,,,2697.3606107050255,2693.827610705025,
168,59,27,f,1,4,160.0,8,4,low,7 + 8 - 4 + 6 - 5,12,12,13,11,2708.526719700021,2710.5524089000537,2712.066938700038,2717.085340800055,2717.940057600033,2717.940062700014,2719.457124800014,2720.4744655000395,q,12.0,0.8547167999786325,1,+1,786,-4.693508571313204,-0.023955487382184337,-0.08294201815099678,2704766.0,26.292275260862812,0.22307947915874404,-0.12849350649673674,2708298.0,,,,,2712.061610705025,2708.5296107050253,
169,59,27,f,1,4,161.0,9,2,high,8 + 1 + 9 + 1 - 4,15,15,14,16,2721.9908821000136,2724.0170528000453,2725.5321252000285,2730.550052100036,2735.228068299999,2735.228073400038,2736.7447789,2737.762212200032,q,15.0,4.678016199963167,1,+10,796,-7.923710822731384,0.13106144698759792,0.02618215343157182,2718230.0,-3.871223696440259,0.24229458895234934,0.26111935221761806,2721763.0,,,,,2725.526610705025,2721.9936107050253,
170,59,27,f,1,4,162.0,10,2,low,7 + 8 + 1 + 9 + 1,26,25,26,24,2739.278950900014,2741.304961900052,2742.8200996000087,2747.840037100017,2748.7880617000046,2748.788067000045,2750.3044673000118,2751.3217207000125,w,26.0,0.9480245999875478,1,+1,797,-10.945927708181497,-0.14324558498646756,0.21769240488713448,2735518.0,7.894501594367732,0.04141405991493441,0.22437740000546036,2739053.0,,,,,2742.816610705025,2739.2816107050253,
171,59,27,f,1,4,163.0,11,2,low,4 + 9 + 1 - 7 - 1,6,6,8,5,2752.8383957000333,2754.863858800032,2756.378792000003,2761.397121100046,2762.1400142000057,2762.1400193000445,2763.656632700004,2764.6735788000515,q,6.0,0.7428930999594741,1,+1,798,12.05301789643417,-0.01677712001499776,-0.17644613086980865,2749077.0,-11.333832758096015,-0.02403882007322178,0.20139784567232288,2752610.0,,,,,2756.3736107050254,2752.8406107050255,
172,59,27,f,1,4,164.0,12,3,low,6 - 1 + 7 - 8 + 9,13,13,12,11,2766.1903680000105,2768.2162231000257,2769.731399200042,2774.750154600013,2775.79603040003,2775.7960360000143,2777.312449600024,2778.329730199999,q,13.0,1.0458758000168018,1,+1,799,12.543195129468216,-0.047157216786960277,0.24856766882709724,2762430.0,-36.21945324636635,0.04803637788455983,0.05997707854650125,2765963.0,,,,,2769.7266107050255,2766.193610705025,
173,59,27,f,1,4,165.0,13,4,high,6 + 5 - 7 + 8 - 9,3,3,5,4,2779.846283700026,2781.870758000005,2783.385927000025,2788.4043730000267,2790.083930600027,2790.0839371000184,2791.600496900035,2792.617502900015,q,3.0,1.6795576000004075,1,+10,809,23.956950703652318,-0.10926879277104273,0.04684021242048875,2776084.0,-13.645196595482027,0.19046783813397106,0.01078418730814601,2779617.0,,,,,2783.3806107050254,2779.847610705025,
174,59,27,f,1,4,166.0,14,1,high,5 + 8 - 1 + 1 + 1,14,12,14,16,2794.134194500046,2796.1603693000507,2797.6761117000133,2802.6942732000025,2803.5479913000017,2803.5479969000444,2805.064310000045,2806.0815761000267,w,14.0,0.8537180999992415,1,+10,819,26.00939636256434,0.5357467312501778,0.42785274783260396,2790373.0,-12.971387913472052,-0.13404751274208904,-0.16201252953092782,2793907.0,,,,,2797.6706107050254,2794.1366107050253,
175,59,27,f,1,4,167.0,15,4,high,5 + 8 - 4 - 6 + 9,12,12,13,14,2807.598012100032,2809.624759600032,2811.1399253000272,2816.158058400033,2818.8519275000435,2818.851932700025,2820.3683731000056,2821.3860379000544,q,12.0,2.693869100010488,1,+10,829,-0.0753650143825162,-0.34911058488807223,-0.3717305906693795,2803838.0,22.625345916840345,0.1476332228611068,0.10574177814469987,2807371.0,,,,,2811.1346107050254,2807.6016107050255,
176,59,27,f,1,4,168.0,16,4,high,2 + 9 - 6 + 8 - 4,9,11,7,9,2822.9030202000285,2824.928429600026,2826.444036100001,2831.4627975000185,2832.2839953000075,2832.284000500047,2833.800464800035,2834.8175941000227,e,9.0,0.8211977999890223,1,+10,839,1.6670012985965101,-0.62617977049009,-0.24766987106818572,2819141.0,9.714762872018468,0.2798645715185213,0.0440132610758277,2822675.0,,,,,2826.4386107050254,2822.9046107050253,
177,59,27,f,1,4,169.0,17,1,high,8 + 1 + 1 + 1 - 3,8,9,6,8,2836.3341804000083,2838.3597752000205,2839.8749295000453,2844.892794400046,2845.787902800017,2845.787908099999,2847.3042711000307,2848.321613000008,e,8.0,0.8951083999709226,1,+10,849,9.593800911569664,-0.2504086727306607,0.17019168281097152,2832573.0,-8.12443279848187,-0.2615210502490548,0.10492086885533158,2836105.0,,,,,2839.8686107050253,2836.336610705025,
178,59,27,f,1,4,170.0,18,4,high,7 + 8 - 4 + 6 + 5,22,23,22,21,2849.8383898000466,2851.864300700021,2853.380069900013,2858.398005600029,2859.3558763000183,2859.355881100055,2860.872207100037,2861.889978500025,w,22.0,0.9578706999891438,1,+10,859,-0.9685582913423012,-0.02395483398805931,0.10776963779578685,2846077.0,-23.09443957899989,-0.028889166429601598,0.03512460687267405,2849611.0,,,,,2853.374610705025,2849.8406107050255,
179,59,27,f,1,4,171.0,19,3,high,7 - 1 + 8 - 6 + 4,12,11,12,13,2863.4066705000005,2865.4328403000254,2866.947960700025,2871.9664280000143,2872.683824100008,2872.683829100046,2874.19981630001,2875.216880800028,w,12.0,0.7173960999934934,1,+10,869,14.177434400978592,0.03037236237247054,0.05335469980551988,2859645.0,-10.530834649429286,-0.09259340580437181,0.05631185982483,2863179.0,,,,,2866.9426107050253,2863.4086107050252,
180,59,27,f,1,4,172.0,20,4,high,9 + 7 - 5 + 8 + 6,25,25,24,27,2876.7333671000088,2878.7603565000463,2880.275448600005,2885.2940886000288,2886.067921000009,2886.06792640005,2887.584102599998,2888.601153500029,q,25.0,0.7738323999801651,1,+10,879,9.168786123689234,0.1949212812491794,-0.011705000976066415,2872972.0,12.279775302720797,0.05922309843491025,-0.02672035569724107,2876506.0,,,,,2880.269610705025,2876.7356107050255,
181,59,27,f,1,4,173.0,21,2,high,2 + 9 - 4 + 1 + 1,9,8,9,11,2890.1179570000386,2892.1455385000445,2893.6606144000543,2898.6791849000147,2899.483883500041,2899.4838899000315,2901.0003208999988,2902.0174573000404,w,9.0,0.8046986000263132,1,+10,889,21.940153522673917,-0.4656279700226942,0.20712909487214115,2886358.0,13.672680927965114,0.07165167273287132,-0.013432631110960935,2889891.0,,,,,2893.6546107050253,2890.1216107050254,
182,59,27,f,1,4,174.0,22,3,high,4 + 7 - 3 + 5 - 1,12,12,11,13,2903.534421600052,2905.560735200008,2907.0764640000416,2912.095743300044,2912.9878171000164,2912.9878222000552,2914.504142900056,2915.521719500015,q,12.0,0.8920737999724224,1,+10,899,5.724328771582124,-0.12104509359862003,-0.11340103803651647,2899773.0,-38.594800994021455,0.1869728568773592,0.15655154320524334,2903309.0,,,,,2907.0726107050255,2903.5366107050254,
183,59,27,f,1,4,175.0,23,3,low,5 + 1 + 7 - 8 + 6,11,11,13,9,2917.0381521000527,2919.0626251000213,2920.577822000021,2925.596957200032,2926.2997733000084,2926.2997782000457,2927.816043600033,2928.8328711000504,q,11.0,0.7028160999761894,1,+1,900,11.842307421267458,0.02226679750753835,-0.37249728872606824,2913275.0,17.348206428737758,-0.16918764800465658,0.005093269520855204,2916809.0,,,,,2920.5726107050255,2917.0386107050253,
184,59,27,f,1,4,176.0,24,4,high,2 + 9 - 4 + 8 + 7,22,23,22,21,2930.34949350002,2932.376451100048,2933.8922988999984,2938.91062780004,2939.883882300055,2939.883887700038,2941.400164200051,2942.4181225000066,w,22.0,0.9732545000151732,1,+10,910,13.365259109836757,0.0859998146182166,-0.05671694785110759,2926589.0,30.750335264659203,-0.011970569606591042,-0.1318865816367658,2930123.0,,,,,2933.8866107050253,2930.352610705025,
185,59,27,f,1,4,177.0,25,1,high,6 + 1 + 1 + 9 - 1,16,15,14,16,2943.935619200056,2945.961879200011,2947.477005599998,2952.494772700011,2953.275777700008,2953.27579460002,2954.7926828000345,2955.809987100016,e,16.0,0.7810049999970943,1,+10,920,24.096618508176604,0.04970121524922133,0.027426321790827046,2940174.0,11.380535944400698,-0.022122537657700114,-0.08290867763363385,2943707.0,,,,,2947.470610705025,2943.9376107050252,
186,59,27,f,1,4,178.0,26,1,low,6 + 1 + 8 + 1 - 1,15,14,15,13,2957.326455100032,2959.3509339000448,2960.8660940000555,2965.8850463000126,2966.603787900007,2966.6037927000434,2968.120443700056,2969.137276100053,w,15.0,0.7187415999942459,1,+1,921,-44.59362372045979,0.3080095253177739,-4.904751744413083,2953562.0,61.89971620124071,-0.06491283294771755,-0.032786380446068186,2957097.0,,,,,2960.8606107050255,2957.325610705025,
187,59,27,f,1,4,179.0,27,3,high,2 + 1 + 9 - 4 + 6,14,16,15,14,2970.653934400005,2972.681105100026,2974.196255500021,2979.2142329000053,2980.107796800032,2980.107801800012,2981.6237800000235,2982.641039000009,e,14.0,0.8935639000264928,1,+10,931,-38.27629241676816,0.061269655348922036,0.029387666576772054,2966893.0,-26.38789657203391,0.048500487702620276,0.04472364957403485,2970426.0,,,,,2974.189610705025,2970.6566107050253,
188,59,27,f,1,4,180.0,28,1,high,2 + 9 + 1 + 1 + 1,14,13,12,14,2984.1576792999986,2986.181370900013,2987.69727600005,2992.715949900041,2993.4197423000005,2993.4197477000416,2994.9359132000245,2995.953142800019,e,14.0,0.7037923999596387,1,+10,941,10.091232229900607,-0.09266614824153763,0.022761239032865976,2980393.0,6.377348183439018,0.0038888487317771947,0.10210354719754977,2983927.0,,,,,2987.6906107050254,2984.1566107050253,
189,59,27,f,1,4,181.0,29,1,high,8 + 1 + 1 + 1 - 4,7,8,5,7,2997.4699219000177,2999.4927059000474,3001.008015700034,3006.0260200000484,3006.6677123000263,3006.667717400007,3008.1840555000235,3009.201218400034,e,7.0,0.6416922999778762,1,+10,951,7.724061668358136,0.1847534054293738,-0.006971689579298612,2993705.0,27.76625418378624,0.18767178559626174,0.24485752988222442,2997238.0,,,,,3001.001610705025,2997.468610705025,
190,59,27,f,1,4,182.0,30,3,high,4 + 8 - 3 + 5 - 1,13,12,13,14,3010.7179363000323,3012.744072700036,3014.2598810000345,3019.278320600046,3020.035729299998,3020.035734300036,3021.552289000014,3022.56951510004,w,13.0,0.757408699952066,1,+10,961,2.999209330441582,0.07991509668040031,0.03641520347848615,3006956.0,22.10091267313669,0.11467577827903641,-0.013354931093677358,3010490.0,,,,,3014.253610705025,3010.7196107050254,
191,59,27,f,1,4,183.0,31,1,low,7 - 1 + 8 + 1 - 1,14,12,13,14,3024.086275400012,3026.1129543000134,3027.62901220005,3032.649966900004,3033.443763600022,3033.4437688000035,3034.9600067000138,3035.976832500018,e,14.0,0.7937967000179924,1,+1,962,22.994356957540532,0.014901992943369802,0.15405637809029682,3020325.0,-12.385726511080055,-0.05639147116060972,-0.03758620671375956,3023861.0,,,,,3027.624610705025,3024.088610705025,
192,59,27,f,1,4,184.0,32,4,low,3 + 8 - 5 + 9 - 7,8,6,8,7,3037.4934697000426,3039.5211145000067,3041.035977200023,3046.055038000049,3046.835743600037,3046.8357488000183,3048.352370600041,3049.3692534000147,w,8.0,0.7807055999874137,1,+1,963,-6.496165218628272,0.13279711793457016,-0.2863857317466081,3033733.0,-4.99144146537404,0.15918946306323178,0.03134574428607495,3037267.0,,,,,3041.030610705025,3037.4966107050254,
193,59,27,f,1,4,185.0,33,4,low,2 + 5 - 3 + 9 + 8,21,22,19,21,3050.88589710003,3052.907806000032,3054.422947500017,3059.441425700032,3060.003671500017,3060.0036770000006,3061.5202043000027,3062.5369767000084,e,21.0,0.5622457999852486,1,+1,964,-44.7183178672265,-0.10308365104968509,-0.048868504025560755,3047119.0,27.84038498080726,0.11168681315357887,0.041859437128595856,3050653.0,,,,,3054.416610705025,3050.8826107050254,
194,59,27,f,1,4,186.0,34,3,low,2 - 4 + 9 + 7 + 1,15,13,15,16,3064.054212900053,3066.0818622000515,3067.596925500024,3072.6150524000404,3073.3077293000533,3073.3077345000347,3074.8240264000488,3075.8409168000217,w,15.0,0.6926769000128843,1,+1,965,-7.7409437822059335,0.18719841861519937,-0.009958180399548322,3060293.0,9.107535069627769,0.21299138585487531,0.05783728874738703,3063827.0,,,,,3067.5906107050255,3064.0566107050254,
195,59,27,f,1,4,187.0,35,2,low,5 + 7 - 8 + 1 + 1,6,6,7,8,3077.357714300044,3079.382906200015,3080.8988978000125,3085.918064600032,3086.611715100007,3086.611720500048,3088.128073700005,3089.144928599999,q,6.0,0.6936504999757744,1,+1,966,-2.3516311312818168,0.08780887948784644,0.029508913638299994,3073594.0,-8.492255297326011,-0.07326130428806898,-0.11867409951882246,3077129.0,,,,,3080.892610705025,3077.3576107050253,
196,59,27,f,1,4,188.0,36,2,high,4 + 8 + 1 + 1 - 5,9,8,9,11,3090.661508100049,3092.6879495000467,3094.20281550003,3099.2218765,3099.9956614000257,3099.995666600007,3101.512746500026,3102.530134400004,w,9.0,0.7737849000259303,1,+10,976,12.021192636012126,-0.2848999625282569,-0.04559188420163829,3086900.0,21.801238651706317,0.13975662875815553,0.0579369300734589,3090433.0,,,,,3094.1966107050253,3090.6636107050253,
197,59,27,f,1,4,189.0,37,3,high,8 + 3 + 1 - 7 + 9,14,12,15,14,3104.0464604000445,3106.0717600000207,3107.5868464000523,3112.6070725000463,3113.2916118000285,3113.29161700001,3114.8078432000475,3115.824910300027,e,14.0,0.6845392999821343,1,+10,986,-28.742154691830144,0.22909701414652028,0.1198634568507464,3100283.0,14.696296050061786,0.04837869475571166,-0.0561988449152615,3103819.0,,,,,3107.582610705025,3104.046610705025,
198,59,27,f,1,5,190.0,0,3,low,2 + 9 + 1 - 5 + 7,14,15,14,12,3141.2154882000177,3143.24048940005,3144.755641399999,3149.7753306000377,3150.5476084000547,3150.547613300034,3152.063907100004,3153.080723100051,w,14.0,0.7722778000170365,1,+1,987,-17.461358959514893,-0.17650070887716307,-0.6717882188741977,3137452.0,14.936099316476165,0.18366479567071092,0.13208033599876945,3140987.0,,,,,3144.7506107050253,3141.2156107050255,
199,59,27,f,1,5,191.0,1,1,low,7 - 1 + 9 + 1 - 1,15,13,14,15,3154.597196800052,3156.6244018000434,3158.139461300045,3163.157892700052,3163.9876497000223,3163.9876550000045,3165.503805400047,3166.5204502000124,e,15.0,0.8297569999704137,1,+1,988,3.064741350816366,1.3360216451075217,0.5497144355400714,3150836.0,-4.688069043507639,-0.3079529540383037,-0.3332213473631911,3154369.0,,,,,3158.1326107050254,3154.599610705025,
