,id,age,sex,cued,block,trial,trialinblock,efflev,rewlev,calc,corAns,option1,option2,option3,tstart,ITI1Time,probTime,respTime,selectTime,ITI2Time,fbTime,ITI3Time,key_press,chosenAns,RT,acc,feedback,total_points,cuescr,cuecor,cuezyg,cuetime,probscr,probcor,probzyg,probtime,fbscr,fbcor,fbzyg,fbtime,probtime_c,cuetime_c,fbtime_c
0,5,22,f,0,Practice,,0,1,0,4 + 1 + 9 + 1 + 1,16,16,14,15,89.52950250002323,,89.52950470003998,94.55738070001826,96.885382700013,96.88538910000352,98.40242260001833,99.42350800003624,q,16,2.32800199999474,1,Correct,0,,,,,-4.996797893213453,0.43365314189200754,-0.5481030574864623,65520.0,11.895147676429334,0.028896778542350177,-0.006122721841177237,74386.0,89.54627861351592,,98.41227861351592
1,5,22,f,0,Practice,,1,1,0,3 + 1 + 1 + 8 - 1,12,10,12,11,100.94036220002454,,100.94036519998916,105.96171270002378,108.73355360003188,108.73356060002698,110.25035119999666,111.269694800023,e,11,2.771840900008101,0,Incorrect,0,,,,,6.974220283216079,-0.16198859966536272,0.03409981550744012,76925.0,9.47305308097516,0.0343223068214451,0.15045003766989895,86233.0,100.95127861351592,,110.25927861351593
2,5,22,f,0,Practice,,2,2,0,8 + 1 + 6 + 1 - 4,12,12,10,11,112.787242099992,,112.78724760003388,117.80692530004308,118.46935170004144,118.4693580000312,119.98653180000838,121.0044920000364,q,12,0.6624263999983668,1,Correct,0,,,,,-6.76095554310206,-0.2679355380723365,-0.16661022351495514,88770.0,9.407093529885628,0.03368344790734401,-0.02377364945952487,95967.0,112.79627861351592,,119.99327861351593
3,5,22,f,0,Practice,,3,2,0,9 + 4 - 6 + 1 - 1,7,6,5,7,122.52169449999928,,122.52169770002364,127.54198370000812,128.85337430000072,128.8533805999905,130.36969160003355,131.38670370000182,e,7,1.311390599992592,1,Correct,0,,,,,-10.712811480131553,-0.20497065752169696,0.07742540301561252,98505.0,27.734718561825144,0.04793751397433832,-0.08553108496590323,106350.0,122.53127861351592,,130.37627861351592
4,5,22,f,0,Practice,,4,3,0,9 + 3 - 5 + 6 + 7,20,21,20,22,132.90349420002894,,132.90349709999282,137.92264050000813,138.7093928999966,138.7093991000438,140.22581020003418,141.2428638000274,w,20,0.7867523999884725,1,Correct,0,,,,,-16.598676476829,0.17219566550213328,0.030490345226972693,108885.0,11.35812141067885,-0.2566027920553875,-0.13688336663633427,116206.0,132.91127861351592,,140.23227861351592
5,5,22,f,0,Practice,,5,3,0,2 + 1 + 9 - 7 + 6,11,10,11,9,142.75939760002075,,142.75940050004283,147.77832620003028,148.6535886999918,148.65359490003902,150.17028429999482,151.18808970000828,w,11,0.8752624999615364,1,Correct,0,,,,,-4.95186958722317,-0.00699056672477516,-0.24043733348363072,118741.0,-41.61630480050477,-0.2318748424944017,0.2518653030216078,126151.0,142.7672786135159,,150.1772786135159
6,5,22,f,0,Practice,,6,4,0,4 + 8 + 5 - 3 + 7,21,22,21,23,152.7047506000381,,152.70475360000273,157.7256425000378,158.25341569999,158.25342250004178,159.7704095999943,160.78875080001308,w,21,0.5277731999522075,1,Correct,0,,,,,-1.3061384786199124,0.14826858054934133,-0.17561282572250092,128688.0,39.949991238452114,-0.14644972950607205,-0.08689025730493483,135752.0,152.71427861351592,,159.77827861351594
7,5,22,f,0,Practice,,7,4,0,5 + 8 - 4 + 6 + 9,24,22,24,23,162.3055663999985,,162.30556920001982,167.32512900000438,168.42961940000532,168.42962599999737,169.9464698000229,170.96443870000076,e,23,1.104490400000941,0,Incorrect,0,,,,,5.822973064917186,0.1118263923993772,-0.2084909055240045,138288.0,27.9762081979315,-0.4577434994563565,-0.13877721424136413,145927.0,162.31427861351594,,169.95327861351592
8,5,22,f,1,0,0.0,0,2,low,6 + 1 + 1 + 7 - 9,6,4,8,6,338.66734970000107,340.69562519999454,342.2108242000104,347.2296629000339,348.731302900007,348.7313084999914,350.2478043999872,351.2647214999888,e,6,1.501639999973122,1,+1,1,-0.573831338855392,1.1139032933627033,-0.7564197969292517,314657.0,-5.772647594123949,0.6148510628806592,1.0482386670852133,318191.0,-23.007819112914945,-0.21903984531863596,0.12576358321266934,396978.0,342.2172786135159,338.6832786135159,421.0042786135159
9,5,22,f,1,0,1.0,1,1,high,3 + 1 + 8 + 1 + 1,14,14,12,13,352.78138910001144,354.80639990000054,356.3214498999878,361.3405587000306,362.075265099993,362.07527030003257,363.5917704000021,364.608764900011,q,14,0.734706399962306,1,+10,11,4.875062226986358,0.043272867113464786,0.11012155387106204,328768.0,-13.99032444234558,-0.0583020814300621,0.050746481160554247,332302.0,5.232748749093612,-0.11710886535275211,-0.412759428482786,1073616.0,356.3282786135159,352.79427861351587,1097.6422786135158
10,5,22,f,1,0,2.0,2,3,low,7 + 5 + 9 + 1 - 6,16,15,14,16,366.1257068000268,368.1526351000066,369.6680508000427,374.6863976999885,376.7553235000232,376.7553289000061,378.2716556999949,379.28894900000887,w,14,2.0689258000347763,0,+0,11,11.873827895512715,4.124396250358412,1.7059169340377602,342114.0,10.20810487255947,4.950222700756294,2.8100901384153842,345648.0,4.009213156713024,-0.15627909252885575,-0.0004505267563774673,354251.0,369.6742786135159,366.1402786135159,378.2772786135159
11,5,22,f,1,0,3.0,3,2,high,9 + 5 - 6 + 1 - 1,8,8,7,9,380.80565290001687,382.8316833000281,384.3467515000375,389.3648504000157,390.1712762000389,390.1712820000248,391.6875932000112,392.7047169000143,q,8,0.8064258000231348,1,+10,21,21.636217900997067,0.9585360886251908,-0.11347985683402162,356794.0,9.510107284985247,0.7540290690746085,-0.21161216157033702,360326.0,18.986936389409145,-0.007226956235314885,-0.0904953604905232,411283.0,384.3522786135159,380.8202786135159,435.3092786135159
12,5,22,f,1,0,4.0,4,4,high,6 + 7 + 9 - 3 + 5,24,22,23,24,394.22218059998704,396.2500636000186,397.7652486999869,402.7857159000123,404.3632647999912,404.3632702000323,405.87968640000327,406.89665190002415,q,22,1.577548899978865,0,+0,21,-26.770985598928057,0.9381663641713867,0.008075869210978581,370212.0,-22.659708741101426,0.7446424654234793,0.1504040597131362,373747.0,-17.747559193432345,-0.17657791637026765,-0.03698527405805119,381858.0,397.7732786135159,394.2382786135159,405.8842786135159
13,5,22,f,1,0,5.0,5,2,low,5 + 8 + 1 - 1 + 9,22,21,22,23,408.41258950001793,410.4407965000137,411.9559728000313,416.97495649999473,419.4832418000442,419.48324740002863,420.999693699996,422.01690869999584,e,23,2.508285300049465,0,+0,21,-0.7185839876895574,0.7864666888490479,-0.0904026210636395,384402.0,13.289612730812244,0.6917016955291282,-0.16538304749472332,387936.0,20.09740888219607,0.5071935195483019,0.25824268299062103,704785.0,411.9622786135159,408.4282786135159,728.8112786135159
14,5,22,f,1,0,6.0,6,2,high,2 + 1 + 9 - 4 + 1,9,11,8,9,423.5336365000112,425.56016510003246,427.0761128999875,432.0944100000197,433.7873396000359,433.7873460000265,435.3038283000351,436.32132109999657,q,11,1.692929600016214,0,+0,21,12.462202713880345,0.8074781746763271,-0.03502205295678573,399522.0,24.450037938743467,0.7895037023257194,-0.25418784483214796,403056.0,-26.290079586390025,-0.1451996116163683,-0.12337618315187959,975800.0,427.0822786135159,423.5482786135159,999.8262786135159
15,5,22,f,1,0,7.0,7,3,high,7 - 1 + 9 - 5 + 4,14,15,14,13,437.8380246000015,439.8626371000428,441.37763910001377,446.3975229000207,447.34731690003537,447.3473228000221,448.8637799000135,449.8804970000056,w,14,0.9497940000146629,1,+10,31,5.195940879114342,1.1257722608899636,0.5680178052486258,413824.0,-4.336110147640554,0.3778141698907582,-2.173798330924163,417359.0,-5.958109314233775,0.00641302224170448,0.25885797219097784,438994.0,441.3852786135159,437.8502786135159,463.0202786135159
16,5,22,f,1,0,8.0,8,3,low,8 + 4 + 1 - 7 + 9,15,13,16,15,451.39714630000526,453.421462600003,454.9364362999913,459.9544116000179,461.4993700000341,461.49937640002463,463.0161399000208,464.0332197000389,w,16,1.544958400016185,0,+0,31,27.641307090415825,1.0297418122868935,-0.026661180385410876,427383.0,4.2611727761788405,0.8314898253542489,-0.06876505725142668,430916.0,20.82667051461908,-0.11698348719722995,0.06784306246077287,467306.0,454.9422786135159,451.4092786135159,491.3322786135159
17,5,22,f,1,0,9.0,9,1,low,8 + 1 + 1 + 1 - 3,8,9,6,8,465.5499693999882,467.57677560002776,469.09187390003353,474.1095171000343,474.81930640002247,474.8193122000084,476.335508499993,477.35220070002833,e,8,0.7097892999881878,1,+1,32,16.03174223613617,-0.11011331868413854,0.004997205658950232,441538.0,-11.099899674401673,-0.007738043904092162,0.20769439863358707,445071.0,-58.38286314376349,0.20919773049796442,0.37022340527749376,1333711.0,469.0972786135159,465.5642786135159,1357.7372786135159
18,5,22,f,1,0,10.0,10,3,high,6 - 1 + 7 - 8 + 9,13,12,11,13,478.86888950003777,480.8962875000434,482.4115872000111,487.43051380000543,489.8113127000397,489.811318800028,491.3277494999929,492.34432610002114,w,11,2.380798900034278,0,+0,32,5.540109596880633,0.9233956629828992,0.08352296159853112,454858.0,-17.061180988772623,0.8898475915208335,0.09441075508220576,458392.0,-30.578534485896142,-0.23907812144052065,-0.27380010573317426,511931.0,482.4182786135159,478.8842786135159,535.9572786135159
19,5,22,f,1,0,11.0,11,4,low,4 + 7 + 8 - 3 + 9,25,24,25,26,493.8609224000247,495.8872209000401,497.4025558000431,502.42122260003816,505.403529800009,505.40353509999113,506.9200761000393,507.9369887000066,w,25,2.982307199970819,1,+1,33,9.668691380599817,1.0245382570159658,-0.37310043159924033,469848.0,19.662682933759147,0.8266418139324738,-0.031620214022426874,473382.0,30.181615728304532,0.041476895105239775,0.12318402904629444,676841.0,497.4082786135159,493.8742786135159,700.867278613516
20,5,22,f,1,0,12.0,12,3,low,5 + 6 + 7 - 1 - 9,8,8,9,7,509.45371680002427,511.4816933000111,512.9969955999986,518.0155952000059,519.7313909000368,519.7313968000235,521.2477045000414,522.2637687000097,q,8,1.715795700030867,1,+1,34,61.16218364773984,0.764561202757279,0.13609947215030993,485443.0,6.733016462148083,0.9181490495826925,0.4871683833509348,488977.0,-65.12319731863231,0.030605734556317765,-0.07691962997434043,850473.0,513.0032786135159,509.4692786135159,874.4992786135159
21,5,22,f,1,0,13.0,13,3,high,5 + 6 - 4 - 1 + 7,13,13,15,14,523.7805247000069,525.8050321000046,527.3201704000239,532.33890110004,534.4354480000329,534.4354539000196,535.9527447000146,536.969995899999,w,15,2.0965468999929726,0,+0,34,43.29612418512454,0.7914536938902397,0.12753113339444422,499766.0,14.588258472472162,0.9803836116174811,-0.7200065355745073,503300.0,-44.8967025130327,-0.10759005199265959,-0.6039003594201431,1017632.0,527.3262786135159,523.7922786135159,1041.658278613516
22,5,22,f,1,0,14.0,14,2,low,4 + 7 + 1 + 1 - 8,5,7,5,4,538.486418800021,540.5119970000233,542.0270817000419,547.0453837999958,548.0513727000216,548.0513781000045,549.568057299999,550.5848078000126,w,5,1.0059889000258408,1,+1,35,-20.96754422172782,1.0570520307933036,-0.45874081050385773,514473.0,1.5251766550010473,0.9113446911118208,-0.110893240265173,518006.0,-15.251895343344923,0.09121958011690268,-0.16334837511664113,1216511.0,542.0322786135159,538.4992786135159,1240.5372786135158
23,5,22,f,1,0,15.0,15,1,low,3 + 1 + 8 - 1 + 1,12,12,10,13,552.1021108000423,554.1298166000051,555.6450082000229,560.6633414000389,561.3713290999876,561.371334800031,562.8877073000185,563.9045500000357,q,12,0.7079876999487169,1,+1,36,-3.115263318444878,-0.032895747526608954,0.652895944304301,528091.0,-36.82424854990107,0.15684517826176614,0.09476373502826463,531624.0,14.60913247168624,-0.0354238559021125,0.05352438513847102,1759612.0,555.650278613516,552.117278613516,1783.638278613516
24,5,22,f,1,0,16.0,16,2,low,9 + 4 + 5 + 1 - 1,18,17,18,19,565.4209606000222,567.4484050000319,568.963399500004,573.9815892000333,574.6834196000127,574.6834252999979,576.1999038000358,577.2166704999981,w,18,0.7018303999793716,1,+1,37,-8.550351892569584,0.8588588671064843,0.3443275360260496,541409.0,-27.83323430580632,0.8402540204603683,0.07604095828726942,544942.0,24.149477043525543,-0.0017764660679921995,0.023425206940006493,1405934.0,568.968278613516,565.435278613516,1429.9602786135158
25,5,22,f,1,0,17.0,17,1,high,8 + 1 + 1 + 1 - 4,7,5,8,7,578.7334547000355,580.7612478000228,582.2763840000262,587.2944492000388,587.8193510000128,587.8193560999935,589.3358742000419,590.3528425000259,e,7,0.5249017999740317,1,+10,47,-17.543615460733054,-0.0711008566606326,0.040829479458385,554722.0,-14.376857019558786,0.012511723164557509,0.3122518246526942,558255.0,,,,,582.281278613516,578.7482786135159,
26,5,22,f,1,0,18.0,18,1,low,9 + 1 + 1 + 7 - 1,17,17,16,19,591.8696168999886,593.8965196000063,595.4113726000069,600.4298992000404,601.1953980000108,601.1954035999952,602.7117538999883,603.728643600014,q,17,0.7654987999703735,1,+1,48,-2.0157225209738225,-0.02408427237965527,0.28831702800911074,567856.0,-53.0056742413716,0.05062748243396742,-0.08846481750546764,571391.0,,,,,595.4172786135159,591.882278613516,
27,5,22,f,1,0,19.0,19,4,low,5 + 6 - 4 + 7 + 9,23,23,24,25,605.2462703000056,607.2740564999986,608.7895195999881,613.8080410000402,615.3154834000161,615.3154891000013,616.832069600001,617.8490102000069,q,23,1.5074423999758435,1,+1,49,-18.94060226307897,0.44265219897438524,-0.08593618022479177,581234.0,-24.09174951874535,0.9613561928737098,0.21225749952866746,584769.0,-4.1300948178305035,0.24765109404354013,0.42735821891969317,748234.0,608.795278613516,605.260278613516,772.260278613516
28,5,22,f,1,0,20.0,20,1,high,3 + 1 + 1 + 8 - 1,12,13,12,14,619.3656349999947,621.393767600006,622.908582700009,627.9267923000152,630.6514063000213,630.6514116000035,632.1678083000006,633.1850514000398,w,12,2.724614000006113,1,+10,59,5.148540102589715,0.028328385962914426,0.26669075451614765,595354.0,-46.752756205815466,-0.2188753145199689,0.06799911743149911,598887.0,,,,,622.9132786135159,619.380278613516,
29,5,22,f,1,0,21.0,21,2,high,4 + 8 + 1 + 1 - 5,9,11,8,9,634.702583300008,636.7276843000436,638.2428330000257,643.2610938000144,643.7554462000262,643.7554518000106,645.2718842999893,646.2895423000446,e,9,0.4943524000118486,1,+10,69,-8.871445905135538,0.8183874664779835,-0.6415801636390561,610688.0,25.548656134499165,0.6294714535608397,-0.15122204696043728,614221.0,-51.249969290871206,0.18205455194456244,0.01885571054703039,1559605.0,638.247278613516,634.714278613516,1583.6312786135159
30,5,22,f,1,0,22.0,22,2,high,4 + 8 + 1 + 1 - 6,8,9,8,7,647.8062397000031,649.8298916000058,651.344787500042,656.3626423000242,657.7314357000287,657.7314414000139,659.2478780000238,660.2652138000121,w,8,1.368793400004506,1,+10,79,-26.698060312846454,0.9585442063657443,0.07525997341947654,623791.0,32.29390391447951,0.9678315853451092,0.03683431269503146,627323.0,1.9146190864633752,0.836556271313512,1.1136828589793306,1806140.0,651.3492786135159,647.817278613516,1830.166278613516
31,5,22,f,1,0,23.0,23,2,low,8 + 1 + 9 + 1 - 4,15,16,15,14,661.7819856000133,663.8100473000086,665.325140400033,670.3434996000142,670.8833851999952,670.8833908000379,672.399643300043,673.4168425000389,w,15,0.5398855999810621,1,+1,80,-26.785230089075913,0.9284046378078732,0.04089061137993921,637771.0,-4.755785328033223,0.8971832369330439,0.16223580321854558,641304.0,-2.9483003344446193,0.1397989310728669,0.11380260527849617,2263394.0,665.3302786135159,661.7972786135159,2287.4202786135156
32,5,22,f,1,0,24.0,24,2,low,4 + 9 - 7 + 1 - 1,6,8,5,6,674.9335236999905,676.9588140000124,678.4739251999999,683.4926926000044,684.5874359000009,684.5874410000397,686.1037437000195,687.1208075000322,e,6,1.0947432999964803,1,+1,81,5.821975768957914,0.9781529797701747,-0.023498947302182494,650919.0,-37.99292177252716,0.8575553008045389,0.002859449846160267,654453.0,-35.85306195326139,0.0161668585378143,0.1346498291587297,2842462.0,678.4792786135159,674.9452786135159,2866.488278613516
33,5,22,f,1,0,25.0,25,4,low,8 + 7 - 4 + 5 + 9,25,25,26,24,688.637547100021,690.6626356000197,692.1772023999947,697.1958096000017,699.3475320000434,699.3475376000279,700.8639195000287,701.8810065000434,w,26,2.1517224000417627,0,+0,81,17.426855721570007,0.9703470942316994,0.0555639042894045,664623.0,-0.9850509251682826,1.0516080458633033,0.3499983403062399,668156.0,23.866105474414063,-0.029783670885378033,0.046326820946045455,776649.0,692.1822786135159,688.649278613516,800.675278613516
34,5,22,f,1,0,26.0,26,3,low,4 + 1 + 8 + 9 - 5,17,18,19,17,703.3975928000291,705.4262871000101,706.9414830000023,711.959642300033,712.7554437000072,712.7554493999924,714.2722461000085,715.2886951999972,e,17,0.7958013999741524,1,+1,82,22.54181289646786,0.9947895540819018,0.05331441871065512,679386.0,-11.770184232229553,1.0323927345011445,0.4740499462839354,682920.0,22.155566129303924,3.156668047958836,0.3480905001884955,1159295.0,706.9462786135159,703.4122786135159,1183.321278613516
35,5,22,f,1,0,27.0,27,2,high,6 + 8 + 1 + 1 - 7,9,11,8,9,716.8053104000282,718.8338004000252,720.3490806000191,725.3673942000023,727.2913876000093,727.2913927999907,728.8079053999973,729.825118000037,q,11,1.923993400007021,0,+0,82,42.720102169861114,0.05918227550388799,-0.42713842200346086,692793.0,-37.99420003566847,5.3144165330155255,3.399481253279546,696327.0,,,,,720.353278613516,716.819278613516,
36,5,22,f,1,0,28.0,28,4,high,8 + 4 + 7 - 5 - 6,8,6,8,9,731.3413871999946,733.3681593000074,734.8830784999882,739.9028159000445,742.323459700041,742.3234650000231,743.8398031000397,744.8569403000292,w,8,2.420643799996469,1,+10,92,4.224117781333611,0.5896346454847485,-0.4378221751868354,707328.0,-10.7518011866767,0.6633878721201576,0.07554055302803953,710862.0,-12.712446456275234,-0.030607863840875105,-0.1709327189860168,808409.0,734.8882786135159,731.3542786135159,832.435278613516
37,5,22,f,1,0,29.0,29,1,high,2 + 1 + 9 + 1 + 1,14,12,14,13,746.3737292000442,748.3981427000253,749.9133505999926,754.9311640000087,755.4674790000427,755.4674847000279,756.9842285999912,758.0016639000387,w,14,0.5363150000339374,1,+10,102,9.178868210899697,0.09391714961588615,0.08454031289743136,722358.0,-20.010684401813116,-0.13153958135488608,0.005382229967962449,725891.0,,,,,749.9172786135159,746.3842786135159,
38,5,22,f,1,0,30.0,30,4,low,7 + 6 - 9 + 8 - 3,9,7,9,8,759.5180150000378,761.546094099991,763.0612060000421,768.0800182000385,770.7394897000049,770.7394950999878,772.2566755000153,773.2739572999999,q,7,2.659471499966457,0,+0,102,-15.167734791276562,0.6383372205311364,-0.47028646412707564,735506.0,-42.39203779927333,0.7099223963613774,0.1840891631289725,739040.0,14.071068090810584,-0.03100543392807631,0.6807530852189001,947568.0,763.0662786135159,759.5322786135159,971.5942786135159
39,5,22,f,1,0,31.0,31,1,low,3 + 1 + 9 + 1 - 1,13,14,12,13,774.7907576000434,776.8177892999956,778.3326938000391,783.3505389000056,784.0435011000372,784.0435064000194,785.5598150000442,786.5767636999954,e,13,0.6929622000316158,1,+1,103,-5.481666842306812,-0.09669684385279687,0.30729891429705614,750777.0,20.294922919893768,-0.18480283710728496,0.4617540911357465,754310.0,,,,,778.3362786135159,774.803278613516,
40,5,22,f,1,0,32.0,32,4,low,3 + 9 - 5 + 6 + 8,21,21,23,22,788.0930582000292,790.1194848000305,791.6346782000037,796.6527474999893,799.1555793000152,799.155585200002,800.6721593000111,801.6891274999944,e,22,2.502831800025888,0,+0,103,10.658175491613733,0.9681234988634178,-0.10911583355283638,764079.0,-0.1087298325448458,0.908430784867293,-0.09977268767499536,767612.0,-52.9717139249212,-0.09815719720156224,0.013605989720112843,1289415.0,791.6382786135159,788.1052786135159,1313.4412786135158
41,5,22,f,1,0,33.0,33,4,low,4 + 7 + 9 - 5 + 7,22,23,24,22,803.2060854000156,805.2309396000346,806.7461754000396,811.7646576000261,815.1395647000172,815.1395702000009,816.6557053000433,817.672194200044,e,22,3.374907099991105,1,+1,104,-4.6646949632384285,0.8922872981554997,0.2351577583372355,779191.0,18.00188040801619,1.0344567992739349,0.1677494134585824,782724.0,-4.147718233911835,0.027147425967881222,-0.048245770585096714,1472382.0,806.750278613516,803.217278613516,1496.408278613516
42,5,22,f,1,0,34.0,34,4,high,7 + 8 - 4 + 6 + 5,22,22,21,23,819.188822199998,821.2146774000139,822.7299439000199,827.7495341000031,830.9155167000135,830.9155219999957,832.431874300004,833.4489748000051,e,23,3.165982600010466,0,+0,104,-14.167239329336445,0.5083743129150857,-0.4267495170844331,795174.0,10.740035721000943,0.8452820540404427,0.044950222851140254,798709.0,3.2447146787411683,-0.12884996826979678,-3.264019849879751,1592573.0,822.7352786135159,819.2002786135159,1616.599278613516
43,5,22,f,1,0,35.0,35,1,high,7 + 1 + 4 + 1 - 1,12,13,12,14,834.9656963000307,836.990623300022,838.5054894000059,843.523462800018,844.0115380000207,844.0115431000013,845.5279626999982,846.5457727999892,w,12,0.4880752000026405,1,+10,114,-0.7288462962316,0.15517800965202233,-0.0944392501272806,810950.0,-1.192539207775912,-0.030127102424601038,0.02194753509498315,814483.0,,,,,838.5092786135159,834.976278613516,
44,5,22,f,1,0,36.0,36,1,low,9 + 7 + 1 + 1 + 1,19,19,20,18,848.0624701000052,850.0890701999888,851.6042193000321,856.6221833000309,857.7556445000228,857.7556508000125,859.2721265000291,860.2888998000417,q,19,1.133461199991871,1,+1,115,13.700620678675406,0.07043828327763024,-0.1104593431837868,824048.0,-1.7305500509694287,-0.10329327106479891,0.5899798153998483,827582.0,,,,,851.608278613516,848.074278613516,
45,5,22,f,1,0,37.0,37,3,low,9 - 1 + 5 - 6 + 8,15,14,17,15,861.8057511000079,863.833848600043,865.3489887000178,870.3671260999981,872.9795572999865,872.9795633000322,874.4964256000239,875.5139824000071,q,14,2.6124311999883503,0,+0,115,-3.909179224232119,0.7874535181604774,0.16924993105694863,837793.0,19.007441917924712,0.9648887563359754,0.12777830889584219,841326.0,4.099438626941954,-0.06908048376729226,0.3594581067095606,1245319.0,865.352278613516,861.819278613516,1269.3452786135158
46,5,22,f,1,1,38.0,0,1,low,2 + 1 + 9 + 1 - 1,12,13,12,11,891.4317249000305,893.4590789999929,894.9741085999995,899.9939228000003,900.4996688000392,900.4996743000229,902.0165219000193,903.033684300026,w,12,0.5057460000389256,1,+1,116,5.594447399043158,0.19255545043318412,-0.8363479390962323,867417.0,-4.469634294432712,0.1975973890938929,0.839266058466057,870953.0,,,,,894.9792786135159,891.443278613516,
47,5,22,f,1,1,39.0,1,2,low,9 + 6 + 1 + 7 + 1,24,25,24,23,904.550445700006,906.5782722000148,908.0935643000412,913.111897099996,913.7556051000138,913.7556110000004,915.2723177000298,916.2891691999976,w,24,0.6437080000177957,1,+1,117,19.60041607402627,0.9251625820482396,-0.004503412751704072,880537.0,8.623275255093674,0.8635680987891423,0.2330054602460525,884071.0,,,,,908.097278613516,904.563278613516,
48,5,22,f,1,1,40.0,2,1,high,7 + 1 + 4 + 1 - 1,12,13,12,11,917.8059964000132,919.8332328000106,921.3483373000054,926.3669852000312,926.8276266999892,926.8276319000288,928.3438092000432,929.3611073000357,w,12,0.4606414999580011,1,+10,127,10.82094221547367,-0.056554644822481404,-0.08547142042015587,893792.0,13.03592547213427,0.00470444472126319,0.12270948467092824,897326.0,,,,,921.352278613516,917.818278613516,
49,5,22,f,1,1,41.0,3,4,high,2 + 9 - 3 + 5 + 8,21,21,23,22,930.8782393000438,932.8997814999892,934.4147403000388,939.4330651999916,941.3796479000011,941.3796542999916,942.8961391000194,943.9135327000404,q,21,1.9465827000094575,1,+10,137,-30.6667791534363,0.2299599711283964,-0.547209329552907,906859.0,30.261917635662225,0.8812693787664256,0.3949436342424122,910392.0,-21.8097540637866,0.06123736208612551,-0.1259486919604167,2025364.0,934.418278613516,930.885278613516,2049.390278613516
50,5,22,f,1,1,42.0,4,4,low,4 + 7 - 8 + 9 - 3,9,11,8,9,945.4303686000056,947.455951699987,948.971154800034,953.9899267000146,954.731596800033,954.7316020000144,956.2480936000356,957.265049800044,e,9,0.7416701000183821,1,+1,138,25.825982768610388,0.864166645774934,-1.3723975371714314,921415.0,-19.746823103923507,0.7772019479943593,0.23882393459506712,924949.0,-19.28080272265347,1.1169389153105267,1.2291860356027424,2385178.0,948.9752786135159,945.4412786135159,2409.2042786135157
51,5,22,f,1,1,43.0,5,4,high,7 + 6 - 9 + 8 - 3,9,9,8,7,958.7814324999928,960.8081972000072,962.323129800032,967.341158700001,970.0756743000238,970.0756797000068,971.5923017000314,972.6095080000232,w,8,2.73451560002286,0,+0,138,10.30610309959194,0.868588067438909,-0.003907868584550611,934767.0,35.60905581967731,-0.6504528399635356,0.039699043319926464,938300.0,2.0432223388028063,0.21732321896991413,0.9559202456630984,2401658.0,962.3262786135159,958.793278613516,2425.6842786135157
52,5,22,f,1,1,44.0,6,1,low,6 + 1 + 8 + 1 - 1,15,13,14,15,974.1269931000425,976.1531465000008,977.6682689000154,982.6878608000115,983.3955618999898,983.3955672000302,984.912241699989,985.9291410000296,e,15,0.7077010999782942,1,+1,139,-51.56505464374117,-0.2060903312793736,0.03690854355855344,950111.0,0.4741228561753985,0.007056639652355701,0.12334530969998325,953647.0,,,,,977.673278613516,974.137278613516,
53,5,22,f,1,1,45.0,7,2,high,2 + 9 + 1 + 1 - 5,8,7,6,8,987.4460528999916,989.4735800999916,990.9882738000016,996.0067029999918,998.3077434000444,998.3077490000288,999.8243912000326,1000.8418469000026,w,6,2.301040400052443,0,+0,139,-39.23896773996762,0.7900548982772246,0.2517008048943916,963432.0,4.577137313740886,0.9453667321368473,0.10338218253512665,966965.0,,,,,990.991278613516,987.458278613516,
54,5,22,f,1,1,46.0,8,3,low,7 - 1 + 8 - 6 + 4,12,12,13,11,1002.3576821000316,1004.3842027999926,1005.8990811000112,1010.9173942999914,1012.8036408000044,1012.8036463999888,1014.320100300014,1015.3376687000272,q,12,1.8862465000129305,1,+1,140,-20.706097265794636,0.8897676455701484,-0.174343101538049,978343.0,-15.232246814173806,0.5992212032959228,0.3344546310473653,981876.0,53.032033110011994,0.012663424883827767,-0.09366411076461878,1376791.0,1005.9022786135159,1002.3692786135159,1400.8172786135158
55,5,22,f,1,1,47.0,9,1,high,3 + 1 + 8 + 1 + 1,14,13,16,14,1016.853874100023,1018.8778942000354,1020.3935103000258,1025.4127268000157,1026.323641200026,1026.3236467000097,1027.8396172000212,1028.8567859000177,e,14,0.9109144000103696,1,+10,150,2.9741869235294556,-0.3066108751162602,-0.21236794220912625,992836.0,-13.280362848367917,0.12253718177775985,0.32931427911303857,996371.0,,,,,1020.3972786135159,1016.862278613516,
56,5,22,f,1,1,48.0,10,3,low,9 - 5 - 1 - 6 + 8,5,5,4,7,1030.3733646000037,1032.3997604000033,1033.915370200004,1038.933606400038,1040.139652300044,1040.1396580000292,1041.656090900011,1042.6731717000366,w,4,1.2060459000058472,0,+0,150,-62.34051110048728,0.8739842964761233,0.011814619586830277,1006358.0,31.14648746946693,0.9498652792577358,0.10416425259362017,1009892.0,26.750100296056566,0.0988177812575124,0.27208712500331567,1529749.0,1033.918278613516,1030.3842786135158,1553.7752786135159
57,5,22,f,1,1,49.0,11,2,high,7 + 6 + 1 - 1 - 8,5,3,5,4,1044.1898441000376,1046.216752300039,1047.731746400008,1052.75044730003,1053.2917643000255,1053.2917702000125,1054.8082904000184,1055.825703500013,w,5,0.5413169999956153,1,+10,160,6.385478330954481,0.8038452995239227,0.011897734796540327,1020175.0,0.19388509214877736,0.9132994075247378,0.08982213370485748,1023709.0,,,,,1047.735278613516,1044.2012786135158,
58,5,22,f,1,1,50.0,12,2,high,4 + 9 - 7 + 1 - 1,6,5,6,8,1057.342397600005,1059.3667428999906,1060.8817714999896,1065.9003608000348,1066.7878221000428,1066.7878432000289,1068.304470400035,1069.3221685999888,w,6,0.8874613000079989,1,+10,170,7.228693159197576,0.728675667098087,0.33649207766380207,1033325.0,-18.040471656972752,0.827276478463806,0.9736065267402028,1036859.0,,,,,1060.8852786135158,1057.351278613516,
59,5,22,f,1,1,51.0,13,2,high,8 + 1 + 4 - 7 + 1,7,7,6,5,1070.8385635000304,1072.865303800034,1074.3803781000315,1079.398421699996,1081.3156971000135,1081.315702699998,1082.8323660999886,1083.8496404000325,q,7,1.917275400017388,1,+10,180,6.167687251273017,0.8931319144450349,-0.061230009020987186,1046824.0,3.3045272368308805,-0.15552437721811163,0.2196653542416176,1050357.0,,,,,1074.3832786135158,1070.850278613516,
60,5,22,f,1,1,52.0,14,1,high,5 + 9 - 1 + 1 + 1,15,13,15,17,1085.3662882000208,1087.3927383000264,1088.9077158000437,1093.9253983999952,1096.1236792000127,1096.1236845999956,1097.6403998000314,1098.6576180999982,q,13,2.198280800017528,0,+0,180,-3.212413519383105,0.11314990778137024,0.020940179898316647,1061351.0,32.0454793566206,0.08492315775810888,0.2755744739445454,1064884.0,,,,,1088.9102786135159,1085.377278613516,
61,5,22,f,1,1,53.0,15,2,low,4 + 1 + 9 + 1 - 6,9,7,8,9,1100.1742345000384,1102.2007880000165,1103.7150967000052,1108.7341550000128,1110.4197441000142,1110.4197501000017,1111.936038499989,1112.953138799989,e,9,1.6855891000013798,1,+1,181,10.513478933307653,0.963095179649347,0.4253944591268273,1076159.0,33.33614817688884,0.9659184727476449,0.2630231512159382,1079692.0,,,,,1103.7182786135158,1100.185278613516,
62,5,22,f,1,1,54.0,16,1,low,3 + 1 + 1 + 9 - 1,13,14,12,13,1114.4704465999966,1116.4969998000306,1118.0119425000155,1123.030049699999,1124.5716540000285,1124.5716595000122,1126.088333600026,1127.10514530004,e,13,1.5416043000295758,1,+1,182,3.9315548784220464,0.1092981486513942,0.35009490123914144,1090455.0,-21.38067265054313,-0.0487433163096096,0.26488426608850624,1093988.0,,,,,1118.014278613516,1114.4812786135158,
63,5,22,f,1,1,55.0,17,3,high,3 - 7 + 5 + 1 + 9,11,12,11,13,1128.6215460000094,1130.6470812000334,1132.1623446000158,1137.1821691000368,1138.299792200036,1138.2997980000218,1139.816178900015,1140.833580900042,w,11,1.1176230999990366,1,+10,192,37.65481187153318,0.8760856718101411,0.017007724880982122,1104605.0,-7.510925010593791,0.5463950043001562,0.1587486151596722,1108140.0,-22.919479963011266,0.06524080639443142,0.02578816579948362,1621029.0,1132.166278613516,1128.6312786135159,1645.0552786135158
64,5,22,f,1,1,56.0,18,3,low,8 - 1 + 6 - 7 + 5,11,12,11,13,1142.3502493000124,1144.373910100025,1145.8888746000011,1150.9074981000158,1152.307761300006,1152.307766599988,1153.824329800031,1154.8403541000444,w,11,1.4002631999901496,1,+1,193,4.287712644379255,1.274823049388149,0.04289143368553061,1118332.0,13.722759058679397,0.8930416573816897,0.1128990167201045,1121866.0,53.51964824905732,0.09831332578508167,0.12016892258739054,1821612.0,1145.8922786135158,1142.358278613516,1845.638278613516
65,5,22,f,1,1,57.0,19,2,low,7 + 8 + 1 + 9 + 1,26,24,26,25,1156.356915900018,1158.3850794000318,1159.9003432000172,1164.9195232000202,1166.7957138000056,1166.7957191999883,1168.3120974000194,1169.3289456000202,w,26,1.8761905999854207,1,+1,194,7.210974420997516,0.831750551921079,-0.059129496569119366,1132343.0,-27.69613332104332,0.5234035269431798,0.6654449582467801,1135877.0,,,,,1159.9032786135158,1156.369278613516,
66,5,22,f,1,1,58.0,20,3,high,6 - 1 + 7 - 8 + 9,13,12,11,13,1170.8457504000398,1172.8719762000255,1174.3869893000228,1179.406170500035,1181.8038189000215,1181.8038245000062,1183.320291800017,1184.3371480000203,q,12,2.3976483999867924,0,+0,194,-0.14627949264123608,0.8495205718221022,-0.14928557591658742,1146830.0,9.563013179956162,0.5328253179505618,-0.7033638964029332,1150363.0,31.090774007301214,0.029176112141725996,-0.9791754643976607,1892204.0,1174.389278613516,1170.8562786135158,1916.2302786135158
67,5,22,f,1,1,59.0,21,4,low,2 + 9 - 6 + 8 - 4,9,9,7,11,1185.8537610000349,1187.8797825000363,1189.3949141000048,1194.4134271999935,1196.859857000003,1196.8598624000442,1198.3763101000222,1199.3930028000032,q,9,2.446429800009355,1,+1,195,-2.3088749946851976,-3.224287723606496,-1.7274611010281196,1161837.0,-38.02171963984025,0.8479531634025279,-0.809556472047678,1165371.0,-29.578687847262415,-0.06306768249571104,0.22049300126333327,2460169.0,1189.397278613516,1185.8632786135158,2484.1952786135157
68,5,22,f,1,1,60.0,22,3,low,6 - 1 + 7 - 8 + 9,13,12,13,11,1200.9096862000297,1202.937083900033,1204.4519239999936,1209.4702546999906,1210.8278134000138,1210.8278189999985,1212.343754200032,1213.3603195000323,w,13,1.357558700023219,1,+1,196,5.668154085927014,0.17918341176437824,-0.4905874405055761,1176895.0,-7.803738381953744,0.8123678070198008,0.12260342468432239,1180428.0,-26.47210197486494,0.32058754804457656,-0.2291218968575537,1921804.0,1204.454278613516,1200.9212786135158,1945.830278613516
69,5,22,f,1,1,61.0,23,1,high,8 + 1 + 5 + 1 + 1,16,15,16,17,1214.8769297000254,1216.9003386000404,1218.415427400032,1223.433561300044,1223.9638684000238,1223.963874100009,1225.4800104000024,1226.4969454000238,w,16,0.5303070999798365,1,+10,206,-5.557321909512892,0.09026077739308436,0.1305564206714056,1190858.0,-35.91637861692352,-0.14086705273914268,0.08960560367280923,1194391.0,,,,,1218.417278613516,1214.8842786135158,
70,5,22,f,1,1,62.0,24,2,high,7 + 6 + 1 + 8 + 1,23,22,21,23,1228.0137569000362,1230.0419785000267,1231.5568414000445,1236.5753133000107,1239.0198098000255,1239.019815800013,1240.5363549999893,1241.5536044000182,w,21,2.444496500014793,0,+0,206,-17.30800167260436,0.14308573461673246,-0.3176135644299305,1203999.0,-64.46009223628499,0.8770647783778216,-0.07112741423853186,1207533.0,,,,,1231.5592786135157,1228.0252786135159,
71,5,22,f,1,1,63.0,25,3,high,8 + 6 - 7 + 1 - 4,4,4,3,5,1243.0702714000363,1245.098107800004,1246.6132350999978,1251.6313962000422,1252.4119087000145,1252.4119145000004,1253.9284514000174,1254.9458728000172,q,4,0.7805124999722466,1,+10,216,1.8888409886576039,0.6030745061425713,-0.05940983627361596,1219056.0,-56.7178212646858,0.6271282847465154,-0.03869511927756686,1222589.0,16.86089961272372,0.042781909267661566,0.4734026314110569,2039059.0,1246.6152786135158,1243.0822786135159,2063.085278613516
72,5,22,f,1,1,64.0,26,3,high,4 + 7 + 1 + 9 - 5,16,16,17,18,1256.4627612000331,1258.4864754999871,1260.00083850004,1265.0192237999872,1267.8277970000054,1267.827802799991,1269.3446096000262,1270.3621236000326,w,17,2.808573200018145,0,+0,216,22.39617629034543,0.9039067344575782,1.1102102385820034,1232444.0,-3.3065181233062972,0.7689458458685059,0.27410509048571097,1235977.0,21.756108589167305,0.11188123772669112,-0.005361022666512394,2317483.0,1260.003278613516,1256.4702786135158,2341.509278613516
73,5,22,f,1,1,65.0,27,1,high,4 + 1 + 1 + 7 - 1,12,14,12,13,1271.8784284000285,1273.9011538000195,1275.416021300014,1280.4339280000422,1282.8757775000413,1282.8757833000273,1284.3921532999957,1285.4093191000284,w,12,2.44184949999908,1,+10,226,4.0450909385727964,0.08520979400469542,0.1239740199618169,1247859.0,9.073927423426785,-0.07285866422293341,0.2085887889925906,1251392.0,,,,,1275.418278613516,1271.8852786135158,
74,5,22,f,1,1,66.0,28,1,low,4 + 8 + 1 - 1 - 1,11,13,11,9,1286.9254422000377,1288.953362100001,1290.468712300004,1295.4869997000203,1296.548530500033,1296.5485368000227,1298.0651376000023,1299.0831984000397,w,11,1.061530800012406,1,+1,227,4.842773102068881,0.008746594632809579,-1.7743663181991154,1262910.0,0.5361951153907878,0.03813120718100871,-0.9557943908005035,1266444.0,,,,,1290.4702786135158,1286.936278613516,
75,5,22,f,1,1,67.0,29,4,high,2 + 5 - 3 + 9 + 8,21,19,22,21,1300.5997634000378,1302.627778700029,1304.1436341000372,1309.1623563999892,1311.9238188000163,1311.9238243,1313.4409432000248,1314.458390799991,q,19,2.761462400027085,0,+0,227,26.715888525005635,0.6411806083277627,-0.26291596611807133,1276585.0,40.78635526327269,0.7442379443782523,0.03657589539801642,1280120.0,6.104553122809627,0.07013157434463801,0.7108690195696157,2503497.0,1304.1462786135157,1300.6112786135159,2527.5232786135157
76,5,22,f,1,1,68.0,30,1,high,5 + 6 + 1 + 1 + 1,14,13,14,16,1315.9749285000144,1317.9992364000063,1319.5144041000167,1324.5318517000414,1324.9957932000398,1324.9957982000196,1326.5121440000366,1327.5305552000063,w,14,0.4639414999983273,1,+10,237,7.155112989630119,0.05000891584493483,-0.26448853818274176,1291956.0,40.410730377409024,0.26871038890929855,-0.4330562731197176,1295489.0,,,,,1319.5152786135159,1315.9822786135157,
77,5,22,f,1,1,69.0,31,3,low,8 + 5 + 1 - 7 + 9,16,17,14,16,1329.0472563999938,1331.0706508000148,1332.585288800008,1337.6037720000022,1340.251873000001,1340.251878799987,1341.768483699998,1342.7853487000102,e,16,2.64810099999886,1,+1,238,-2.361227790503757,0.8421429958069937,0.2254689711436333,1305027.0,-24.11640184378411,0.6591399773289799,0.11602778375932199,1308561.0,-2.8176547144925763,-0.3139780894394999,0.19430129051962997,2546312.0,1332.5872786135158,1329.0532786135159,2570.3382786135157
78,5,22,f,1,1,70.0,32,1,high,4 + 7 + 1 - 1 - 1,10,9,11,10,1344.3019778000307,1346.3283168000053,1347.8435507999966,1352.861861100013,1356.2198378000176,1356.2198446000111,1357.7372091000434,1358.7544906000255,w,11,3.357976700004656,0,+0,238,-18.176647948221447,0.016046422386201797,0.19285032025308224,1320286.0,3.415788106780262,-0.0307092975260006,0.2671204808069765,1323819.0,,,,,1347.8452786135158,1344.312278613516,
79,5,22,f,1,1,71.0,33,2,high,3 + 8 - 5 + 1 + 1,8,9,6,8,1360.2710328000248,1362.2962298000348,1363.8112451999914,1368.8304379000328,1369.595904999995,1369.5959104000358,1371.1129037000355,1372.1301935000229,e,8,0.7654670999618247,1,+10,248,-37.23405971957828,0.9943142263232565,0.25341396411097605,1336253.0,17.26879623282204,0.7010523307636731,0.13928987051442188,1339788.0,,,,,1363.8142786135159,1360.2792786135158,
80,5,22,f,1,1,72.0,34,2,low,3 - 1 + 9 - 5 + 1,7,7,6,5,1373.6465813000104,1375.6738555000047,1377.1893961000023,1382.2071874000248,1384.5159045000328,1384.5159100000164,1386.0327041000128,1387.0490665000398,q,7,2.308717100007925,1,+1,249,-49.33523493621121,0.5862456245918346,-0.29306945345408053,1349631.0,9.040617325204547,0.6514702313578296,-1.0106430406013875,1353165.0,,,,,1377.1912786135158,1373.657278613516,
81,5,22,f,1,1,73.0,35,3,high,9 + 3 - 4 + 6 + 7,21,23,22,21,1388.5658943000017,1390.5917553000036,1392.107060200011,1397.1252122000442,1399.2999265000108,1399.2999324999982,1400.8172299000437,1401.8344671000375,q,23,2.174714299966581,0,+0,249,4.1879427183652815,1.0096588110554794,0.03453644580708781,1364549.0,-0.8359466650742124,0.705598340429868,0.09256434796173885,1368082.0,-0.053603447155119,-0.1478246220890913,0.08806634364627364,3083757.0,1392.108278613516,1388.5752786135158,3107.783278613516
82,5,22,f,1,1,74.0,36,1,high,6 + 1 + 1 + 7 - 1,14,14,13,12,1403.3516095000086,1405.3768590000109,1406.892040600011,1411.9102229000418,1413.507865099993,1413.5078707000357,1415.0242294000343,1416.041105500015,q,14,1.597642199951224,1,+10,259,21.671119813207728,0.03888241229855316,0.060002714919842326,1379334.0,39.117830137678524,-0.5480675095829615,-0.2924808161897099,1382867.0,,,,,1406.8932786135158,1403.360278613516,
83,5,22,f,1,1,75.0,37,2,low,8 + 1 + 9 + 1 - 5,14,13,14,15,1417.5579814999946,1419.5867784000002,1421.1020836000098,1426.1202291999944,1428.4438892999897,1428.4438944000285,1429.9603684000322,1430.9775218000286,q,13,2.3236600999953225,0,+0,259,-56.18774028962861,0.9144628303875584,-0.03323965841062604,1393544.0,-37.47031821210305,1.2181184724426202,0.08937081854151763,1397077.0,,,,,1421.1032786135158,1417.570278613516,
84,5,22,f,1,2,76.0,0,2,low,2 + 9 - 4 + 1 + 1,9,8,9,11,1456.7599096000197,1458.7861335999914,1460.3012753000369,1465.3210324000102,1465.987946600013,1465.987952299998,1467.5044933999889,1468.521405700012,w,9,0.6669142000027932,1,+1,260,9.46610676022871,0.31154478218724435,0.17147757991622736,1432743.0,-5.240461875811126,0.5465965799880936,0.07262843568677946,1436278.0,,,,,1460.3042786135159,1456.7692786135158,
85,5,22,f,1,2,77.0,1,1,low,9 + 8 + 1 + 1 - 1,18,17,19,18,1470.0381749999942,1472.0652847000165,1473.5801574999932,1478.5982429000433,1479.4038899000152,1479.4038954999996,1480.9201933000004,1481.9375766000012,e,18,0.8056469999719411,1,+1,261,-21.096042310083988,0.009908455366493651,-0.3147414873889307,1446022.0,27.164381822820683,0.3896410735763207,0.31317808951838244,1449555.0,,,,,1473.581278613516,1470.0482786135158,
86,5,22,f,1,2,78.0,2,4,high,3 + 8 - 7 + 9 - 5,8,8,7,9,1483.4541626000428,1485.481179800001,1486.995913300023,1492.014997099992,1494.8920093000052,1494.8920154999942,1496.4084954000427,1497.4256207,w,7,2.8770122000132687,0,+0,261,19.295664918852527,0.8443209149422666,-0.1666746126056171,1459437.0,11.641412166520372,1.020632808332528,0.21929828603863344,1462971.0,-28.448983523389757,-0.15026462765439752,0.008305131949334799,2594856.0,1486.9972786135158,1483.4632786135157,2618.882278613516
87,5,22,f,1,2,79.0,3,1,low,7 - 1 + 8 + 1 - 1,14,12,13,14,1498.9425473000156,1500.9692407000111,1502.4838792000082,1507.5021167999948,1508.0999960000045,1508.1000018999912,1509.6168210000033,1510.6337275000403,e,14,0.5978792000096291,1,+1,262,-9.608496122124542,0.006920126272289551,0.012826874904432906,1474925.0,-33.117374222992595,0.0676995318342597,0.05189077294441913,1478459.0,,,,,1502.485278613516,1498.9512786135158,
88,5,22,f,1,2,80.0,4,1,low,5 + 1 + 1 + 6 + 1,14,14,16,13,1512.1505101000075,1514.17559910001,1515.6908446000307,1520.708116499998,1521.3799407000188,1521.3799459000002,1522.8959591999885,1523.912722000037,q,14,0.6718242000206374,1,+1,263,-24.461506854021756,0.005057638006523035,0.09086961408798833,1488132.0,-0.598930488803159,0.06001896415590369,0.1891580979091274,1491665.0,,,,,1515.6912786135158,1512.158278613516,
89,5,22,f,1,2,81.0,5,3,high,7 - 6 + 8 + 1 + 7,17,17,16,15,1525.4293749000062,1527.455080499989,1528.970207400038,1533.988959899987,1534.667925900023,1534.6679319000104,1536.1843315000297,1537.2016482999898,q,17,0.6789660000358708,1,+10,273,4.415615729265709,0.9321657968900257,-0.20191374988858857,1501411.0,11.974218029018264,1.0253928286995257,0.2423228710658032,1504945.0,,,,,1528.9712786135158,1525.437278613516,
90,5,22,f,1,2,82.0,6,3,high,6 + 7 + 8 + 1 - 9,13,15,13,14,1538.718320199987,1540.7432902000146,1542.2585674000438,1547.2770196000347,1552.260008000012,1552.260013399995,1553.7757986999932,1554.792854700005,q,15,4.98298839997733,0,+0,273,-32.330903599617855,1.0476511282504253,0.009955090762335361,1514699.0,13.217504664484032,0.996230178685942,0.22012680893438685,1518233.0,,,,,1542.2592786135158,1538.725278613516,
91,5,22,f,1,2,83.0,7,4,high,4 + 9 - 7 + 8 + 5,19,21,19,20,1556.3096415000036,1558.3368778000004,1559.8520579999897,1564.872076700034,1567.6919443000224,1567.6919501000084,1569.2079760000345,1570.225334000017,w,19,2.819867599988356,1,+10,283,-24.256538120605974,1.112744984354774,0.08519248933496004,1532293.0,15.906399813477567,1.0957011171336961,0.1353556688587365,1535828.0,-52.495925542304064,0.20022395687561745,-0.6157488557470716,2745031.0,1559.8542786135158,1556.3192786135157,2769.057278613516
92,5,22,f,1,2,84.0,8,2,high,6 + 1 + 7 - 8 - 1,5,5,4,7,1571.7421636999934,1573.7693800000125,1575.2845999000128,1580.3031735999975,1582.115920500015,1582.1159264000016,1583.632502500026,1584.6497041000405,e,7,1.8127469000173733,0,+0,283,-6.376497295765844,0.9885389267272542,0.010401802160036278,1547725.0,6.632284566751695,0.9659660494977236,0.16606766810459028,1551259.0,,,,,1575.2852786135159,1571.7512786135158,
93,5,22,f,1,2,85.0,9,2,low,6 + 1 + 1 + 7 - 9,6,4,8,6,1586.1664137000334,1588.1939137000008,1589.709623900009,1594.7297284000088,1598.7480245000334,1598.74803040002,1600.2643767000409,1601.2812524000185,e,6,4.0182961000246,1,+1,284,-5.484719497367562,1.0002693777492497,0.13261461462565993,1562149.0,-26.045577312080898,0.8789673442204182,0.13567549426013725,1565685.0,,,,,1589.7112786135158,1586.1752786135157,
94,5,22,f,1,2,86.0,10,4,low,2 + 9 - 4 + 8 + 7,22,21,22,23,1602.7982335000415,1604.8223679999935,1606.337497200002,1611.357325399993,1615.083923200029,1615.083928900014,1616.6004789000144,1617.6176035000244,e,23,3.726597800035961,0,+0,284,-81.2623718923507,0.8128613692138442,0.06397805661233269,1578778.0,23.42847549103417,0.7648486051597911,-0.4677646358074876,1582313.0,28.873332643045252,-0.008105295405370638,0.09649413817467623,2900054.0,1606.339278613516,1602.8042786135159,2924.080278613516
95,5,22,f,1,2,87.0,11,3,high,8 - 7 + 9 + 1 + 4,15,15,14,16,1619.134249499999,1621.1630948000238,1622.67859830003,1627.6977305000182,1628.3320496000233,1628.33205550001,1629.8487161000376,1630.8660699999891,q,15,0.6343191000050865,1,+10,294,-57.28979480725802,0.93675085188644,0.047984694793271165,1595118.0,-38.52150237121961,1.0505103659500878,-0.1716757874860042,1598653.0,,,,,1622.6792786135159,1619.1442786135158,
96,5,22,f,1,2,88.0,12,3,high,6 + 8 + 7 + 1 - 9,13,14,13,15,1632.3820133000263,1634.406195699994,1635.9212150000385,1640.9408605000351,1643.540063499997,1643.540069300041,1645.056502100022,1646.0735328000155,e,15,2.5992029999615625,0,+0,294,13.831623952043076,0.9353679006216666,0.20379780542520076,1608362.0,2.9453797107309514,1.0426312118013175,0.09644302414363826,1611897.0,,,,,1635.9232786135158,1632.388278613516,
97,5,22,f,1,2,89.0,13,2,high,6 + 1 + 8 + 7 - 1,21,19,23,21,1647.5906349000288,1649.619042300037,1651.13408670004,1656.1528231000411,1658.0200617000228,1658.0200676000095,1659.5366501000244,1660.5538270000252,e,21,1.867238599981647,1,+10,304,10.575023534441314,0.9320148529026382,0.12390253596509648,1623574.0,14.491764976313549,0.9603775431456187,0.04296556238393534,1627108.0,,,,,1651.1342786135158,1647.600278613516,
98,5,22,f,1,2,90.0,14,1,low,7 - 1 + 1 + 9 - 1,15,15,14,13,1662.070436400012,1664.097853599989,1665.612993000017,1670.6312494000304,1671.7959675000166,1671.795972699998,1673.312494700018,1674.3284087000063,q,15,1.164718099986203,1,+1,305,0.6070180293089376,-2.1283901269172736,0.15129970804439719,1638053.0,89.01269940898756,-0.6724143415951191,-0.5029505850391518,1641587.0,,,,,1665.6132786135158,1662.079278613516,
99,5,22,f,1,2,91.0,15,4,high,4 + 7 - 8 + 9 - 4,8,7,9,8,1675.844797400001,1677.8695796999964,1679.3841211000108,1684.4040228000376,1686.9480623000418,1686.9480679000262,1688.4646237000125,1689.4814486000105,e,8,2.5440395000041462,1,+10,315,-0.5128538100100073,0.8995790945147661,0.17759818366001512,1651825.0,-28.114339255022923,0.3769523595148341,-0.29562044743934224,1655359.0,-5.223385948598512,-0.03111062543567611,-0.5464077177351108,2998319.0,1679.3852786135158,1675.851278613516,3022.345278613516
100,5,22,f,1,2,92.0,16,1,low,6 + 9 + 1 + 1 - 1,16,14,16,15,1690.9981712000445,1693.025487100007,1694.540729500004,1699.5586647000164,1700.5400347000104,1700.540039799991,1702.056714300008,1703.073222200037,w,16,0.9813699999940582,1,+1,316,17.608205052203147,0.03367751076660652,0.0640854137468636,1666981.0,-25.575631820889946,-0.02302277091183269,-0.004049737781860685,1670514.0,,,,,1694.5402786135157,1691.0072786135158,
101,5,22,f,1,2,93.0,17,2,low,5 + 1 + 7 - 6 + 1,8,8,7,6,1704.5899533000193,1706.6167187000392,1708.13203670003,1713.150004499999,1713.8761509000324,1713.876156400016,1715.393076000037,1716.4096531000105,q,8,0.7261464000330307,1,+1,317,0.7708269538114543,0.5390511462413414,0.011195301832859661,1680572.0,-23.085097297948025,0.7766380945274669,0.2187372257678526,1684105.0,,,,,1708.1312786135159,1704.5982786135157,
102,5,22,f,1,2,94.0,18,4,low,8 + 3 - 4 + 5 + 9,21,23,21,22,1717.9257640000433,1719.9524389000144,1721.467580700002,1726.485501200019,1727.5881176000112,1727.5881231999956,1729.1043812000426,1730.1212529999902,w,21,1.1026163999922574,1,+1,318,5.4497872595879375,0.7704997954242914,0.22527426458540112,1693907.0,22.133291486874246,0.08707065658793312,-0.03644697981038991,1697441.0,8.367582461470558,-0.10263008844919863,0.05529779453660422,3097726.0,1721.4672786135159,1717.9332786135158,3121.752278613516
103,5,22,f,1,2,95.0,19,2,high,5 - 8 + 7 + 1 + 1,6,8,6,7,1731.6376729999902,1733.6624472000403,1735.1776144999894,1740.195995200018,1740.7640570999938,1740.7640624000342,1742.2799189999932,1743.2970720999874,w,6,0.5680618999758735,1,+10,328,32.998782645508285,0.7132845701947041,0.17889685131361777,1707617.0,22.386315137232728,0.7018424810424291,0.16749570255170476,1711151.0,,,,,1735.177278613516,1731.6432786135158,
104,5,22,f,1,2,96.0,20,1,high,5 + 6 + 1 + 1 + 1,14,15,16,14,1744.8144598000215,1746.8407572000287,1748.3557751000044,1753.3733055000191,1754.0441323000125,1754.0441379999977,1755.5605657999986,1756.5767202000134,e,14,0.6708267999929376,1,+10,338,-22.32534615647317,0.2605224376672566,-0.1950650910001912,1720796.0,-31.387860577276296,-0.010599773918164468,0.043969749528305124,1724328.0,,,,,1748.3542786135158,1744.822278613516,
105,5,22,f,1,2,97.0,21,2,high,7 + 5 + 1 + 9 + 1,23,23,22,21,1758.093863099988,1760.1205542000243,1761.6354793999926,1766.6536828000098,1767.348142300034,1767.3481480000191,1768.8640282000415,1769.8811930000084,q,23,0.6944595000240952,1,+10,348,11.003696129949972,0.335563398314882,-0.0931711999590139,1734075.0,-12.08181622758443,0.8431880381059318,-0.15173649761795804,1737608.0,,,,,1761.6342786135158,1758.101278613516,
106,5,22,f,1,2,98.0,22,1,high,7 + 1 + 4 + 1 - 1,12,13,12,11,1771.39864520001,1773.4264937000116,1774.9416735999985,1779.9599007000215,1782.1240723000374,1782.124078200024,1783.6405705999932,1784.6576788999955,e,11,2.164171600015834,0,+0,348,-0.49513609936349745,0.15702173505186723,0.0414288339515827,1747381.0,56.003905950378005,-0.029917848083305998,0.11301618716948214,1750915.0,,,,,1774.9412786135158,1771.407278613516,
107,5,22,f,1,2,99.0,23,3,high,3 + 1 + 6 - 8 + 9,11,13,12,11,1786.1742410000295,1788.1979686000268,1789.7131327000095,1794.7312570000067,1795.2601677000057,1795.260172899987,1796.7764845000347,1797.794037000043,e,11,0.5289106999989599,1,+10,358,24.06011772488158,0.4828170734491759,-0.2901791944590628,1762153.0,-11.362057124555033,0.6970315844047965,0.02434303777620639,1765686.0,,,,,1789.7122786135158,1786.1792786135159,
108,5,22,f,1,2,100.0,24,3,high,8 + 3 + 1 - 7 + 9,14,12,14,15,1799.310295900039,1801.334595600027,1802.8495278999908,1807.869410399988,1811.2682037000195,1811.268209700007,1812.784731800028,1813.8019472000303,w,14,3.3987933000316843,1,+10,368,6.809630843678775,0.7209953051114029,-0.04261514822464263,1775289.0,5.774919946103463,0.7779921238508858,-0.24493888784290307,1778824.0,,,,,1802.850278613516,1799.3152786135158,
109,5,22,f,1,2,101.0,25,2,high,7 + 1 + 9 - 1 - 8,8,6,7,8,1815.3186974000416,1817.344763900037,1818.859914800036,1823.8785908000427,1828.6522141000023,1828.6522198999885,1830.1686387000373,1831.1857716999948,q,6,4.773623299959581,0,+0,368,19.846234587711198,-1.2855423505455987,-1.6670978171159012,1791299.0,-10.098300533099607,0.5243230133130621,-0.2917990087137081,1794833.0,,,,,1818.859278613516,1815.3252786135158,
110,5,22,f,1,2,102.0,26,3,high,2 + 1 + 9 - 7 + 6,11,11,13,12,1832.7026045999955,1834.7288891000208,1836.2441171000248,1841.262667300005,1844.1242107000437,1844.1242166000304,1845.6407508000264,1846.6578559000045,w,13,2.8615434000384994,0,+0,368,18.559271327293192,-7.548457243736668,-7.134382841907285,1808683.0,-30.44088790400785,0.13929988089855128,-0.11353700742343875,1812217.0,,,,,1836.243278613516,1832.7092786135158,
111,5,22,f,1,2,103.0,27,3,low,4 + 7 - 3 + 5 - 1,12,11,12,13,1848.1749896000256,1850.199665800028,1851.71483370004,1856.733250099991,1857.196216500015,1857.1962224000015,1858.712760400027,1859.7295206999988,w,12,0.4629664000240154,1,+1,369,-9.341787784785152,0.8812953953371883,-0.33468922322441386,1824153.0,-8.979835412251074,0.7591007654965811,-0.11084660807622893,1827688.0,,,,,1851.714278613516,1848.1792786135159,
112,5,22,f,1,2,104.0,28,2,low,6 + 1 + 7 + 5 - 1,18,17,16,18,1861.246216600004,1863.2717682000368,1864.7869963000408,1869.8051191000268,1871.396272699989,1871.396278300032,1872.912821600039,1873.92947740003,e,18,1.5911535999621265,1,+1,370,0.7629412282131423,0.7343105580043259,0.02976980133090046,1837226.0,23.375192159398058,1.0685157605224815,-0.014508391090064077,1840760.0,,,,,1864.7862786135158,1861.252278613516,
113,5,22,f,1,2,105.0,29,2,high,7 + 5 + 1 - 1 - 8,4,2,4,3,1875.445977700001,1877.473997100024,1878.9890783000155,1884.007575399999,1884.5402348000207,1884.5402441000333,1886.0563580000307,1887.073526300024,w,4,0.5326594000216573,1,+10,380,-44.36133432837617,0.9468619038095236,-0.48733745581077037,1851428.0,9.838463098766596,0.8228879905599349,-0.7411810270156949,1854962.0,,,,,1878.9882786135158,1875.454278613516,
114,5,22,f,1,2,106.0,30,4,high,9 + 8 - 5 - 7 + 6,11,13,11,10,1888.5899641000435,1890.6163807000264,1892.131443099992,1897.1514256999944,1899.1722163000377,1899.1722235000343,1900.6888279000411,1901.7058546000044,w,11,2.020790600043256,1,+10,390,2.8471285625918927,0.4368500718829149,-0.11049889805780211,1864571.0,1.3073277891528328,0.8439644536043105,-0.18203966774056246,1868105.0,,,,,1892.1312786135159,1888.5972786135158,
115,5,22,f,1,2,107.0,31,3,high,3 + 8 + 1 + 5 - 9,8,9,7,8,1903.222517099988,1905.2476082000069,1906.7629036,1911.7808701000176,1914.7161748000071,1914.7161807999944,1916.232614900044,1917.2500708000152,w,7,2.9353046999895014,0,+0,390,2.4378317519302577,0.9096845043724953,-0.08868821292171547,1879202.0,-19.325254999730884,0.8041904614298037,-0.7279211713177809,1882735.0,,,,,1906.7612786135157,1903.2282786135158,
116,5,22,f,1,2,108.0,32,1,high,6 + 9 + 1 + 1 - 1,16,15,16,14,1918.7667106000008,1920.7925971000225,1922.307832500024,1927.3258523000404,1927.8843082000385,1927.8843143000267,1929.4004147000376,1930.4177609999897,w,16,0.55845589999808,1,+10,400,52.00077144871207,-0.08238365402429038,0.2036447827951373,1894747.0,34.49266906800476,0.08941849499714238,0.2279713013176543,1898280.0,,,,,1922.3062786135158,1918.773278613516,
117,5,22,f,1,2,109.0,33,3,high,3 + 1 + 8 - 5 + 9,16,17,16,15,1931.934065700043,1933.961011000036,1935.4760791000444,1940.4948221000377,1944.316180100024,1944.3161857000089,1945.832773000002,1946.8498141000164,q,17,3.8213579999865033,0,+0,400,13.560648132787811,0.8780243440384807,-0.11175733770617335,1907915.0,33.13568221880713,1.0431290105073214,0.06625885059987646,1911448.0,,,,,1935.474278613516,1931.9412786135158,
118,5,22,f,1,2,110.0,34,4,high,5 + 7 - 4 - 6 + 9,11,12,11,13,1948.3672755000296,1950.393045300036,1951.907903000014,1956.9281217000096,1957.4922547999888,1957.4922604000312,1959.0084038000205,1960.0256516000368,w,11,0.5641330999787897,1,+10,410,9.561961228157646,0.5656676026881864,0.03375302904806676,1924347.0,-23.62559476872812,0.9150386897003895,-0.6191738000658147,1927882.0,,,,,1951.908278613516,1948.3732786135158,
119,5,22,f,1,2,111.0,35,1,high,5 + 1 + 1 + 9 + 1,17,16,17,19,1961.5429306000003,1963.5696509000263,1965.0847486000275,1970.102245200018,1970.6683507999987,1970.6683564000411,1972.184881700028,1973.2017584000127,w,17,0.5661055999808013,1,+10,420,24.652404609877877,-0.024559529319258644,1.1312357682586853,1937523.0,-1.8534879584561352,0.016579492774716043,0.07428528635287912,1941056.0,,,,,1965.0822786135159,1961.5492786135158,
120,5,22,f,1,2,112.0,36,4,high,3 + 9 - 5 + 8 - 7,8,8,7,9,1974.718201700016,1976.745382699999,1978.260255100031,1983.2787269999967,1987.1322228999925,1987.1322285000351,1988.6486341000416,1989.6658653999912,q,8,3.8534958999953233,1,+10,430,-4.2763449631531865,0.44590492084666433,0.15910069611189503,1950699.0,-4.4643446754763705,0.610790765952475,0.5064072702096094,1954232.0,,,,,1978.2582786135158,1974.725278613516,
121,5,22,f,1,2,113.0,37,2,low,5 - 1 + 1 + 8 + 9,22,21,22,23,1991.1826750999896,1993.2106080999947,1994.7256438999905,1999.7444006000296,2001.7242467000035,2001.7242528999925,2003.2408377000247,2004.257607300009,w,22,1.979846099973656,1,+1,431,-9.121318847331047,1.2368972267455705,-0.007573336021575505,1967164.0,29.43976121108265,0.5899997997249617,0.04230238039147971,1970698.0,,,,,1994.724278613516,1991.1902786135158,
122,5,22,f,1,3,114.0,0,4,high,6 + 9 - 7 + 8 - 5,11,12,11,13,2036.976351700025,2039.003608600004,2040.5187406000327,2045.5387320000443,2047.8762772000048,2047.876282400044,2049.3931142000365,2050.410454500001,e,13,2.3375451999600045,0,+0,431,9.460296020275866,0.7664629506005107,0.443059367702177,2012957.0,-3.7092018946071406,0.7814677246118602,-0.33093083172868987,2016492.0,,,,,2040.5182786135158,2036.983278613516,
123,5,22,f,1,3,115.0,1,3,low,5 + 7 + 1 - 4 + 6,15,13,17,15,2051.9273409000016,2053.9508038000204,2055.465323200042,2060.4835711999917,2061.572292199998,2061.572298399988,2063.088665099989,2064.106180600007,w,17,1.0887210000073535,0,+0,431,-7.654919413459808,0.8895846387621793,0.10562623339581356,2027904.0,17.168128406343378,0.11118917699789588,-1.420878392922817,2031437.0,,,,,2055.4632786135157,2051.930278613516,
124,5,22,f,1,3,116.0,2,1,high,5 + 8 - 1 + 1 + 1,14,12,14,16,2065.622736499994,2067.6478952000034,2069.1632124999887,2074.181251300033,2075.036292600038,2075.0362982000224,2076.5526936000097,2077.570347700035,w,14,0.8550413000048138,1,+10,441,7.287394469027819,0.10661332661775336,-0.09102738185587222,2041601.0,10.188383537404064,-7.542829143687816,-10.564116453348399,2045134.0,,,,,2069.160278613516,2065.627278613516,
125,5,22,f,1,3,117.0,3,3,low,2 - 4 + 9 + 7 + 1,15,13,15,16,2079.086576900037,2081.113415300031,2082.6285534999915,2087.646990800044,2088.9243884999887,2088.924394300033,2090.4410075999917,2091.45754100004,w,15,1.2773976999451406,1,+1,442,9.141032952434038,0.9848661272924739,-0.7193371981826879,2055066.0,17.69019765058984,0.9741672401395347,0.2926533607367592,2058600.0,,,,,2082.6262786135158,2079.0922786135156,
126,5,22,f,1,3,118.0,4,1,high,2 + 1 + 9 + 1 - 1,12,11,13,12,2092.974264700024,2095.0007600000245,2096.5163397000288,2101.534272400022,2102.332287600031,2102.3322940000216,2103.848812000011,2104.8662946000118,e,12,0.7980152000091039,1,+10,452,9.076032852363607,-0.5447958453872466,0.3005390157183545,2068954.0,-6.2902511232062395,0.03380312511442729,0.11619407734050435,2072488.0,,,,,2096.5142786135157,2092.980278613516,
127,5,22,f,1,3,119.0,5,1,low,6 + 1 + 1 + 9 - 1,16,15,14,16,2106.383203400008,2108.410825500032,2109.925346700009,2114.943102099991,2115.764351700025,2115.7643573000096,2117.280594300013,2118.2976951000164,e,16,0.8212496000342071,1,+1,453,-20.1812947309339,0.052504010040171245,0.023645698980089058,2082364.0,-27.09423917367552,0.19030919025351034,0.04891808524505503,2085896.0,,,,,2109.922278613516,2106.390278613516,
128,5,22,f,1,3,120.0,6,4,high,8 + 4 + 7 - 5 - 6,8,7,8,9,2119.814173199993,2121.8416707,2123.35647910001,2128.376284099999,2130.708334600029,2130.7083401000127,2132.224752400012,2133.2421264000004,w,8,2.332050500030164,1,+10,463,22.136512624544363,1.09853443734017,-0.1991033349014355,2095794.0,15.87667120579938,0.9577948482035259,0.10008816077699367,2099329.0,,,,,2123.355278613516,2119.8202786135157,
129,5,22,f,1,3,121.0,7,1,low,3 + 1 + 9 + 1 + 1,15,17,15,14,2134.7590760000166,2136.7865468999958,2138.301792600017,2143.3198207000387,2143.9724042000016,2143.972409999988,2145.4889117000275,2146.5051882000407,w,15,0.6525834999629296,1,+1,464,29.17889753711613,0.09667371690811999,-0.191617896970945,2110739.0,-32.09064148842475,0.13182467118118057,0.15232818949159288,2114273.0,,,,,2138.299278613516,2134.765278613516,
130,5,22,f,1,3,122.0,8,1,high,8 - 1 + 1 + 6 + 1,15,15,14,16,2148.021816399996,2150.047029600013,2151.5621795000043,2156.5811882000417,2157.3243239999865,2157.32432970003,2158.8413521000184,2159.8586436000187,q,15,0.7431357999448664,1,+10,474,2.3803655220490256,0.17616205093867365,0.006132419320289406,2124000.0,25.66396442921969,0.24859970573102008,0.29351992623757295,2127534.0,,,,,2151.560278613516,2148.026278613516,
131,5,22,f,1,3,123.0,9,1,high,2 + 9 + 1 + 1 + 1,14,13,12,14,2161.3749103000155,2163.3988123000017,2164.913927900023,2169.9323283000267,2170.540369099996,2170.54037490004,2172.0568318000296,2173.073673100036,e,14,0.608040799968876,1,+10,484,-29.342002438158225,-0.05134965104708433,-0.25988175022873117,2137351.0,3.2872999478048186,0.07318657709942333,0.06227064450327058,2140884.0,,,,,2164.910278613516,2161.377278613516,
132,5,22,f,1,3,124.0,10,3,high,4 + 8 - 9 + 1 + 7,11,13,9,11,2174.590561399993,2176.617751300044,2178.13236280001,2183.1519969000365,2185.4203778000083,2185.4203835999942,2186.937640900025,2187.95528590004,e,11,2.2683808999718167,1,+10,494,-36.36356996438956,0.5476338145891508,-0.19065958817561257,2150571.0,20.13425766905862,0.8724614790328269,0.045435715525118825,2154104.0,,,,,2178.1302786135157,2174.5972786135158,
133,5,22,f,1,3,125.0,11,2,low,5 + 9 - 8 + 1 + 1,8,9,8,7,2189.47199250001,2191.4991183000384,2193.01351280004,2198.0316227999865,2198.4524149000063,2198.4524208999937,2199.968980000005,2200.9865284000407,w,8,0.420792100019753,1,+1,495,11.193257519509622,0.7964388801791991,-2.546934593069108,2165452.0,-6.8822366881470245,-0.11851857913454511,-0.549180475791264,2168984.0,,,,,2193.0102786135158,2189.478278613516,
134,5,22,f,1,3,126.0,12,4,high,5 + 7 - 4 - 6 + 9,11,12,11,13,2202.502891900018,2204.5286720999866,2206.043569100031,2211.0634160999907,2214.5163414000417,2214.5163477000315,2216.032764300005,2217.049925200001,w,11,3.4529253000509925,1,+10,505,-6.878081480461303,0.8181445599572819,0.15152549581416697,2178481.0,29.238970559898494,1.0661820608819903,0.06006725359071918,2182016.0,,,,,2206.042278613516,2202.507278613516,
135,5,22,f,1,3,127.0,13,4,low,9 + 7 - 5 + 8 + 6,25,24,25,27,2218.566534300044,2220.590551100031,2222.105717700033,2227.1242918000207,2229.22036820004,2229.220373600023,2230.7366760000004,2231.7533052000217,w,25,2.0960764000192285,1,+1,506,51.736069826571516,0.8648968509457609,0.21410113532391928,2194543.0,-13.431882067451344,0.9335235610043955,-0.7660259100735543,2198077.0,,,,,2222.103278613516,2218.569278613516,
136,5,22,f,1,3,128.0,14,4,low,7 + 6 - 4 + 9 - 5,13,12,14,13,2233.27005630004,2235.295358700037,2236.8105766000226,2241.828686100024,2243.612377300044,2243.612383400032,2245.129271300044,2246.14608939999,e,13,1.7836912000202574,1,+1,507,8.849584144940037,1.0353434501247425,0.2679289731517591,2209248.0,-57.8493313847562,0.9202275906362167,-0.05066088813892988,2212781.0,,,,,2236.807278613516,2233.274278613516,
137,5,22,f,1,3,129.0,15,1,low,2 + 9 + 1 + 1 + 1,14,13,12,14,2247.6627206000267,2249.68874360004,2251.203901300032,2256.22140520002,2256.972431500035,2256.9724374000216,2258.4886174999992,2259.505620700016,e,14,0.751026300014928,1,+1,508,25.8786122919423,0.058930924884317726,-0.0709073318108,2223641.0,-10.414714218076444,-0.018496852580120127,-0.007573594141958573,2227174.0,,,,,2251.200278613516,2247.667278613516,
138,5,22,f,1,3,130.0,16,1,low,7 + 1 + 5 + 1 - 1,13,14,12,13,2261.02241580002,2263.047909900022,2264.5629480000352,2269.580742700025,2271.524402900017,2271.524408700003,2273.0408227000157,2274.057599099993,e,13,1.9436601999914276,1,+1,509,11.69107222922054,0.18558040926161246,-0.34672172624820563,2237000.0,-15.856351866798345,0.0819875032200239,0.09369778846906174,2240533.0,,,,,2264.5592786135157,2261.026278613516,
139,5,22,f,1,3,131.0,17,2,low,8 + 1 + 7 + 1 - 4,13,12,14,13,2275.5737914000056,2277.601962100016,2279.1170990000246,2284.1355644,2285.9083480000263,2285.908353200008,2287.424718399998,2288.4417734000017,q,12,1.7727836000267416,0,+0,509,20.20000339670931,0.9527860603514005,-0.04080548299157982,2251554.0,-14.465063618437966,1.0420961179467971,0.18989068841015544,2255088.0,,,,,2279.114278613516,2275.580278613516,
140,5,22,f,1,3,132.0,18,1,low,8 + 1 + 4 + 1 + 1,15,15,14,16,2289.95848760003,2291.9864501000266,2293.5016143000103,2298.5193204000243,2299.2923988000257,2299.29240440001,2300.80885999999,2301.8257221000385,q,15,0.7730784000013955,1,+1,510,-1.5954300233639476,0.061380013666021416,0.00778028081530735,2265938.0,25.713263842290736,0.1474753518049743,0.18964375409567458,2269471.0,,,,,2293.497278613516,2289.964278613516,
141,5,22,f,1,3,133.0,19,2,low,3 + 1 + 8 - 5 - 1,6,7,6,5,2303.3423977000057,2305.370704000001,2306.8861301,2311.9043967000325,2312.524463900016,2312.5244698000024,2314.0408203999978,2315.057650000032,w,6,0.6200671999831684,1,+1,511,21.000620072744773,0.8281758873951781,-0.14352001626654776,2279322.0,-46.4275000822306,0.7236691305962355,0.22946146016050828,2282856.0,,,,,2306.882278613516,2303.348278613516,
142,5,22,f,1,3,134.0,20,3,high,5 + 1 + 7 - 8 + 6,11,11,9,13,2316.574471800006,2318.600778300024,2320.116262800002,2325.135458600009,2325.732465500012,2325.732475000026,2327.2488927000086,2328.2661480000243,q,11,0.5970069000031799,1,+10,521,-4.691428939502703,-0.8848917526772038,-1.197787152675815,2292553.0,5.037890944302017,0.7336860984078402,0.29256823205919624,2296087.0,,,,,2320.113278613516,2316.5792786135157,
143,5,22,f,1,3,135.0,21,3,high,2 + 9 + 1 - 5 + 7,14,14,12,15,2329.782604600012,2331.807581200032,2333.322806900018,2338.341925500019,2339.9964057999896,2339.996411900036,2341.514045000018,2342.53119150002,w,12,1.6544802999706008,0,+0,521,47.744656618286726,0.4872063159565121,-0.30152281871351017,2305759.0,14.79569039247894,0.9255543624768703,-0.046707025751038245,2309293.0,,,,,2333.319278613516,2329.785278613516,
144,5,22,f,1,3,136.0,22,4,low,6 + 9 + 7 - 3 - 5,14,14,13,12,2344.0476706000045,2346.071447000024,2347.5866448000306,2352.6064303999883,2353.10834169999,2353.1083470000303,2354.6249006,2355.641803000006,q,14,0.501911300001666,1,+1,522,-2.919672136364639,0.658738556260523,-0.11466643539404586,2320023.0,-17.476715041202777,0.9190874617043931,0.25978280172646273,2323558.0,,,,,2347.584278613516,2344.049278613516,
145,5,22,f,1,3,137.0,23,1,low,7 + 1 + 6 + 1 + 1,16,16,17,18,2357.158504099993,2359.187080000004,2360.7020992999896,2365.7198822000064,2366.772430700017,2366.7724363000016,2368.289688799996,2369.306440300017,q,16,1.0525485000107435,1,+1,523,-22.822963233921424,0.23449647583803923,-0.11561184988194873,2333138.0,-26.93896094945638,0.11308317323892281,-0.21122462215040905,2336671.0,,,,,2360.6972786135157,2357.1642786135158,
146,5,22,f,1,3,138.0,24,3,low,2 + 1 + 9 - 5 + 6,13,13,14,11,2370.8229995000293,2372.849053499988,2374.365199599997,2379.3834029000136,2380.012449800037,2380.0124554000213,2381.5286663000006,2382.5453271000297,q,13,0.6290469000232406,1,+1,524,81.28963653401965,0.8910435943473771,-0.752395581036102,2346800.0,-3.005709642087708,0.9281912580151814,0.013933783846886927,2350335.0,,,,,2374.361278613516,2370.826278613516,
147,5,22,f,1,3,139.0,25,3,low,3 + 8 - 7 - 1 + 9,12,12,14,13,2384.0613305000006,2386.0845724000246,2387.599670900032,2392.618271899992,2393.44450740004,2393.444513100025,2394.9609705000184,2395.979020000028,q,12,0.8262355000479147,1,+1,525,3.0808032909930496,1.0095608683383113,-0.006840455297270731,2360036.0,-1.3820005470370855,0.698214198264645,-0.03659277295257923,2363570.0,,,,,2387.596278613516,2384.062278613516,
148,5,22,f,1,3,140.0,26,4,low,4 + 8 + 9 - 3 + 7,25,26,25,24,2397.495760400023,2399.5196892000386,2401.034934299998,2406.053189700004,2407.6924475000123,2407.692454200005,2409.2094967000303,2410.226891400001,q,26,1.639257800008636,0,+0,525,40.023479272279374,0.7670779131443748,-0.07757213080432246,2373471.0,18.889558775288684,0.6737033829592938,-0.006505254568728747,2377004.0,,,,,2401.0302786135157,2397.497278613516,
149,5,22,f,1,3,141.0,27,4,high,5 + 8 - 4 - 6 + 9,12,12,14,13,2411.7432170000397,2413.7714852000354,2415.2866073999903,2420.306113800034,2424.1724883000134,2424.1724942,2425.689703800017,2426.706726600009,e,13,3.866374499979429,0,+0,525,-2.603662770999925,-0.813662231079733,-0.4653006325833049,2387723.0,20.49380680243857,-0.31704718806309184,0.31792254173086176,2391257.0,,,,,2415.283278613516,2411.749278613516,
150,5,22,f,1,3,142.0,28,4,low,6 + 9 + 7 - 3 - 5,14,13,15,14,2428.223341300036,2430.2499493000214,2431.7650935000274,2436.783927600016,2438.524515500001,2438.524521299987,2440.040813,2441.057679300022,e,14,1.7405878999852575,1,+1,526,26.833263801679248,-22.754671953261244,-14.851003314064616,2404201.0,12.01606442438009,0.9589570437570316,-0.06243974444671663,2407735.0,,,,,2431.761278613516,2428.227278613516,
151,5,22,f,1,3,143.0,29,2,low,3 + 9 + 1 - 5 + 1,9,9,7,8,2442.5744518000283,2444.6004947000183,2446.1153829999967,2451.1333860000013,2452.540529399994,2452.540535200038,2454.056927400001,2455.073427300027,q,9,1.407143399992492,1,+1,527,3.1750786275830523,0.879830279075855,-0.178713853958395,2418551.0,4.939511576179367,0.719109874450256,0.15949061472547843,2422084.0,,,,,2446.1102786135157,2442.577278613516,
152,5,22,f,1,3,144.0,30,4,low,5 + 7 - 4 + 8 + 6,22,23,22,24,2456.589730100008,2458.6162294000387,2460.131912600016,2465.1507223999943,2468.0045582000166,2468.004564200004,2469.520453400037,2470.537302599987,w,22,2.8538358000223525,1,+1,528,15.728759114943553,0.37588430682679785,-0.057264415117915135,2432567.0,11.827380924452918,0.9003258813855155,0.19709673730701716,2436102.0,,,,,2460.1282786135157,2456.593278613516,
153,5,22,f,1,3,145.0,31,4,low,8 + 4 + 7 - 5 - 6,8,9,6,8,2472.053870600008,2474.079126299999,2475.594232600008,2480.6124560000026,2482.6845022999914,2482.684507900034,2484.20105470001,2485.218222700001,w,6,2.0720462999888696,0,+0,528,3.4899408887795644,0.9088539762951746,0.2133872120466418,2448030.0,-13.666450697523082,1.057352715561097,0.12260835613949128,2451563.0,,,,,2475.589278613516,2472.056278613516,
154,5,22,f,1,3,146.0,32,4,low,3 + 8 - 4 + 9 + 7,23,22,24,23,2486.7348117000074,2488.7738473000354,2490.288891000033,2495.3074314999976,2496.83656190004,2496.836567500024,2498.3530162000097,2499.369909900008,e,23,1.5291304000420496,1,+1,529,-26.55083976978593,0.9224624528133043,0.13231525711855574,2462724.0,19.708861493505225,1.0396491099766911,0.18105113595720557,2466258.0,,,,,2490.2842786135157,2486.750278613516,
155,5,22,f,1,3,147.0,33,1,high,6 + 9 + 1 + 1 - 1,16,14,16,15,2500.886264300032,2502.913412599999,2504.428483400028,2509.4466669000103,2510.2044627,2510.2044678000384,2511.7208147000056,2512.738166700001,w,16,0.7577957999892533,1,+10,539,-9.903585420095755,-0.01686245144712295,-0.627386724321142,2476864.0,19.589602358144255,0.15159280784061036,0.3014784246544362,2480397.0,,,,,2504.423278613516,2500.890278613516,
156,5,22,f,1,3,148.0,34,4,high,8 + 4 - 5 + 7 - 6,8,8,7,6,2514.255125400028,2516.2783828999964,2517.7932439,2522.811623400019,2526.0125920000137,2526.012597699999,2527.5290461000404,2528.5460239000386,w,7,3.200968599994667,0,+0,539,-22.595921479359884,0.8949865755523421,0.03668523507467092,2490229.0,8.731668240560182,0.829783149612314,0.04431832606224706,2493762.0,,,,,2517.788278613516,2514.2552786135157,
157,5,22,f,1,3,149.0,35,1,high,4 + 9 + 1 - 1 - 1,12,13,11,12,2530.062935599999,2532.089327000024,2533.604570400028,2538.622594300017,2539.4286764000426,2539.4286819000263,2540.9450317000155,2541.9626898000133,e,12,0.8060821000253782,1,+10,549,21.78332520104214,-0.3986548422852616,0.27906365599872807,2506039.0,-2.2335606038821076,-0.07594243036933102,-0.056952247372787035,2509573.0,,,,,2533.5992786135157,2530.065278613516,
158,5,22,f,1,3,150.0,36,1,low,9 + 8 + 1 + 1 - 1,18,18,20,17,2543.479542599991,2545.505916599999,2547.0204755000304,2552.0384592000046,2552.9484976000385,2552.948503000021,2554.464827699994,2555.4804204000397,q,18,0.9100384000339544,1,+1,550,6.213176331286849,-0.09290754093527664,0.21263363952668568,2519456.0,-9.34225983387254,0.04006903302402032,0.0021823234314368722,2522989.0,,,,,2547.015278613516,2543.482278613516,
159,5,22,f,1,3,151.0,37,3,low,6 + 1 + 8 + 7 - 9,13,14,13,15,2556.9976696000085,2559.024209199997,2560.5393886000384,2565.5594218000188,2568.8285555000184,2568.828561200004,2570.3450828000205,2571.362257300003,q,14,3.2691336999996565,0,+0,550,-51.04530128140938,0.8525517613821851,0.056211590114313204,2532974.0,9.363699094410295,0.8454708876788277,0.08432496878070705,2536510.0,,,,,2560.536278613516,2557.000278613516,
160,5,22,f,1,4,152.0,0,4,low,3 + 8 - 5 + 9 - 7,8,8,7,6,2591.1846274000127,2593.21057190001,2594.7264827000326,2599.745813400019,2601.9726348000117,2601.972640599997,2603.4888928,2604.505332500033,q,8,2.226821399992332,1,+1,551,3.5379306785759272,0.24163666291001507,-0.5151280735556782,2567161.0,-21.942041211568924,0.14456847143348295,-0.7086938895722623,2570696.0,,,,,2594.7222786135158,2591.187278613516,
161,5,22,f,1,4,153.0,1,4,high,4 + 7 + 8 - 3 + 9,25,26,25,24,2606.0220545000047,2608.049797900021,2609.564941800025,2614.583558000042,2617.372615500004,2617.372620999988,2618.88893700001,2619.9060624000267,q,26,2.7890574999619275,0,+0,551,-46.53041279669006,0.8302319652409671,-0.6443283065697987,2581999.0,-10.193442387516276,0.35645882192756995,-0.7125632400954478,2585534.0,,,,,2609.560278613516,2606.0252786135156,
162,5,22,f,1,4,154.0,2,2,high,6 + 1 + 8 + 5 - 1,19,17,19,18,2621.4228709000163,2623.4478957999963,2624.963089600031,2629.982889200037,2630.6686821000185,2630.668687600002,2632.185210500029,2633.202288000029,w,19,0.6857928999816068,1,+10,561,2.039502857574586,0.7911565145731048,0.25799432822019,2597398.0,8.407033634493004,0.8264585292367086,-0.1641463343577605,2600933.0,,,,,2624.959278613516,2621.424278613516,
163,5,22,f,1,4,155.0,3,3,high,2 + 9 - 3 + 4 + 1,13,13,11,14,2634.7191729000187,2636.746008999995,2638.260821200034,2643.27912750002,2645.2526761000045,2645.252681699989,2646.769007600029,2647.786068700021,q,13,1.9735485999844968,1,+10,571,19.792531418284646,1.164504114487261,0.16428984589845053,2610696.0,10.499155608311312,0.3786953018773489,-0.03320051498715215,2614229.0,,,,,2638.2552786135157,2634.7222786135158,
164,5,22,f,1,4,156.0,4,2,low,9 + 1 + 6 + 7 + 1,24,23,24,25,2649.302665400028,2651.326150500041,2652.8410458000144,2657.8596508000046,2658.4126585000195,2658.412664400006,2659.929049600032,2660.9457171999966,w,24,0.5530077000148594,1,+1,572,-1.7213906105361456,0.7642233602023691,-0.2185385428309048,2625276.0,10.226320594841477,0.88865636174864,0.11020181331411916,2628809.0,,,,,2652.835278613516,2649.3022786135157,
165,5,22,f,1,4,157.0,5,3,low,4 + 5 - 3 + 7 - 1,12,11,12,13,2662.46326660004,2664.490055400005,2666.0053135000053,2671.02435110003,2671.724582900002,2671.7245883000437,2673.2410944000003,2674.2577508999966,w,12,0.7002317999722436,1,+1,573,-1.702701296492311,0.9397723291777913,-0.5845671053162098,2638440.0,-33.336038654216395,0.650121351560619,0.044609724233694914,2641974.0,,,,,2666.000278613516,2662.466278613516,
166,5,22,f,1,4,158.0,6,1,low,8 + 1 + 1 - 1 - 4,5,5,6,3,2675.7744042000268,2677.802712100034,2679.3177350999904,2684.3365189000037,2685.1166941000265,2685.1166995000094,2686.6331702999887,2687.6498566000373,q,5,0.7801752000232227,1,+1,574,33.05537092039924,-0.1754557511978756,0.017298906624127586,2651752.0,-21.68477875593177,0.1981490784368316,-0.019641724065157407,2655285.0,,,,,2679.3112786135157,2675.778278613516,
167,5,22,f,1,4,159.0,7,3,low,2 + 1 + 9 - 4 + 6,14,16,14,15,2689.166493800003,2691.194626200013,2692.709909200028,2697.728644100018,2698.2126819000114,2698.212687399995,2699.7292477000155,2700.746046699991,w,14,0.4840377999935299,1,+1,575,-28.35649625503552,0.7388061095304681,0.10689394731380242,2665144.0,-20.745947494042763,0.5879183403460075,-0.8668409600213631,2668678.0,,,,,2692.7042786135157,2689.1702786135156,
168,5,22,f,1,4,160.0,8,2,high,9 + 6 + 1 + 7 + 1,24,25,23,24,2702.262815000024,2704.290781899996,2705.8059138000244,2710.822766199999,2711.4686262999894,2711.4686318000317,2712.985759800009,2714.003242800012,e,24,0.6458600999903865,1,+10,585,11.99452627002876,0.5635645178950255,-0.14194891099396245,2678240.0,3.8492561166364716,0.6422520629197779,-0.04588563717537952,2681773.0,,,,,2705.799278613516,2702.2662786135156,
169,5,22,f,1,4,161.0,9,2,high,5 + 7 - 8 + 1 + 1,6,6,8,7,2715.519927599991,2717.5449242999894,2719.0601659000386,2724.0786198000424,2724.860686500033,2724.860692000017,2726.377575199993,2727.394865999988,q,6,0.782066699990537,1,+10,595,-44.145332901688,1.1404309392983416,0.0262442957952973,2691495.0,-1.5406362328762384,1.0983428500102863,0.37087197021435214,2695028.0,,,,,2719.0542786135156,2715.5212786135157,
170,5,22,f,1,4,162.0,10,4,low,3 + 9 - 4 + 7 + 6,21,21,19,20,2728.911494,2730.93933860003,2732.454384599987,2737.472757600015,2738.3086033000145,2738.308608399995,2739.825025200029,2740.8417698999983,q,21,0.8358456999994814,1,+1,596,-15.412251065796912,1.2104866882135206,0.13334385305746288,2704888.0,-12.801112197439037,1.0102663862491679,0.057937177476332646,2708422.0,,,,,2732.448278613516,2728.9142786135158,
171,5,22,f,1,4,163.0,11,4,high,9 + 3 - 5 + 8 + 6,21,19,23,21,2742.3582943000365,2744.384904900042,2745.9006779000047,2750.9188968000235,2752.9886432000203,2752.988648900005,2754.505284000013,2755.5224042999907,e,21,2.069746399996802,1,+10,606,17.619950318279198,0.05470388422301786,-0.7044661436592312,2718334.0,-27.7912694477146,0.9390080318606078,0.22487471179291663,2721868.0,,,,,2745.894278613516,2742.3602786135157,
172,5,22,f,1,4,164.0,12,4,low,9 + 4 - 6 + 8 + 7,22,24,22,21,2757.0397809999995,2759.0662673999905,2760.5809206000413,2765.600728999998,2767.548729900038,2767.5487355000223,2769.0652454000083,2770.082582300005,q,24,1.948000900039915,0,+0,606,-0.6149085069633422,-1.618169994298213,-4.0662844416595,2733015.0,-3.198578758188628,0.8757472970330127,0.5995098333450182,2736550.0,,,,,2760.576278613516,2757.0412786135157,
173,5,22,f,1,4,165.0,13,4,low,5 + 7 - 4 + 6 + 9,23,25,24,23,2771.599376500002,2773.6230338999885,2775.138304800028,2780.15640929999,2781.2047751999926,2781.204781100037,2782.7210133000044,2783.7378631000174,e,23,1.0483659000019545,1,+1,607,-22.059939743368034,0.8717404723427455,0.050748082049116405,2747572.0,34.786279567170745,0.9429390990945696,-0.09794267661389444,2751106.0,,,,,2775.132278613516,2771.598278613516,
174,5,22,f,1,4,166.0,14,1,high,2 + 1 + 1 + 9 - 1,12,13,12,11,2785.2545304000378,2787.2843368999893,2788.7994353999966,2793.8176123999874,2794.316672899993,2794.3166783000343,2795.833109700005,2796.8503177000093,w,12,0.4990605000057257,1,+10,617,-0.22619684388281813,0.06475838428139458,-0.031053180142912362,2761233.0,-7.3366736710705,-0.7753805410072065,0.11903914431130791,2764767.0,,,,,2788.7932786135157,2785.259278613516,
175,5,22,f,1,4,167.0,15,2,low,8 + 1 + 1 + 9 - 4,15,15,16,14,2798.367288300011,2800.3922691000043,2801.908455100027,2806.926319100021,2807.8526495000115,2807.852655499999,2809.3690397000173,2810.385730400041,q,15,0.9263303999905474,1,+1,618,-8.29849665810703,0.9500062943383702,-0.17005886446684682,2774341.0,-8.935559513138617,0.6906513013045454,0.14552301321060757,2777875.0,,,,,2801.901278613516,2798.3672786135157,
176,5,22,f,1,4,168.0,16,1,low,7 - 1 + 9 + 1 - 1,15,13,15,14,2811.90226360003,2813.9282200000016,2815.443185699987,2820.4632614,2823.876764899993,2823.876770800038,2825.3932405000087,2826.410300699994,w,15,3.413503499992657,1,+1,619,13.30569529014159,0.03766472215992667,0.03606998305678233,2787877.0,-9.58511438033999,0.007566467213107275,0.1358494194033779,2791412.0,,,,,2815.4382786135156,2811.903278613516,
177,5,22,f,1,4,169.0,17,3,low,7 - 5 + 9 + 1 - 4,8,8,7,9,2827.9270134000108,2829.953176799987,2831.4684940000298,2836.4866711000213,2837.0527264000266,2837.052731500007,2838.569095200044,2839.585872800031,q,8,0.566055300005246,1,+1,620,42.32529368097321,-0.295710145783179,-0.5732598641216704,2803902.0,-18.85833185480572,0.8675130646017755,0.22697316829644842,2807435.0,,,,,2831.461278613516,2827.928278613516,
178,5,22,f,1,4,170.0,18,4,high,5 + 9 - 4 + 7 + 6,23,24,23,25,2841.102588700014,2843.126456600032,2844.641147200018,2849.660112600017,2850.0846988999983,2850.08470440004,2851.6011179999914,2852.6182368000154,w,23,0.4245862999814562,1,+10,630,0.6289326564609024,1.080744636684521,-0.22381613818183954,2817075.0,-6.102254926840329,0.6108777541205994,-0.11626155659317972,2820609.0,,,,,2844.6352786135158,2841.1012786135157,
179,5,22,f,1,4,171.0,19,2,high,3 + 8 + 1 - 5 + 1,8,6,8,9,2854.135336000006,2856.1617583000334,2857.676579400024,2862.6947983000427,2864.980684900016,2864.980690700002,2866.497105700022,2867.5140647999942,q,6,2.28588659997331,0,+0,630,1.9047505442369221,0.46452958441551395,-1.3046628430629919,2830110.0,-30.230350523241817,0.7057563309491532,0.10685532840300782,2833643.0,,,,,2857.669278613516,2854.136278613516,
180,5,22,f,1,4,172.0,20,3,low,3 + 1 + 8 - 5 + 6,13,14,15,13,2869.030855600024,2871.058206000016,2872.5732996000443,2877.591651600029,2878.3567326000198,2878.3567384000053,2879.873580400017,2880.8899244000204,e,13,0.7650809999904595,1,+1,631,-53.02666663938789,0.9653076874812905,0.3719836423706959,2845007.0,9.543476657954075,1.0525823843755242,-0.6188750570374015,2848540.0,,,,,2872.566278613516,2869.033278613516,
181,5,22,f,1,4,173.0,21,4,high,8 + 5 - 4 + 7 + 9,25,26,25,24,2882.406556300004,2884.42963030003,2885.9466071000206,2890.966492200037,2894.644738300005,2894.64474399999,2896.1611996000283,2897.1784405999933,w,25,3.6782460999675095,1,+10,641,1.874817239547271,0.6716992892820461,1.2312967659393306,2858378.0,19.079689667032458,0.7246604129687553,-0.05669102484669386,2861915.0,,,,,2885.941278613516,2882.404278613516,
182,5,22,f,1,4,174.0,22,3,low,3 + 8 - 7 + 1 + 9,14,14,12,13,2898.694935400039,2900.7196288999985,2902.2345087000285,2907.2541210000054,2907.868745499989,2907.8687512000324,2909.385161400016,2910.401877199998,q,14,0.6146244999836199,1,+1,642,-5.501070632748528,1.9391664146403493,0.965361896598588,2874668.0,15.57171426127762,-0.47343080584671027,-0.7532407263730327,2878203.0,,,,,2902.229278613516,2898.694278613516,
183,5,22,f,1,4,175.0,23,4,high,3 + 8 - 4 + 9 + 6,22,22,23,21,2911.918804500019,2913.9416786000365,2915.4568302000407,2920.4746420999872,2922.572864999994,2922.5728710000403,2924.0893805000237,2925.1066186000244,w,23,2.0982229000073858,0,+0,642,25.386949394052987,0.9618892223151854,0.31769688841607757,2887890.0,10.543277715806802,0.3278784809680624,-0.8783694402545765,2891423.0,,,,,2915.4492786135156,2911.9162786135157,
184,5,22,f,1,4,176.0,24,2,low,6 + 1 + 1 + 8 - 9,7,7,9,5,2926.623469399987,2928.647321900004,2930.162372599996,2935.180259099987,2935.724701900035,2935.724707300018,2937.241056900006,2938.2580590000143,q,7,0.5444428000482731,1,+1,643,-35.47684510107115,0.9167179603859992,0.10174560286723855,2902595.0,17.423878214712808,0.7442905967202011,0.050101444834902864,2906129.0,,,,,2930.1552786135157,2926.6212786135156,
185,5,22,f,1,4,177.0,25,4,low,6 + 5 - 7 + 8 - 9,3,5,3,4,2939.7748995000147,2941.8023050000197,2943.3175969999866,2948.336112299992,2949.5327897000243,2949.532795400009,2951.049315500015,2952.0662260000245,w,3,1.1966774000320584,1,+1,644,-9.9218793066674,0.7450872126367902,-0.05301030614812996,2915750.0,30.12651255105015,0.9073806746255095,-0.11496012311061587,2919284.0,,,,,2943.310278613516,2939.776278613516,
186,5,22,f,1,4,178.0,26,3,low,5 - 1 - 4 + 6 + 7,13,14,15,13,2953.5831434000283,2955.6108564999886,2957.125688,2962.144321300031,2962.972766400024,2962.972772600013,2964.489535200002,2965.506429000001,e,13,0.8284450999926776,1,+1,645,-38.92015166771773,0.7736969077175391,0.13896756525131493,2929559.0,-7.084819401153698,0.6921441944025255,0.20850721686720197,2933092.0,,,,,2957.118278613516,2953.585278613516,
187,5,22,f,1,4,179.0,27,1,low,6 + 1 + 8 + 1 + 1,17,17,15,16,2967.023209100007,2969.0500892000277,2970.564902400016,2975.5839336999925,2976.3168493999983,2976.316855799989,2977.833393100009,2978.849627299991,q,17,0.7329157000058331,1,+1,646,-69.20703319210682,0.6757062083519676,0.521493276869265,2942998.0,9.052139375821774,-0.04445623664164078,0.10250336878131172,2946532.0,,,,,2970.558278613516,2967.024278613516,
188,5,22,f,1,4,180.0,28,3,high,4 + 8 - 3 + 5 - 1,13,14,13,12,2980.3666195000405,2982.394914400007,2983.909723400022,2988.928044500004,2989.412810600013,2989.412815899996,2990.9294195999973,2991.946683900024,w,13,0.4847661000094376,1,+10,656,-0.6172390137467758,0.645798803041735,0.2751533526632106,2956343.0,-15.35637836645975,0.569756895691083,0.10289163451136485,2959876.0,,,,,2983.902278613516,2980.3692786135157,
189,5,22,f,1,4,181.0,29,2,high,9 + 4 - 6 + 1 - 1,7,9,8,7,2993.4625389000284,2995.4878201000392,2997.0023921999964,3002.021535600012,3003.388773499988,3003.388779300032,3004.905118800001,3005.922436700028,e,7,1.3672378999763168,1,+10,666,11.2686804803128,-0.42823428520786644,-3.085222234769952,2969435.0,35.64044437028413,0.576530704479207,-0.1509169192517188,2972969.0,,,,,2996.995278613516,2993.461278613516,
190,5,22,f,1,4,182.0,30,4,high,5 + 8 - 6 + 7 + 4,18,19,17,18,3007.439171200036,3009.467160100001,3010.9823405999923,3016.0006374000222,3020.83691730001,3020.8369267000235,3022.354034000018,3023.3716218000045,q,19,4.836279899987858,0,+0,666,25.085169724025477,0.7079599317946736,-0.36393325325209736,2983415.0,-10.80366034713147,0.605226061065915,0.0480362419384337,2986948.0,,,,,3010.9742786135157,3007.441278613516,
191,5,22,f,1,4,183.0,31,2,high,4 + 9 + 1 - 7 - 1,6,8,6,5,3024.888160200033,3026.9128545999997,3028.427727800037,3033.4458292000345,3034.0368141999934,3034.0368197000357,3035.5532265999936,3036.5704654,w,6,0.5909849999588914,1,+10,676,16.23740040981734,0.11336918975788102,-0.1460310615835434,3000860.0,-30.779922577524705,0.8503469680499545,0.1756796833294212,3004394.0,,,,,3028.4202786135156,3024.886278613516,
192,5,22,f,1,4,184.0,32,4,high,7 + 6 + 8 - 4 + 5,22,22,21,23,3038.087204200041,3040.114022199996,3041.628897699993,3046.648869000026,3050.0208944000187,3050.020900000003,3051.537366500008,3052.5545593000134,q,22,3.372025399992708,1,+10,686,-32.539395786522746,-0.5233650298491774,-3.447844675117906,3014062.0,-0.9924525892623173,0.4901195362259534,0.08328314225420641,3017596.0,,,,,3041.622278613516,3038.0882786135157,
193,5,22,f,1,4,185.0,33,2,low,2 + 1 + 9 - 4 + 1,9,8,9,11,3054.071160599997,3056.0978319999995,3057.613119799993,3062.6313129999908,3063.22164980002,3063.2216566000134,3064.738163800037,3065.755326399987,w,9,0.5903368000290357,1,+1,687,8.705390424850393,0.6523793336320911,-0.13762008783831847,3030045.0,-2.817311866069966,0.6878673483729143,0.17483312549178942,3033579.0,,,,,3057.605278613516,3054.071278613516,
194,5,22,f,1,4,186.0,34,2,high,3 + 9 - 1 - 5 + 1,7,7,5,6,3067.271966900036,3069.298262700031,3070.8143732000026,3075.833740800037,3076.580856000015,3076.580861800001,3078.0970996000106,3079.11433110002,q,7,0.7471151999779977,1,+10,697,-25.379223508126966,0.7748211975658394,0.020555680734498427,3043245.0,13.287998125969125,0.8171066880870512,0.34353360953876577,3046781.0,,,,,3070.807278613516,3067.2712786135157,
195,5,22,f,1,4,187.0,35,3,high,7 - 1 + 8 - 6 + 4,12,11,13,12,3080.6310247000074,3082.6579435000317,3084.173089599993,3089.191644300008,3093.1648175000446,3093.164823900035,3094.681462400011,3095.698573300033,e,12,3.973173200036399,1,+10,707,21.449841746891572,0.8184062982286195,-0.12479174465453924,3056605.0,-11.72573394409751,0.45618363449421206,-0.005213035004198119,3060139.0,,,,,3084.165278613516,3080.631278613516,
196,5,22,f,1,4,188.0,36,3,low,4 + 1 + 8 + 9 - 5,17,17,18,19,3097.2153030000045,3099.2392880000407,3100.7544041000074,3105.7736813999945,3106.2768489000155,3106.2768545,3107.7930835000006,3108.8099666000344,w,18,0.5031675000209361,0,+0,707,11.971204326426744,1.6947615016641584,2.4348849431562734,3073186.0,-22.74581593611204,0.401053661796555,-0.4086863019263638,3076721.0,,,,,3100.747278613516,3097.212278613516,
197,5,22,f,1,4,189.0,37,4,low,7 + 8 - 4 + 6 - 5,12,12,11,13,3110.3265858000377,3112.3498078000266,3113.865581299993,3118.883720999991,3120.245008400001,3120.245014000044,3121.76166280004,3122.7787496999954,e,13,1.361287400010042,0,+0,707,-14.460974422956197,1.1154935672645945,0.12737547082503342,3086297.0,-53.19268473102622,1.127195980032464,0.20291573272318564,3089831.0,,,,,3113.857278613516,3110.323278613516,
198,5,22,f,1,5,190.0,0,3,high,7 + 1 + 9 + 5 - 6,16,14,15,16,3137.433318399999,3139.4599787000334,3140.974922500027,3145.9949622999998,3146.484832799993,3146.484838000033,3148.001269600005,3149.0183413000195,e,16,0.4898704999941401,1,+10,717,2.546152132316754,0.6519246533598748,0.687458103923253,3113407.0,-16.710190989629872,0.2358743205766487,-0.020923163430337066,3116942.0,,,,,3140.968278613516,3137.433278613516,
199,5,22,f,1,5,191.0,1,3,low,5 + 6 - 4 - 1 + 8,14,14,16,15,3150.5351172999945,3152.558110699989,3154.072488500038,3159.09041470004,3159.924836900027,3159.924842600012,3161.4414977999986,3162.458309400012,q,14,0.8344221999868751,1,+1,718,12.371507919510096,0.5998053325561998,-0.12515488848070433,3126504.0,27.659115120300036,1.030487654635595,0.23446552371129004,3130037.0,,,,,3154.0632786135156,3150.5302786135157,
