,id,age,sex,cued,block,trial,trialinblock,efflev,rewlev,calc,corAns,option1,option2,option3,tstart,ITI1Time,probTime,respTime,selectTime,ITI2Time,fbTime,ITI3Time,key_press,chosenAns,RT,acc,feedback,total_points,cuescr,cuecor,cuezyg,cuetime,probscr,probcor,probzyg,probtime,fbscr,fbcor,fbzyg,fbtime,probtime_c,cuetime_c,fbtime_c
0,60,28,M,0,Practice,,0,1,0,4 + 1 + 9 + 1 + 1,16,14,16,15,23.985183299984783,,23.98518590000458,29.07840779999969,30.220883600006346,30.22089039999992,31.738217199977957,32.75904709997121,w,16,1.1424758000066504,1,Correct,0,,,,,-0.8002544153327662,-3.275337760887874,-0.18437654233442702,22730.0,-44.94155834281332,-0.5141065340585822,-0.08827699264475197,30410.0,24.06424445898916,,31.74424445898916
1,60,28,M,0,Practice,,1,1,0,3 + 1 + 1 + 8 - 1,12,11,12,10,34.27613129996462,,34.27613429998746,39.29827229998773,39.95686629996635,39.9568724000128,41.47391249996144,42.49204420001479,w,12,0.6585939999786206,1,Correct,0,,,,,-25.410156913429066,-0.81718017799572,0.055644799322523975,32949.0,-7.0406289235020125,-16.2248636630546,-0.06766399777934984,40143.0,34.28324445898916,,41.47724445898916
2,60,28,M,0,Practice,,2,2,0,8 + 1 + 6 + 1 - 4,12,10,12,11,44.01007249997929,,44.01007809996372,49.03009329998167,49.69301390001783,49.693020100006834,51.21056229999522,52.22778469999321,w,12,0.6629206000361592,1,Correct,0,,,,,3.1573134422649822,0.8283460330242924,3.3821335195275593,42681.0,-4.506044380151174,0.8891813894417719,-0.5893521544976776,49879.0,44.01524445898916,,51.21324445898916
3,60,28,M,0,Practice,,3,2,0,9 + 4 - 6 + 1 - 1,7,7,6,5,53.74451639998006,,53.7445194000029,58.7635997000034,59.17281289998209,59.17281889996957,60.68849029997364,61.70553520001704,q,7,0.4092131999786943,1,Correct,0,,,,,-8.422000793026655,-0.4221546033543948,0.9757157682542292,52415.0,2.3976634958312704,4.289577617820864,-0.1127984105841624,59357.0,53.74924445898916,,60.69124445898916
4,60,28,M,0,Practice,,4,3,0,9 + 3 - 5 + 6 + 7,20,20,22,21,63.22224430000642,,63.22224729997106,68.24165420001373,68.77300599997398,68.7730123999645,70.29030940000666,71.30811290000565,q,20,0.5313517999602482,1,Correct,0,,,,,-16.34350249067727,2.323034851512883,0.07751166441711765,61893.0,9.678607381182768,4.903453367069982,-0.1663959120094176,68959.0,63.22724445898916,,70.29324445898916
5,60,28,M,0,Practice,,5,3,0,2 + 1 + 9 - 7 + 6,11,11,9,10,72.82513869996183,,72.82514169998467,77.84456050000153,78.46106599998893,78.46107199997641,79.97829279996222,80.99647620000178,q,11,0.6165054999873973,1,Correct,0,,,,,37.08947933555123,-17.83973795531773,-0.06744927848522764,71496.0,-13.556843100024452,-0.31134168408279184,0.0526462589089427,78648.0,72.83024445898916,,79.98224445898916
6,60,28,M,0,Practice,,6,4,0,4 + 8 + 5 - 3 + 7,21,22,21,23,82.51369859999977,,82.51370149996364,87.534525999974,88.06076570000732,88.06077189999633,89.57781909999903,90.59616419998927,w,21,0.5262397000333294,1,Correct,0,,,,,-10.481229717605661,0.45344302613434806,0.022315988365082307,81185.0,12.11078452850538,-11.908168659174024,2.575829947317732,88247.0,82.51924445898916,,89.58124445898916
7,60,28,M,0,Practice,,7,4,0,5 + 8 - 4 + 6 + 9,24,22,24,23,92.11343149997992,,92.11343480000504,97.13300919998436,97.69280839996644,97.6928145000129,99.20956129999831,100.22797429998172,w,24,0.5597991999820806,1,Correct,0,,,,,-5.793638423470281,-0.718742768387858,-1.532008331931868,90784.0,-14.749930116952626,5.101970607103339,0.524573657313796,97879.0,92.11824445898917,,99.21324445898917
8,60,28,M,1,0,0.0,0,4,high,2 + 9 - 3 + 5 + 8,21,22,21,23,200.74634379998315,202.82015430001772,204.3352741000126,209.35384719999277,209.8343923999928,209.8343972999719,211.3507801999804,212.36905019998085,w,21,0.4805452000000514,1,+10,10,-23.97859414617885,-1.920618133349679,2.0796990102320496,199471.0,-8.567379100128594,2.7138210439186023,-9.79895593548823,203004.0,-0.3835924323138915,0.6105909903072435,0.0867909941430165,210019.0,204.33824445898915,200.80524445898916,211.35324445898917
9,60,28,M,1,0,1.0,1,3,high,8 - 7 + 9 + 1 + 4,15,15,14,16,213.88601179997204,215.95805299998028,217.47313820000272,222.49195559998043,222.9223867999972,222.9223921999801,224.43847369996365,225.45520550000947,q,15,0.4304312000167556,1,+10,20,11.359138633554041,-1.7136374331154016,0.6705161400505832,212609.0,-4.584958530102572,-0.7350799390245504,-0.021107131235711396,216143.0,-19.939387526507385,0.20572976145973065,-0.023102838710617135,223107.0,217.47724445898916,213.94324445898917,224.44124445898916
10,60,28,M,1,0,2.0,2,4,high,6 + 7 + 9 - 3 + 5,24,23,22,24,226.97186180000423,228.99519459996367,230.5100501999841,235.5300530999666,236.69043529999908,236.69044049998047,238.20710150001105,239.2243107999675,e,24,1.1603822000324726,1,+10,30,7.038945604484205,-2.8979987376844853,-2.268043636235653,225647.0,12.044086093615084,0.23302640267122943,0.04493083303275247,229181.0,8.826667286924195,-0.33682124411907033,0.12429731287631895,236875.0,230.51524445898917,226.98124445898915,238.20924445898916
11,60,28,M,1,0,3.0,3,3,high,7 - 5 + 9 + 1 - 4,8,9,8,7,240.74125209997877,242.7638579999912,244.2787834999617,249.29732549999608,249.93040869996184,249.9304140000022,251.4471021000063,252.46480419998989,w,8,0.6330831999657676,1,+10,40,5.0106361941076,-0.4261314014698909,-0.13237127889342792,239414.0,15.868236165526074,-0.11072475809798377,-0.1991230890136193,242948.0,11.205904340498549,2.9651036015838717,0.37294802435257957,250115.0,244.28224445898917,240.74824445898915,251.44924445898917
12,60,28,M,1,0,4.0,4,2,high,8 + 1 + 9 + 1 - 5,14,13,14,15,253.9816870999639,256.05004090000875,257.5658512999653,262.58382669999264,263.01036939996993,263.01037480001105,264.5270936000161,265.5443431999884,w,14,0.4265426999772899,1,+10,50,-2.325346024630756,-0.0636945318876414,-0.12613038809375787,252700.0,0.8972383731880607,-1.136781045396308,-0.12222580393459603,256235.0,11.509427671035876,4.982384050320993,0.8407212118303118,263195.0,257.56924445898915,254.03424445898915,264.5292444589891
13,60,28,M,1,0,5.0,5,1,low,7 - 1 + 8 + 1 - 1,14,13,14,12,267.0608661000151,269.08785760001047,270.6033561999793,275.6231076999684,276.0183913999936,276.0183966999757,277.53571650001686,278.5515788999619,w,14,0.3952837000251747,1,+1,51,-10.631594157051367,-7.987356924690083,-1.2130971144514224,265738.0,7.907457099974124,0.07812174322994991,-0.14835507277830517,269274.0,8.914574692976585,0.6686971519183693,-0.24189676779003744,276203.0,270.60824445898913,267.07224445898913,277.5372444589891
14,60,28,M,1,0,6.0,6,4,low,4 + 7 + 8 - 3 + 9,25,25,26,24,280.06828090001363,282.12636699998984,283.64140359999146,288.6602256000042,289.098315500014,289.0983208999969,290.61488259996986,291.63192419998813,q,25,0.4380899000097997,1,+1,52,2.0388847614960746,5.416007357611555,0.1640765829361408,278777.0,-43.04696310748187,0.44544848744931187,-0.05758819537393167,282312.0,-2.4363603316581717,0.9822101987149532,0.07531160606884812,289282.0,283.64624445898914,280.1112444589891,290.6162444589891
15,60,28,M,1,0,7.0,7,2,high,5 + 7 - 8 + 1 + 1,6,8,6,7,293.14878819999285,295.1751704000053,296.690140599967,301.7090761999716,302.0665563999792,302.0665619999636,303.583006699977,304.6000843999791,w,6,0.3574802000075578,1,+10,62,0.636288440929512,1.483592320271554,0.3900605471549494,291825.0,-3.681513454406627,-2.50567277540397,-0.09259018852647483,295360.0,8.982905884035224,-0.9194072973743879,0.05827220041814973,302251.0,296.69424445898915,293.1592444589891,303.5852444589891
16,60,28,M,1,0,8.0,8,4,high,3 + 9 - 5 + 6 + 8,21,23,21,22,306.1173546999926,308.1446178999613,309.65993079997133,314.67804859997705,315.162235900003,315.16224089998286,316.6796583000105,317.6970045999624,w,21,0.4841873000259511,1,+10,72,-0.9434269950915795,1.1803551525549114,0.10947949060038775,304795.0,10.204871337015405,-0.7540305871927044,-0.4448191714257561,308329.0,-9.302377453278954,2.6835979778941637,-0.02426187458821749,315347.0,309.66324445898914,306.12924445898915,316.6812444589891
17,60,28,M,1,0,9.0,9,2,high,4 + 8 + 1 + 1 - 5,9,9,8,11,319.21410729998024,321.2418760000146,322.7571677999804,327.77567279996583,328.3382067999919,328.3382118999725,329.8547629999812,330.87218339997344,q,9,0.5625340000260621,1,+10,82,28.264027056012015,7.085613200190028,1.5964562781736102,317892.0,9.334453765290812,0.005071822893150113,-0.13543020717269671,321426.0,33.15282288477542,-2.1688498668311667,3.084666773782597,328522.0,322.7602444589891,319.22624445898913,329.8562444589891
18,60,28,M,1,0,10.0,10,4,high,9 + 8 - 5 - 7 + 6,11,10,13,11,332.3902069000178,334.4163850999903,335.9315317000146,340.9502621999709,341.4502826000098,341.4502880999935,342.9670022999635,343.98432879999746,e,11,0.5000204000389203,1,+10,92,52.98520235623006,-8.12316403347798,-9.574715001713036,331067.0,18.1523029888801,-1.2935659227954677,-0.2283806973642042,334601.0,0.13904238841844396,13.22333016566046,0.033849997014112176,341635.0,335.93524445898913,332.40124445898914,342.9692444589891
19,60,28,M,1,0,11.0,11,2,high,7 + 6 + 1 + 8 + 1,23,23,21,22,345.5010741999722,347.52710199996363,349.04279579996364,354.06109550001565,354.4741827999824,354.47418779996224,355.9905599000049,357.007756099978,q,23,0.413087299966719,1,+10,102,7.412835612083915,-16.929338976025626,0.011700880558684013,344177.0,4.876962652357483,0.8289512791613669,0.34166901464167854,347712.0,19.788531147483326,-0.3769567285804447,0.0033136536563649344,354658.0,349.0462444589891,345.51124445898915,355.99224445898915
20,60,28,M,1,0,12.0,12,2,low,2 + 1 + 9 - 4 + 1,9,8,9,11,358.5246332999668,360.5664732999867,362.08207999996375,367.1004148999928,367.610310100019,367.61031560000265,369.1269117000047,370.1438673000084,w,9,0.5098952000262216,1,+1,103,19.04094683897668,3.537085348057384,-0.18515992717498886,357217.0,11.782345341822428,-1.718844563206444,-0.07629337620611398,360751.0,18.82828894220548,-1.0586686896602773,0.31668710419883705,367794.0,362.0852444589891,358.5512444589891,369.1282444589891
21,60,28,M,1,0,13.0,13,3,low,7 - 1 + 8 - 6 + 4,12,11,13,12,371.6607553999638,373.742666599981,375.2580139999627,380.2769143999904,380.738159600005,380.7381648999872,382.25469600001816,383.27165549999336,e,12,0.4612452000146732,1,+1,104,-10.66123077886773,5.534830026733822,-0.2406682517301899,370393.0,0.3768069726080867,-0.05979240234696004,0.2952521186512427,373927.0,12.25778105193337,-0.6491161626200741,0.3747611335982728,380922.0,375.26124445898915,371.7272444589891,382.25624445898916
22,60,28,M,1,0,14.0,14,4,low,7 + 6 - 9 + 8 - 3,9,7,9,8,384.7884697999689,386.816386099963,388.3317022999981,393.3502957000164,393.89026239997474,393.8902676000144,395.40690910001285,396.42385459999787,w,9,0.5399666999583133,1,+1,105,-24.750588721490306,-0.7651580244459915,0.594923524943245,383467.0,-6.772361742376667,-1.5051253247618233,0.024288186762421837,387001.0,-0.9214141581470336,9.507384492786915,-0.9289201060161272,394074.0,388.3352444589891,384.8012444589891,395.40824445898915
23,60,28,M,1,0,15.0,15,3,low,4 + 8 - 9 + 1 + 7,11,11,9,13,397.9406144999666,399.9665184000041,401.4818498999812,406.5001492999727,406.9941328999703,406.99413840001216,408.5105506000109,409.5273151000147,q,11,0.4939835999975912,1,+1,106,2.683437172169034,-1.0466646021174801,-0.14012515794569014,396617.0,-6.751604550125229,-0.9314734721929083,-0.10438253414939114,400151.0,-5.920079578648259,3.9317282300192753,0.014096598784466119,407178.0,401.48524445898914,397.95124445898915,408.51224445898913
24,60,28,M,1,0,16.0,16,4,low,9 + 4 - 6 + 8 + 7,22,21,22,24,411.0438903999748,413.0699557000189,414.58519139996497,419.6036615999765,420.0902327999938,420.090238099976,421.6072930999799,422.6242479999783,w,22,0.4865712000173516,1,+1,107,14.509833433505321,3.6862007365246203,-0.21274130569054361,409720.0,5.805349288681665,-0.1630780002651635,0.0936010903405391,413254.0,4.275346528746734,-0.5237107765064382,0.12324137443222472,420274.0,414.58824445898915,411.05424445898916,421.60824445898913
25,60,28,M,1,0,17.0,17,1,low,6 + 9 + 1 + 1 - 1,16,16,15,14,424.1408558000112,426.1678847000003,427.6839475000161,432.7026209000032,433.2821057999972,433.28211139998166,434.7982241999707,435.815105799993,q,16,0.5794848999939859,1,+1,108,25.959299301678463,0.9057487908695947,-0.04929666973239577,422818.0,-4.441209448033078,0.2432423057012416,-0.1575732859577501,426353.0,22.629782756591688,-0.6375784016271533,-0.08495171242018862,433465.0,427.68724445898914,424.1522444589891,434.7992444589891
26,60,28,M,1,0,18.0,18,1,low,8 + 1 + 5 + 1 + 1,16,16,17,15,437.3320211999817,439.35692389996257,440.872173700016,445.8904533999739,446.24208539997926,446.2420899000135,447.7587238000124,448.7757652999717,q,16,0.3516320000053383,1,+1,109,22.94714459505864,4.3069336375609835,1.7474268706818723,436007.0,-14.535497965747192,-1.6901423661189874,-3.759026463630614,439541.0,14.982867259681294,0.5396607059601051,-0.28221907018137404,446426.0,440.87524445898913,437.34124445898914,447.7602444589891
27,60,28,M,1,0,19.0,19,4,low,9 + 7 - 5 + 8 + 6,25,24,25,27,450.2927331000101,452.319610800012,453.8348674000008,458.8537850999856,459.242307699984,459.2423126999638,460.7585889999755,461.7760658999905,w,25,0.3885225999983959,1,+1,110,8.306938820501454,4.557900748540126,-0.23259755091009593,448969.0,9.643015641894161,-0.6606750286245298,0.04651352206213888,452504.0,-38.73420715581695,-0.5350102215969859,0.5142696497564101,459426.0,453.83824445898915,450.3032444589891,460.7602444589891
28,60,28,M,1,0,20.0,20,1,high,4 + 1 + 1 + 7 - 1,12,12,14,13,463.2924190000049,465.3593139000004,466.87358149996726,471.8921729999711,472.2902422000189,472.2902477000025,473.806993199978,474.8242663000128,q,12,0.3980692000477575,1,+10,120,-12.198681260202147,2.0221928126400632,1.2537621411670545,462009.0,-22.585389961862262,-0.2063801599285755,-0.269771592503806,465542.0,4.322066174830769,5.235242040155756,-5.472506856200862,472474.0,466.8762444589891,463.34324445898915,473.8082444589891
29,60,28,M,1,0,21.0,21,4,low,5 + 7 - 4 + 6 + 9,23,25,24,23,476.3410673000035,478.3680102999788,479.8838408999727,484.9021551000187,485.3542399000144,485.3542453999981,486.87089779996313,487.8879303999711,e,23,0.4520847999956459,1,+1,121,9.290373725015947,-1.1308127424751229,-0.8451991091554243,475018.0,-4.1818061480107005,-0.8728075745732422,-3.0381602082268047,478552.0,-16.02697489344563,-1.8853484584778482,-0.027220197965451387,485538.0,479.88624445898915,476.3522444589891,486.87224445898914
30,60,28,M,1,0,22.0,22,2,low,8 + 1 + 1 + 9 - 4,15,14,16,15,489.4049992999644,491.4331644999911,492.948465799971,497.9664932999876,498.40209649998,498.4021016000188,499.9185080999741,500.9351251999615,e,15,0.4356031999923289,1,+1,122,-12.573088538045212,1.6692757229549695,-0.3007097934860057,488083.0,-26.786729013776785,-1.8994165756944135,-0.1641379979921318,491617.0,-13.262618981304907,8.04490918501185,1.49554273658471,498585.0,492.95124445898915,489.41724445898916,499.9192444589891
31,60,28,M,1,0,23.0,23,1,low,6 + 9 + 1 + 1 - 1,16,15,14,16,502.4515846999712,504.4786547999829,505.99395679996815,511.0120890999679,511.4340166000184,511.4340219000005,512.9503644999932,513.9671425999841,e,16,0.4219275000505149,1,+1,123,9.814072011196886,-2.7269371193284133,-2.0028766658194352,501129.0,-3.2204518905379533,-4.988132697946643,-0.0014219444673493342,504662.0,11.205197746313441,-0.6217613737834222,0.18246898741256756,511617.0,505.9962444589891,502.46324445898915,512.9512444589892
32,60,28,M,1,0,24.0,24,4,low,2 + 9 - 6 + 8 - 4,9,11,7,9,515.4842096999637,517.5101595000015,519.0255405000062,524.0437938999967,524.4820569999865,524.4820619999664,525.9986661999719,527.0155675999704,e,9,0.4382630999898538,1,+1,124,21.336411054286046,-3.3801882319821477,0.029466332633449444,514160.0,4.504046997753957,-3.5509790979230473,-0.001000719157428831,517694.0,39.903793121904734,4.699041644284259,1.742021268098282,524665.0,519.0282444589891,515.4942444589891,525.9992444589891
33,60,28,M,1,0,25.0,25,1,high,4 + 8 + 1 - 1 - 1,11,9,11,13,528.532247199968,530.557963099971,532.0730300999712,537.0907869999646,537.6419942000066,537.6419991999865,539.158651100006,540.1759379999712,w,11,0.5512072000419721,1,+10,134,-42.24349784458094,-6.157320444225411,0.18517621470635426,527208.0,2.0982811541674664,-0.5399939452344906,-0.6451065904647573,530741.0,-9.010696544656533,18.72435141699019,-0.07967738903889554,537826.0,532.0752444589891,528.5422444589891,539.1602444589892
34,60,28,M,1,0,26.0,26,1,high,7 + 1 + 6 + 1 + 1,16,17,16,18,541.692821100005,543.7173569999868,545.2326478000032,550.2503024999751,550.7539865999715,550.7539915000089,552.2711715999758,553.2894119999837,w,16,0.5036840999964625,1,+10,144,-4.4640264009647765,-3.8876538351765637,0.86724397231671,540367.0,3.854151323837394,-2.3605523739851613,-0.433786265616221,543901.0,9.884823596011008,-1.578880892683408,0.040669742996224834,550938.0,545.2352444589891,541.7012444589891,552.2722444589891
35,60,28,M,1,0,27.0,27,1,high,6 + 1 + 1 + 9 - 1,16,15,14,16,554.8064621000085,556.8317958000116,558.3470115999808,563.3648664999637,563.8819396999897,563.8819444999681,565.3984627000173,566.4154873999651,e,16,0.5170732000260614,1,+10,154,-45.21650722175053,-0.904649693139163,0.000669823868121977,553482.0,9.013555276661727,0.698728717083732,0.27906082029572543,557015.0,10.238298191742864,-0.39357754688721247,-0.32638815247452,564065.0,558.3492444589891,554.8162444589891,565.3992444589892
36,60,28,M,1,0,28.0,28,4,low,3 + 8 - 5 + 9 - 7,8,6,7,8,567.9323055999703,569.9597325999639,571.4751121000154,576.4938300999929,576.9781279999879,576.9781332999701,578.4943857999751,579.5109643000178,e,8,0.4842978999949991,1,+1,155,32.63924721742349,0.9471846282710672,0.05396140128382698,566609.0,-2.666893826313812,-1.054703740706703,0.006052936396603759,570144.0,15.7848633944307,-2.33755438062569,0.10851551131695869,577161.0,571.4782444589891,567.9432444589892,578.4952444589891
37,60,28,M,1,0,29.0,29,1,low,4 + 7 + 1 - 1 - 1,10,11,10,9,581.0281184999621,583.0543921999633,584.5698223999934,589.590425900009,590.0179293999681,590.0179343000054,591.5344391000108,592.5514345999691,w,10,0.4275034999591298,1,+1,156,6.806645487474324,-0.9502706888320089,-0.6108130801368419,579704.0,17.016028663794604,0.12784088286173567,2.0073869860521216,583240.0,15.863247132828803,-2.960968520781747,0.16894076367333177,590201.0,584.5742444589891,581.0382444589891,591.5352444589892
38,60,28,M,1,0,30.0,30,1,high,2 + 1 + 9 + 1 - 1,12,11,13,12,594.0682080999832,596.0954720000154,597.6106946999789,602.628721599991,603.0820477000088,603.0820527999895,604.5985932999756,605.6159050000133,e,12,0.4533261000178754,1,+10,166,24.019511991929292,4.459217607133116,-0.00624769729094421,592745.0,-1.3228794073472336,-0.39763361726559143,-0.1906345224040118,596278.0,-6.88340582760515,-0.8515375668851304,-0.02973222436836398,603266.0,597.6122444589892,594.0792444589891,604.6002444589891
39,60,28,M,1,0,31.0,31,1,low,2 + 1 + 9 + 1 - 1,12,13,12,11,607.132681099989,609.157945199986,610.6733489999897,615.6926144000026,616.3060231999843,616.3060283999657,617.8226400999702,618.8397253999719,w,12,0.6134087999816984,1,+1,167,30.41614011170358,-0.6858035137253315,0.03802688701181811,605808.0,-17.893096331653307,0.14482463114287292,0.041378511457444755,609342.0,13.261072146621174,-0.2678272924774925,0.20210801802667566,616489.0,610.6762444589891,607.1422444589891,617.8232444589892
40,60,28,M,1,0,32.0,32,2,low,3 + 8 - 5 + 1 + 1,8,9,6,8,620.3566919000004,622.3838681000052,623.8989183999947,628.9185811000061,629.7940346999676,629.7940403000102,631.3105895000044,632.3275336999795,e,8,0.8754535999614745,1,+1,168,-26.144788137372423,0.31348052015089767,0.15061158836351662,619033.0,-38.18231188894399,-0.5137557238940884,-1.7828970758867877,622568.0,5.792840795439535,-0.1522351489217435,0.12862620904639988,629977.0,623.9022444589891,620.3672444589891,631.3112444589891
41,60,28,M,1,0,33.0,33,1,low,7 + 1 + 4 + 1 - 1,12,13,12,14,633.8443880999694,635.8706758999615,637.3858541999944,642.4060714999796,642.9138889000169,642.913893799996,644.4308354000095,645.4474942999659,w,12,0.507817400037311,1,+1,169,-21.19117139489457,2.498421342046828,-0.0334806034527424,632520.0,2.202147679832997,-0.30769742012894863,-0.05061903065328632,636056.0,-6.993267099776094,0.24551619936851665,-0.15917113950456363,643097.0,637.3902444589892,633.8542444589891,644.4312444589891
42,60,28,M,1,0,34.0,34,3,high,5 + 1 + 7 - 8 + 6,11,11,13,9,646.9646654999815,648.9914976999862,650.5066551999771,655.5250669000088,655.9618769999943,655.9618821999757,657.4783404999762,658.4956122000003,q,11,0.4368100999854505,1,+10,179,-40.680250499492445,0.8431850142337574,-0.13354005198174512,645641.0,-15.280692098129638,-0.8572837929229911,-0.1920390813907753,649175.0,12.26472046918376,1.1075563663723234,0.2926585332094547,656145.0,650.5092444589891,646.9752444589891,657.4792444589891
43,60,28,M,1,0,35.0,35,1,high,8 + 1 + 1 + 1 - 3,8,9,8,6,660.0123977999901,662.036269299977,663.5515868999646,668.5697156999959,669.4579264000058,669.4579311999842,670.974319299974,671.9915012000129,q,9,0.8882107000099495,0,+0,179,6.5774786626550075,0.631965734941657,-0.8063368958052952,658686.0,42.80792504576738,-0.7739474875315713,-0.12020612630553051,662219.0,4.465814961967574,3.575632073492123,0.017365259801779942,695841.0,663.5532444589892,660.0202444589892,697.1752444589891
44,60,28,M,1,0,36.0,36,2,low,6 + 1 + 1 + 7 - 9,6,4,8,6,673.5084006999969,675.5333841000102,677.0494276999962,682.0678301000153,682.5138997000176,682.5139040999929,684.0299456999637,685.0469192999881,e,6,0.4460696000023745,1,+1,180,15.431124433345671,0.5873171813614952,0.3198745247745891,672183.0,-7.408003604384365,0.19453907163953676,-0.14663678041450323,675717.0,-19.24983141768892,-0.3340409603712624,0.17126237710329173,682696.0,677.0512444589891,673.5172444589891,684.0302444589892
45,60,28,M,1,0,37.0,37,1,high,9 + 8 + 1 + 1 - 1,18,20,17,18,686.5640065000043,688.5918033999624,690.1070803999901,695.125057999976,695.6580209999811,695.6580264999648,697.174674400012,698.1924029999645,e,18,0.5329630000051111,1,+10,190,-4.541840729181119,1.6437738415732834,-1.7816202446286664,685241.0,-9.834333312954811,-4.190237869761532,0.027492139303323615,688775.0,3.660303213062887,4.048877786635291,0.02635761181656493,787641.0,690.1092444589891,686.5752444589891,788.9752444589891
46,60,28,M,1,1,38.0,0,4,low,7 + 6 - 9 + 8 - 3,9,7,8,9,751.5984218000085,753.6258818999631,755.141152199998,760.1610648999922,760.5859228000045,760.5859279999859,762.1030571999727,763.1204283999978,e,9,0.4248579000122845,1,+1,191,10.500759315892736,-2.877438151002667,2.553534054435145,750275.0,-14.063482122432323,0.020951596982528464,-1.1642146090171717,753810.0,-20.641487717839276,-0.5660620239786551,0.013339099474031002,760770.0,755.1442444589891,751.6092444589891,762.1042444589891
47,60,28,M,1,1,39.0,1,4,low,4 + 9 - 7 + 8 + 5,19,21,19,20,764.6376497999881,766.660011800006,768.1752538000001,773.1944891000167,774.2818214999861,774.281826499966,775.7990021000151,776.8163812999846,w,19,1.0873323999694549,1,+1,192,-11.743812796597538,1.9239148044054053,0.06281477792937595,763309.0,-23.262073124536297,0.7265902452622024,-0.6822081796620951,766844.0,11.041180991710695,1.931481072499965,0.1535158789407629,774465.0,768.1782444589892,764.6432444589891,775.7992444589892
48,60,28,M,1,1,40.0,2,1,high,8 + 1 + 1 + 1 - 4,7,8,5,7,778.3331948000123,780.3605225000065,781.8758235999849,786.8939156999695,787.4578024999937,787.4578073999728,788.9743263999699,789.9923427000176,e,7,0.5638868000241928,1,+10,202,-13.611421572648908,5.56718470820063,0.24192155901245327,777010.0,11.128655527834528,-1.0988062925100284,-0.08911074527390861,780543.0,-14.770759492060634,1.0301205612351767,2.409792569902237,905665.0,781.8772444589891,778.3442444589891,906.9992444589891
49,60,28,M,1,1,41.0,3,4,high,8 + 3 - 4 + 5 + 9,21,23,21,22,791.5091835999629,793.5328260000097,795.0487162999925,800.0669665000169,800.4258410999901,800.4258460999699,801.9424534999998,802.9604403999983,w,21,0.3588745999732055,1,+10,212,-1.3215061923853142,1.6740904030728165,0.010772856823726196,790182.0,2.0418772089140518,-3.54655725081642,-0.07093336117454263,793716.0,16.825723654753634,-0.10383811600955273,0.09489363265687012,800609.0,795.0502444589891,791.5162444589891,801.9432444589892
50,60,28,M,1,1,42.0,4,4,high,6 + 5 - 7 + 8 - 9,3,5,3,4,804.4774931999855,806.5026955999783,808.0179250999936,813.0364851999911,813.9777205999708,813.9777256000089,815.4941653999849,816.511214099999,w,3,0.9412353999796323,1,+10,222,15.109230745849604,0.924895040400088,0.109349945639579,803152.0,1.251342469844861,-1.1099686463042522,-0.07233252965150538,806685.0,3.680383891018952,1.553806610724913,0.0681510057826562,814160.0,808.0192444589891,804.4862444589892,815.4942444589891
51,60,28,M,1,1,43.0,5,3,low,6 - 1 + 7 - 8 + 9,13,11,12,13,818.0281164000044,820.0512499000179,821.566169800004,826.5842752999743,827.1217310999637,827.1217362000025,828.6382465999923,829.6556966999779,e,13,0.5374557999894023,1,+1,223,7.102970120255707,-0.14306736208200732,-0.001658981479412791,816700.0,-16.868065438569452,-3.2117350668937314,0.1785126768890395,820234.0,5.950894209367078,-7.693617133097693,0.07742788137522871,827304.0,821.5682444589892,818.0342444589892,828.6382444589891
52,60,28,M,1,1,44.0,6,3,high,6 - 1 + 7 - 8 + 9,13,11,12,13,831.1719587999978,833.1984050999745,834.7139776999829,839.732819399971,840.1137255000067,840.1137300999835,841.6301144000026,842.6475326999789,e,13,0.380906100035645,1,+10,233,3.6756943860293845,-0.35596894940574586,-0.30011262460379395,829847.0,-0.6245911009427445,0.8334531401605272,0.01624598640371966,833382.0,20.24191069906462,1.468191208078168,0.0035561662724772347,840296.0,834.7162444589891,831.1812444589891,841.6302444589892
53,60,28,M,1,1,45.0,7,4,high,8 + 5 - 4 + 7 + 9,25,24,25,26,844.1640119999647,846.1884757999796,847.7034738999791,852.7234699999681,853.1136458999827,853.1136509999633,854.6302436999977,855.6473204999929,w,25,0.390175900014583,1,+10,243,-17.146923727933775,0.12291646867401784,-0.05019079480947264,842837.0,18.927769271435416,-2.800454622746355,-0.26664208021681235,846372.0,-8.853735889826435,-5.408807286638974,-0.017146862656074457,853296.0,847.7062444589891,844.1712444589891,854.6302444589892
54,60,28,M,1,1,46.0,8,4,low,8 + 4 + 7 - 5 - 6,8,6,9,8,857.1641497999663,859.1918269000016,860.7068878000136,865.7262733000098,866.1777191999718,866.1777242000098,867.6943038000027,868.7113322999794,e,8,0.4514458999619819,1,+1,244,-5.8126526822316675,-0.8186548594967604,-0.008263466689167664,855840.0,-7.584387895492171,-0.36586418427434175,-0.03725139237303443,859374.0,19.977919937989085,4.675590295953974,0.5284566704765241,866360.0,860.7082444589892,857.1742444589892,867.6942444589891
55,60,28,M,1,1,47.0,9,2,low,4 + 8 + 1 + 1 - 6,8,7,9,8,870.2280856000143,872.25481329998,873.7698508999893,878.7890807999647,879.2656977999723,879.2657028000103,880.7824546999764,881.7993981000036,e,8,0.4766170000075362,1,+1,245,15.847090002387862,-0.5534007597458723,-0.06667856884902457,868904.0,5.985251747599432,-0.22764226023905731,-0.17491363501698376,872438.0,3.2625139630567714,2.885800560962992,0.033562436472387436,879448.0,873.7722444589891,870.2382444589891,880.7822444589891
56,60,28,M,1,1,48.0,10,4,high,5 + 7 - 4 - 6 + 9,11,13,11,12,883.3161577999708,885.3405154999928,886.8557481999742,891.8770948000019,892.281729099981,892.2817341999616,893.7983915999648,894.8156608999707,w,11,0.4046342999790795,1,+10,255,12.935356815222407,0.5238670708609066,-0.029245058025662907,881989.0,4.482369322267692,-0.20632620618463182,-0.014468863865673587,885525.0,24.57595375008915,-0.35794293198083693,0.06413813145350455,892464.0,886.8592444589891,883.3232444589892,893.7982444589892
57,60,28,M,1,1,49.0,11,1,high,3 + 1 + 8 - 1 + 1,12,13,10,12,896.3322729999782,898.3545735999942,899.8699311999953,904.8892355000136,905.4816953999688,905.4817007000092,906.9992346999934,908.0168774999912,e,12,0.5924598999554291,1,+10,265,29.51232027531638,-0.35061102459461146,0.1249307130606725,895003.0,-4.657025048416532,-0.42022225993442053,-0.020886103945676027,898537.0,-25.104119151245555,-0.6791869525852983,0.15092910201404575,945208.0,899.8712444589892,896.3372444589892,946.5422444589891
58,60,28,M,1,1,50.0,12,3,high,8 + 4 + 1 - 7 + 9,15,16,15,13,909.5346329999738,911.5567692000186,913.0722984999884,918.0905162999989,918.7137611999642,918.7137669000076,920.2303555000108,921.2475894999808,w,15,0.623244899965357,1,+10,275,6.7333588961433435,0.18334013025851448,-0.2548377262493404,908205.0,-13.641811251053198,-0.39552660790767913,-0.26943467893874784,911739.0,-11.561866321918743,0.3114499780272295,-0.13189429895305516,918896.0,913.0732444589892,909.5392444589892,920.2302444589891
59,60,28,M,1,1,51.0,13,4,low,7 + 6 + 8 - 4 + 5,22,22,21,23,922.764168499969,924.7926649000146,926.308678500005,931.333436099987,931.9536180999712,931.9536235000124,933.4710825000076,934.488724900002,q,22,0.6201819999841973,1,+1,276,-9.690491767459843,0.5695917910809323,0.14332923859226865,921440.0,-6.62271343174028,-0.2592664850313122,0.0365992491118905,924982.0,1.7350431264626565,1.4267975787535496,0.41236060502158645,932137.0,926.3162444589891,922.7742444589892,933.4712444589891
60,60,28,M,1,1,52.0,14,1,high,8 + 1 + 4 + 1 + 1,15,14,15,16,936.005570599984,938.0334734999924,939.5484873999958,944.5664326999686,945.0257047999768,945.0257099000156,946.5422466999736,947.5603604000062,w,15,0.4592721000080928,1,+10,286,-11.314556811331924,-1.8024766361635747,-0.05970263380264873,934682.0,3.829242285200631,-0.7612161531556385,0.007808162540528407,938215.0,4.697075158976202,0.5235862381247891,0.13342749017200273,984328.0,939.5492444589892,936.0162444589891,985.6622444589891
61,60,28,M,1,1,53.0,15,2,low,4 + 9 - 7 + 1 - 1,6,6,5,8,949.0773438999896,951.1034295000136,952.6185703999944,957.6371871000156,958.0575793000172,958.057583899994,959.5741570999962,960.5909141000012,q,6,0.4203922000015154,1,+1,287,22.863874643896857,0.41342361144717543,-0.2650179658263112,947752.0,-37.778012166097795,-0.5130376499174991,0.12477627213450626,951286.0,24.51699187686,4.7460841994822625,-0.002059586129373958,958240.0,952.6202444589891,949.0862444589891,959.5742444589891
62,60,28,M,1,1,54.0,16,4,high,6 + 9 + 7 - 3 - 5,14,14,15,13,962.1075793000056,964.1352804999916,965.6508308000048,970.6690577999688,971.1215890999885,971.1215940999682,972.6382551999995,973.655778699962,q,14,0.4525313000194728,1,+10,297,0.3105325456109558,-0.6320190661374667,-0.21162469630036584,960784.0,-21.379029101897203,-1.1669379039985017,0.15022829496515722,964318.0,24.985536803424303,3.8476920349263724,0.20369476810815357,971304.0,965.6522444589891,962.1182444589891,972.6382444589891
63,60,28,M,1,1,55.0,17,1,high,5 + 8 - 1 + 1 + 1,14,12,16,14,975.1724676999728,977.1976013999664,978.7130210999748,983.731315699988,984.1456051999704,984.1456106000114,985.6624773999793,986.6800296999864,e,14,0.4142894999822601,1,+10,307,7.099491816301153,0.0022102254337923455,0.14950095912776984,973846.0,8.558537154333766,-3.457882740315112,-0.031515700346415265,977380.0,-9.62423959869593,0.3944538773157271,0.2755485635511259,997415.0,978.7142444589891,975.1802444589891,998.7492444589891
64,60,28,M,1,1,56.0,18,1,low,2 + 9 + 1 + 1 + 1,14,14,12,13,988.1967596000176,990.2247628999758,991.740109800012,996.7581568000024,997.2335872999976,997.2335924999788,998.749785699998,999.766480899998,q,14,0.4754304999951273,1,+1,308,8.32849010142864,2.792444257589235,-0.009360401787893213,986873.0,-18.429671760222714,0.5718763845962922,-0.19751602613176433,990407.0,-46.830579145103115,-0.04773945878191377,-0.13272295432502013,1049943.0,991.7412444589892,988.2072444589892,1051.2772444589891
65,60,28,M,1,1,57.0,19,3,high,5 + 6 - 4 - 1 + 7,13,14,15,13,1001.2833393000184,1003.3106995999696,1004.8267025999958,1009.8451841999776,1010.4014827999636,1010.4014878000016,1011.9180288999924,1012.9352660999866,e,13,0.5562985999858938,1,+10,318,16.192227747887067,0.2709154213455598,0.7346865884191036,999959.0,-36.156907705624306,-2.4415203685619886,-0.19655884610450336,1003493.0,6.182826906181623,0.9685148027715638,-0.20083365233372863,1010584.0,1004.8272444589892,1001.2932444589891,1011.9182444589891
66,60,28,M,1,1,58.0,20,2,low,5 + 1 + 7 - 6 + 1,8,8,6,7,1014.4519615999887,1016.4781488999724,1017.9931584000004,1023.0118190000068,1023.5215153999744,1023.5215205000133,1025.0382462000125,1026.055064999964,q,8,0.5096963999676518,1,+1,319,-0.6253645767333804,-2.2685530063288777,-0.06102544648492403,1013127.0,0.4662291953302464,-7.045339113706104,-0.028981822368935095,1016660.0,12.20120993596312,2.5236419964875063,-0.4469926156831754,1023703.0,1017.9942444589891,1014.4612444589891,1025.037244458989
67,60,28,M,1,1,59.0,21,2,high,4 + 9 + 1 - 7 - 1,6,8,6,5,1027.572021799977,1029.600015599979,1031.115286699962,1036.1339396999683,1036.5854907999749,1036.5854956000112,1038.1020334999776,1039.1191775999614,w,6,0.451551100006327,1,+10,329,7.501040729619442,-3.3339660721838627,0.17458083469660268,1026248.0,11.206743739559954,-0.5905669459268328,-0.13116801623931984,1029782.0,-10.85701991439804,-0.6618572578202189,-0.26071737819773944,1036768.0,1031.116244458989,1027.5822444589892,1038.1022444589892
68,60,28,M,1,1,60.0,22,1,high,2 + 1 + 9 + 1 + 1,14,13,12,14,1040.6360417999676,1042.6634922999656,1044.1788011000026,1049.1969553999952,1049.7615339999902,1049.7615392999724,1051.277910600009,1052.2962198000168,e,14,0.5645785999950022,1,+10,339,8.116682891694245,-6.00001180209618,0.9392185811776219,1039312.0,-17.36733092404726,-0.6048137479906508,-0.1103670044294478,1042845.0,25.039385748963188,-2.536994417244201,0.09120024635888035,1063575.0,1044.1792444589892,1040.646244458989,1064.9092444589892
69,60,28,M,1,1,61.0,23,1,high,9 + 1 + 1 + 7 - 1,17,17,19,16,1053.813181800011,1055.8378545999876,1057.3531420999789,1062.3717351999949,1063.393492400006,1063.3934978999896,1064.9099659000058,1065.9272301999736,q,17,1.0217572000110522,1,+10,349,-36.743236139409426,2.44905223796268,0.08015586381885531,1052486.0,14.584323824806436,-1.5674029147769035,0.047485967068489954,1056020.0,9.521156851703628,-4.281976199906882,-0.026919616663903412,1221095.0,1057.3542444589891,1053.8202444589892,1222.4292444589892
70,60,28,M,1,1,62.0,24,4,high,5 + 8 - 4 - 6 + 9,12,14,12,13,1067.4440006999648,1069.4713166999863,1070.986558399978,1076.004863900016,1076.4334897999652,1076.4334948000032,1077.9499146000016,1078.967352800013,w,12,0.428625899949111,1,+10,359,-6.900627812900181,12.872074081014626,0.2969994833065561,1066119.0,-12.7551349180215,0.3726486068993511,-0.010971113888101458,1069653.0,-1.5163472516364251,0.5310982928676511,0.23045699463362634,1076615.0,1070.9872444589892,1067.453244458989,1077.9492444589891
71,60,28,M,1,1,63.0,25,4,high,4 + 7 + 8 - 3 + 9,25,24,26,25,1080.4844705999712,1082.5107332000043,1084.0256257000146,1089.043867899978,1089.689425599994,1089.6894307999755,1091.2059576999743,1092.2230163000058,e,25,0.6455577000160702,1,+10,369,11.159625332945225,-1.1763889973407693,-0.08742037856515728,1079159.0,6.761342757045096,-3.34371833955376,-0.025623333212146715,1082692.0,-4.562829899719546,-0.18884731192569593,-0.03416683185815361,1089871.0,1084.0262444589891,1080.4932444589892,1091.2052444589892
72,60,28,M,1,1,64.0,26,4,high,5 + 8 - 6 + 7 + 4,18,17,18,19,1093.7395517000114,1095.7657403000048,1097.2811975000077,1102.3004486999707,1102.8094942999887,1102.80949949997,1104.3260282999836,1105.3433571999776,w,18,0.5090456000179984,1,+10,379,20.119753739970626,3.9003880920290506,0.10023788981345128,1092414.0,-3.909356911523794,-1.6148796791323914,-0.06826947518539783,1095948.0,24.41565436840353,-0.3736280813853021,0.0796893039989075,1102991.0,1097.2822444589892,1093.7482444589891,1104.3252444589891
73,60,28,M,1,1,65.0,27,2,high,7 + 6 + 1 - 1 - 8,5,3,4,5,1106.8596938999835,1108.8870596999768,1110.402994300006,1115.4215022000135,1115.9854133999906,1115.9854183999705,1117.5019091999857,1118.5192539999844,e,5,0.5639111999771558,1,+10,389,19.498082895759413,2.304611824064316,0.048667310226715665,1105535.0,-9.528696689947786,1.8690598940253427,0.09308544897066029,1109069.0,-15.017993557232312,0.49901856627806396,-0.22337926028730815,1116167.0,1110.403244458989,1106.8692444589892,1117.501244458989
74,60,28,M,1,1,66.0,28,3,high,4 + 1 + 8 + 9 - 5,17,19,18,17,1120.0360631999793,1122.0629926999682,1123.5783029000158,1128.597813499975,1129.1134343000012,1129.113439799985,1130.6301533000078,1131.6472882999806,e,17,0.5156208000262268,1,+10,399,24.8188513270205,0.9648532343929448,0.3520108492682401,1118711.0,22.910276291247975,-1.9170689858614463,0.042907726548531144,1122246.0,10.79318568194408,0.5032093258653134,0.21129966938285305,1129295.0,1123.5802444589892,1120.0452444589891,1130.6292444589892
75,60,28,M,1,1,67.0,29,3,low,2 + 1 + 9 - 5 + 6,13,11,13,14,1133.164119099965,1135.187991899962,1136.703171800007,1141.722808699997,1142.2254514999804,1142.2254565000185,1143.7418061000062,1144.758734399977,w,13,0.5026427999837324,1,+1,400,-5.712228579021451,-1.5741795934322482,0.07072173866347575,1131836.0,-1.1068959084688075,-0.10884012326670245,-0.08007346237358925,1135370.0,11.700187196896296,-4.984905175660057,0.05197602249394784,1142407.0,1136.704244458989,1133.1702444589891,1143.741244458989
76,60,28,M,1,1,68.0,30,3,low,2 + 1 + 9 - 7 + 6,11,11,12,13,1146.2755361999734,1148.299981599965,1149.8153007999645,1154.8338038999937,1155.3694634999847,1155.369471699989,1156.8862963999854,1157.9032175000175,q,11,0.5356595999910496,1,+1,401,-8.707725813065876,2.7478269040148042,-0.04021908382446582,1144948.0,2.1851147744908133,-4.107861041550004,-0.14390012533706265,1148482.0,12.795614802120788,1.996938422682419,-0.06497578142788729,1155551.0,1149.816244458989,1146.2822444589892,1156.885244458989
77,60,28,M,1,1,69.0,31,2,high,6 + 1 + 8 + 5 - 1,19,19,18,17,1159.4198045000085,1161.4481393999886,1162.9631679999875,1167.9818009000155,1168.473416199966,1168.4734214000057,1169.9900014000011,1171.0072679999869,q,19,0.4916152999503538,1,+10,411,-46.37488654333574,1.7676821178382784,0.1677413549935045,1158096.0,19.739494413663053,-3.225457722965743,-0.12221370097384976,1161629.0,5.734477431968283,0.6697860358592678,4.338689384742423,1168655.0,1162.963244458989,1159.4302444589891,1169.989244458989
78,60,28,M,1,1,70.0,32,4,low,7 + 8 - 4 + 6 + 5,22,22,21,23,1172.523997500015,1174.5475026000058,1176.0627872999758,1181.0814395999769,1181.5694621999864,1181.569467299967,1183.0864831999645,1184.1035044000018,q,22,0.4880226000095717,1,+1,412,2.6604708237382795,-13.723892445776176,-0.5147530640484979,1171195.0,-33.75946917430592,-1.3316805904078066,0.07472941605591377,1174729.0,24.587068152236395,-0.46368926378046105,0.14636737202682548,1181751.0,1176.0632444589892,1172.529244458989,1183.085244458989
79,60,28,M,1,1,71.0,33,4,low,5 + 9 - 4 + 7 + 6,23,24,23,25,1185.6201252000174,1187.6421856000088,1189.1573923999676,1194.1758840999682,1194.6413343999884,1194.6413391999668,1196.1579789000098,1197.1747722,w,23,0.4654503000201657,1,+1,413,-2.71106312588571,-10.05441382662741,-0.25195928469711193,1184290.0,-14.984298600560619,-1.701268366520834,0.047869161273967675,1187824.0,-5.042216496332655,-0.1054825524232843,0.023809412006066788,1194823.0,1189.1582444589892,1185.624244458989,1196.1572444589892
80,60,28,M,1,1,72.0,34,2,high,2 + 9 + 1 + 1 - 5,8,7,6,8,1198.6915668,1200.718607399962,1202.2330148000035,1207.2511107000173,1207.6253151000128,1207.625319999992,1209.141582100012,1210.1584854999674,e,8,0.3742043999955058,1,+10,423,-5.589167938965196,-2.2255339665724936,-0.03123063008658855,1197366.0,-29.380712943427138,6.689433119776249,-0.03283277278611818,1200899.0,2.341072313439568,2.6721486750728296,0.018449125289213386,1207806.0,1202.233244458989,1198.7002444589891,1209.1402444589892
81,60,28,M,1,1,73.0,35,1,low,5 + 6 + 1 + 1 + 1,14,14,15,16,1211.6751704000053,1213.7030673999689,1215.218022599991,1220.2364669999806,1220.9133931999677,1220.9133982000058,1222.4298819999676,1223.4470509999665,q,14,0.676926199987065,1,+1,424,2.5173378597981753,-1.3027912630443712,0.1430783253517407,1210350.0,3.376117071084723,-0.49815910453662227,-0.0662565009882452,1213884.0,11.220051127861725,1.5586878759098877,0.28553412412106094,1356262.0,1215.2182444589891,1211.684244458989,1357.596244458989
82,60,28,M,1,1,74.0,36,3,low,9 - 5 - 1 - 6 + 8,5,5,7,4,1224.9639581000083,1226.991531800013,1228.5067656000028,1233.5259328999673,1233.985353199998,1233.985358999984,1235.5021296999766,1236.5190836999682,q,5,0.4594203000306152,1,+1,425,-8.603465011550933,-0.9803398320507206,0.07921237619361055,1223639.0,-42.039794667388975,-2.983863612733222,0.06174208267355086,1227173.0,-4.501497585965531,7.057055191915644,-0.013124803241862715,1234167.0,1228.5072444589891,1224.973244458989,1235.501244458989
83,60,28,M,1,1,75.0,37,4,high,8 + 7 - 4 + 5 + 9,25,26,25,24,1238.035774899996,1240.059318999993,1241.5746144999866,1246.5932723999722,1247.0973490999895,1247.0973543999717,1248.6142167999642,1249.6316783999791,w,25,0.5040767000173219,1,+10,435,14.104512002257104,5.269650465082176,0.09430491443576527,1236707.0,2.5205773707113615,0.2651044266888887,-0.18554962155520927,1240241.0,1.9112885934431016,0.11329868960567424,-1.344376239605694,1247279.0,1241.5752444589891,1238.0412444589892,1248.6132444589891
84,60,28,M,1,2,76.0,0,3,high,8 + 6 - 7 + 1 - 4,4,5,3,4,1320.8138143999968,1322.8410554999718,1324.3562749999692,1329.3763745999895,1329.7373023999971,1329.737307399977,1331.25391889998,1332.2712052999996,e,4,0.3609278000076301,1,+10,445,-25.207302476852934,-3.4896085036599285,2.9438023478166446,1319488.0,19.78550291301886,-5.391217285799637,-1.1767304535829863,1323024.0,1.4685791425087276,-3.4029099881678935,-0.1442859874795579,1329919.0,1324.358244458989,1320.8222444589892,1331.2532444589892
85,60,28,M,1,2,77.0,1,3,high,3 + 8 + 1 + 5 - 9,8,8,7,9,1333.787956300017,1335.814363099984,1337.3294908999817,1342.3486207000096,1342.9372622999945,1342.937267899979,1344.453725399973,1345.4709927999647,q,8,0.5886415999848396,1,+10,455,27.244292778392712,2.656162501728824,0.46686445798778786,1332462.0,8.964204007666916,-3.2889902550313064,-0.1215575949598029,1335995.0,-19.274094154687557,1.59389993730852,1.2290926915966844,1343118.0,1337.329244458989,1333.7962444589891,1344.452244458989
86,60,28,M,1,2,78.0,2,1,low,8 - 1 + 1 + 6 + 1,15,14,15,16,1346.9874695999897,1349.0142290999647,1350.5294394000084,1355.5482907000114,1356.0812414999818,1356.081246799964,1357.597678399994,1358.6146140999626,w,15,0.5329507999704219,1,+1,456,8.314081426912136,4.3616145371148125,-0.03793126069923192,1345662.0,-15.656807359231141,-2.8297166371559346,-0.07622545027577976,1349196.0,-1.5276503539329802,-1.2724227761906777,-0.1438738055335662,1408741.0,1350.530244458989,1346.9962444589892,1410.0752444589891
87,60,28,M,1,2,79.0,3,2,low,9 + 6 + 1 + 7 + 1,24,24,25,23,1360.1315448000096,1362.1587089999812,1363.673967199982,1368.692279800016,1369.2092358999653,1369.209241000004,1370.7260450000176,1371.7428053999902,q,24,0.5169560999493115,1,+1,457,15.46445726258306,1.3601913026244485,0.08136016408013158,1358806.0,10.252289542000916,-0.07875735364593339,-0.09655376682657968,1362339.0,20.71171849201382,0.028624283030444175,-0.4830422451989427,1369390.0,1363.673244458989,1360.1402444589892,1370.7242444589892
88,60,28,M,1,2,80.0,4,3,high,8 + 5 + 1 - 7 + 9,16,14,17,16,1373.2596029000124,1375.2875274000107,1376.802776299999,1381.822789800004,1382.297153499967,1382.2971584000045,1383.8138679999977,1384.8309313000063,e,16,0.4743636999628506,1,+10,467,-2.6842575349215956,-4.391652856998881,-0.010437724808787685,1371934.0,-3.104291828719533,-2.475267395326422,-0.07886274049067588,1375470.0,-7.298476818412773,0.8869810494957981,0.019316366528906226,1382478.0,1376.8042444589892,1373.268244458989,1383.8122444589892
89,60,28,M,1,2,81.0,5,3,low,4 + 7 + 1 + 9 - 5,16,18,16,17,1386.347514799971,1388.3715894999914,1389.88679889997,1394.9051899999613,1395.433181600005,1395.4331865999848,1396.9496597999823,1397.966377899982,w,16,0.527991600043606,1,+1,468,35.43661024380765,-2.2982087947964356,-0.17503149618210423,1385019.0,5.40419801244648,-5.3762133891630155,-0.19778633139694457,1388552.0,11.830289109580312,2.7581488164890082,0.06194676354141482,1395614.0,1389.886244458989,1386.3532444589891,1396.9482444589892
90,60,28,M,1,2,82.0,6,1,low,7 + 1 + 4 + 1 - 1,12,13,12,11,1399.483142699988,1401.50906750001,1403.0243071999869,1408.042803499964,1408.5611596999806,1408.561164899962,1410.0775395999665,1411.0943980999873,w,12,0.5183562000165693,1,+1,469,-29.11231859726564,0.6670090634536834,0.1749958655427517,1398156.0,6.930426251040252,-2.8687118920828976,-0.6234416282337656,1401690.0,-7.5533297648561515,-1.0343447719966958,-0.041129681178061483,1435102.0,1403.0242444589892,1399.490244458989,1436.4362444589892
91,60,28,M,1,2,83.0,7,2,low,6 + 8 + 1 + 1 - 7,9,11,8,9,1412.6109141999625,1414.6390373000177,1416.1542122999672,1421.172605699976,1421.6091634000186,1421.6091688000015,1423.125831399986,1424.1420872000162,e,9,0.4365577000426128,1,+1,470,-6.53689704947829,0.7486548335454657,1.6397262923575338,1411286.0,11.100313762205866,-3.6664727578353133,0.0019539211894166186,1414819.0,-2.894415645526488,0.34018656881756737,-0.14232076988246978,1421790.0,1416.153244458989,1412.6202444589892,1423.124244458989
92,60,28,M,1,2,84.0,8,1,high,4 + 9 + 1 - 1 - 1,12,11,12,13,1425.6587515000138,1427.6854041999904,1429.2006632999985,1434.219044699974,1434.9210960000055,1434.921100699983,1436.4375569999684,1437.4550196999917,w,12,0.7020513000315987,1,+10,480,9.874763092800876,2.441476713605754,-0.027310988657060165,1424332.0,-29.518382650954695,-3.6933936086053176,-0.048185265587399995,1427866.0,20.88421196249274,-0.6147690194287572,-0.00980878331428836,1448149.0,1429.2002444589891,1425.6662444589892,1449.483244458989
93,60,28,M,1,2,85.0,9,1,high,3 + 1 + 9 + 1 + 1,15,15,17,14,1438.9719602999976,1440.9958213999637,1442.511230700009,1447.529173100018,1447.9691154999891,1447.969120099966,1449.485194000008,1450.5022681999835,q,15,0.4399423999711871,1,+10,490,2.535923517579528,-1.0935869727465368,-0.07848175711819172,1437643.0,25.710719367153704,-0.2135130301683521,-0.07787453378939913,1441176.0,10.119113444657657,-0.6946524763180735,-0.0045461725365618655,1501497.0,1442.510244458989,1438.9772444589892,1502.8312444589892
94,60,28,M,1,2,86.0,10,3,high,6 + 7 + 8 + 1 - 9,13,14,13,15,1452.0190258999935,1454.0442896999884,1455.5595093999873,1460.5781724000117,1461.1211579999654,1461.1211633000055,1462.6378261999926,1463.6555165000027,w,13,0.5429855999536812,1,+10,500,-6.735740059092697,-0.2798970308547304,0.6177905305619449,1450691.0,-11.390340573520541,-4.576053909173348,-0.0054619763944738775,1454225.0,3.234195173339515,-19.92851826638318,-0.07229428776252655,1461302.0,1455.559244458989,1452.0252444589892,1462.636244458989
95,60,28,M,1,2,87.0,11,4,low,8 + 4 - 5 + 7 - 6,8,8,7,6,1465.1724344000104,1467.199732100009,1468.7147801999818,1473.733177899965,1474.3930339000071,1474.3930389999878,1475.9096225000103,1476.9264783000108,q,8,0.6598560000420548,1,+1,501,-3.380531964255379,0.5802198711272846,0.07532218805205759,1463846.0,2.318466384450325,-0.734924136657229,-0.8429136717611465,1467380.0,7.957711985447977,-1.3677977162552466,-0.1231309451560747,1474573.0,1468.7142444589892,1465.1802444589891,1475.9072444589892
96,60,28,M,1,2,88.0,12,2,high,5 - 8 + 7 + 1 + 1,6,8,7,6,1478.443547800009,1480.466918799968,1481.982423999987,1487.0108992999883,1487.5531453000149,1487.5531508999993,1489.0697265999625,1490.0871958999778,e,6,0.5422460000263527,1,+10,511,-20.66660868263618,0.6943363115796739,0.24104452179274283,1477113.0,1.9681788394212472,-0.36290214622145633,0.086805262227867,1480658.0,-30.421107346915743,-0.20264607312736072,0.05878018584253408,1487734.0,1481.992244458989,1478.4472444589892,1489.068244458989
97,60,28,M,1,2,89.0,13,1,high,7 - 1 + 1 + 9 - 1,15,13,14,15,1491.603905499971,1493.631807799975,1495.14697349997,1500.165363700013,1501.2970891000004,1501.2970949999872,1502.8326872999896,1503.8499618999776,e,15,1.131725399987772,1,+10,521,-14.523489919743975,-0.5921509766047617,-0.0894236723992401,1490279.0,7.034626074578373,-1.53167184715433,0.05355887533103587,1493812.0,17.693853892969535,-4.44577970169796,0.2100522365522539,1580091.0,1495.146244458989,1491.6132444589891,1581.425244458989
98,60,28,M,1,2,90.0,14,2,high,7 + 5 + 1 - 1 - 8,4,2,3,4,1505.366815599962,1507.3929292999674,1508.908212499984,1513.928361499973,1514.4650391999749,1514.465044200013,1515.981428399973,1516.999019599985,e,4,0.5366777000017464,1,+10,531,-20.796886766035346,-1.2528013071702988,0.011747258453060683,1504040.0,-26.12872318392648,-2.0309034602610243,0.11664634461753609,1507575.0,9.056572226110188,2.2771724751982,0.0767317047261562,1514645.0,1508.9092444589892,1505.374244458989,1515.9792444589891
99,60,28,M,1,2,91.0,15,2,low,6 + 1 + 1 + 8 - 9,7,5,7,9,1518.515544499969,1520.5410764999688,1522.056351599982,1527.0754471999826,1527.4730695000037,1527.473075099988,1528.9899597999756,1530.007681899995,w,7,0.3976223000208847,1,+1,532,19.081516671626833,-1.7146099632523244,-0.20789412020465137,1517187.0,-14.635844801854358,0.5767851959257442,-0.10426536389328467,1520722.0,-41.46880786592012,-2.161156621185137,0.04154288948196627,1527653.0,1522.056244458989,1518.521244458989,1528.9872444589892
100,60,28,M,1,2,92.0,16,3,high,5 - 1 - 4 + 6 + 7,13,14,13,15,1531.525431899994,1533.5516033999738,1535.066786099982,1540.0862641999847,1540.457013999985,1540.4570187999634,1541.973206099996,1542.990609499975,w,13,0.3707498000003397,1,+10,542,-10.531761925737369,-2.362294482366039,-0.06696038795337489,1530198.0,2.087580303131256,0.7813510605780678,0.1487217282817399,1533732.0,14.137954854354513,-2.5796541185152924,-0.1373170144985676,1540637.0,1535.066244458989,1531.5322444589892,1541.971244458989
101,60,28,M,1,2,93.0,17,3,low,2 - 4 + 9 + 7 + 1,15,16,15,13,1544.5074300999986,1546.529610699974,1548.044839099981,1553.063954000012,1553.5290396999917,1553.5290447999723,1555.0450156999868,1556.0619352000067,w,15,0.4650856999796815,1,+1,543,-1.0819340946468508,-1.2787569817874704,0.4106362680506348,1543176.0,-14.58550676087529,-1.0397276114657004,-1.5053751830806723,1546710.0,1.3345598046688227,0.6904078671064928,-0.17310997077840184,1553708.0,1548.0442444589892,1544.510244458989,1555.0422444589892
102,60,28,M,1,2,94.0,18,3,low,2 + 9 + 1 - 5 + 7,14,14,15,12,1557.578523300006,1559.6007681000046,1561.1160842999816,1566.1347554000097,1566.8811200999771,1566.8811254000177,1568.3976224999642,1569.4145934999688,q,14,0.7463646999676712,1,+1,544,22.66372638465429,-7.054898180183807,0.06220665279831805,1556247.0,-6.11855976694882,-3.3384465388694586,0.1147480168390187,1559781.0,35.76234994706069,-3.498920673860151,0.06335322348115646,1567061.0,1561.115244458989,1557.5812444589892,1568.395244458989
103,60,28,M,1,2,95.0,19,1,high,6 + 1 + 8 + 1 - 1,15,13,15,14,1570.931555899966,1572.9584322000155,1574.4734644999844,1579.491491599998,1579.9050523999613,1579.9050583000062,1581.4215826999862,1582.4448887999752,w,15,0.4135607999633066,1,+10,554,-5.722644586766069,3.5282769117244968,-0.4426861256013299,1569605.0,-21.65963838591546,-3.6813391549901926,-0.16061419314991543,1573138.0,-5.154162653018432,4.600996440678006,1.0549305037580634,1673212.0,1574.472244458989,1570.9392444589892,1674.5462444589891
104,60,28,M,1,2,96.0,20,2,low,7 + 1 + 9 - 1 - 8,8,8,7,6,1583.9613870999892,1585.9898235999865,1587.505355399975,1592.5237667000038,1594.705032399972,1594.7050380000146,1596.2216136999778,1597.2385265000048,q,8,2.181265699968208,1,+1,555,5.989976968981647,-10.04569771445316,-0.17394750755382482,1582636.0,23.698871005581857,-2.2931191256343944,-0.12997494552672162,1586170.0,4.7967112900294,-0.1379199978924479,0.143627497970092,1594885.0,1587.5042444589892,1583.970244458989,1596.2192444589891
105,60,28,M,1,2,97.0,21,2,low,3 + 1 + 8 - 5 - 1,6,6,5,7,1598.755409299978,1600.7812103999895,1602.2965494999662,1607.3151002000086,1607.736957199988,1607.7369617999648,1609.253475799982,1610.270919499977,q,6,0.4218569999793544,1,+1,556,28.41603150919996,5.2222891294134985,0.042856079791116164,1597427.0,-9.3662791828016,-5.240319097179649,0.4183810991063286,1600961.0,-31.335497387479997,-0.4091610898639342,-0.34221230810534164,1607917.0,1602.2952444589891,1598.761244458989,1609.251244458989
106,60,28,M,1,2,98.0,22,4,high,2 + 5 - 3 + 9 + 8,21,21,19,22,1611.7880136999884,1613.8156240999815,1615.330337299965,1620.348378399969,1620.8089682999998,1620.8089733999805,1622.325548599998,1623.3429877000162,q,21,0.4605899000307545,1,+10,566,9.400167056412245,1.768233105029033,0.09913565278877678,1610462.0,-11.81665903768176,-6.272729910276457,-0.11388752138625335,1613995.0,-19.072923921514466,-1.2036047677128199,0.13409783087403593,1620989.0,1615.329244458989,1611.7962444589891,1622.3232444589892
107,60,28,M,1,2,99.0,23,2,high,3 - 1 + 9 - 5 + 1,7,5,7,6,1624.8599130999646,1626.8870330000063,1628.4023125999956,1633.4205297000008,1633.8409219000025,1633.8409271999844,1635.357274000009,1636.3746378999786,w,7,0.4203922000015154,1,+10,576,13.93624626062919,-2.558917700256954,0.16788594533311674,1623533.0,-0.7764672254693004,-2.5298203343297345,-0.07087133128643108,1627067.0,-37.16830108134289,-0.17105942753076597,-0.048783475367980556,1634021.0,1628.4012444589891,1624.867244458989,1635.355244458989
108,60,28,M,1,2,100.0,24,3,high,2 + 1 + 9 - 4 + 6,14,16,14,15,1637.8920020000078,1639.9172305999673,1641.4323593999725,1646.4522185999667,1646.8169728000066,1646.8169780999888,1648.3335952999769,1649.3505491999676,w,14,0.3647542000398971,1,+10,586,13.089459234926188,-5.154799180391381,-0.38070554824290337,1636563.0,9.866056720448412,-4.112954566864936,-0.14565865719806292,1640097.0,7.905118146490649,1.9184072658032285,0.11261318599700232,1646997.0,1641.431244458989,1637.8972444589892,1648.3312444589892
109,60,28,M,1,2,101.0,25,4,high,3 + 8 - 7 + 9 - 5,8,9,7,8,1650.8679951999802,1652.894984500017,1654.4101154999807,1659.4287572000176,1659.8649208999705,1659.8649263000116,1661.381665499997,1662.398892999976,e,8,0.4361636999528855,1,+10,596,-41.451733299107374,-2.2979354258518523,-0.15796984144843207,1649541.0,-39.065028642242574,-2.1564928937952583,0.015017248843906872,1653075.0,6.987302564233856,-2.103707817575616,-0.12341290748602907,1660045.0,1654.4092444589892,1650.875244458989,1661.3792444589892
110,60,28,M,1,2,102.0,26,1,low,2 + 1 + 1 + 9 - 1,12,11,13,12,1663.9157496999833,1665.9425111999735,1667.4578181999968,1672.4761465999763,1673.0329007999972,1673.0329058999778,1674.549303799984,1675.5662902999902,e,12,0.556754200020805,1,+1,597,23.806302968003436,-0.8429949340450893,0.13708368607989452,1662588.0,-8.20359238531153,-2.025614290929477,-0.016788832649879737,1666122.0,25.219691848428432,-1.5321579336017468,-0.16245156497510926,1725476.0,1667.4562444589892,1663.922244458989,1726.8102444589892
111,60,28,M,1,2,103.0,27,4,low,6 + 9 - 7 + 8 - 5,11,11,13,12,1677.083440599963,1679.1109431000075,1680.6261408000137,1685.6446383000002,1686.048891399987,1686.048896399967,1687.5653480999754,1688.582254900015,q,11,0.4042530999868177,1,+1,598,13.379729669778044,-1.0062797969322492,-0.001112439339961968,1675757.0,-1.082920377836179,-1.3051784609136536,-0.04917673584211779,1679291.0,-5.73603296777987,-2.387683414922357,0.014837570783567289,1686228.0,1680.625244458989,1677.0912444589892,1687.5622444589892
112,60,28,M,1,2,104.0,28,3,high,3 + 8 - 7 - 1 + 9,12,12,14,13,1690.0989989999798,1692.126630899962,1693.6420620999995,1698.6600948999985,1699.2489693000098,1699.248974999995,1700.76566189999,1701.7830022000126,q,12,0.5888744000112638,1,+10,608,1.5314818845153901,-3.814799092551768,0.10099769532729286,1688772.0,11.738357337176208,-2.5030199822155,-0.19853364590480327,1692307.0,-19.713637380522872,-2.812199572566982,0.11816359623789308,1699429.0,1693.6412444589891,1690.106244458989,1700.7632444589892
113,60,28,M,1,2,105.0,29,4,high,4 + 7 + 9 - 5 + 7,22,22,24,23,1703.299828899966,1705.3239715999807,1706.8396385000087,1711.857721899985,1712.336914399988,1712.3369194999686,1713.8538535999833,1714.8710513999686,q,22,0.4791925000026822,1,+10,618,-5.704419507155896,1.3831318609842569,1.8961575036154965,1701970.0,7.861341266884546,-0.9887081054154532,-0.03565543449310571,1705504.0,-15.427844573548867,3.742212733393913,0.19982850491426607,1712517.0,1706.838244458989,1703.3042444589892,1713.8512444589892
114,60,28,M,1,2,106.0,30,1,low,2 + 9 + 1 + 1 + 1,14,14,12,13,1716.3877123999991,1718.4153287999798,1719.930590200005,1724.9484843999962,1725.296772599977,1725.2967777000158,1726.8135755999829,1727.830479099997,q,14,0.3482881999807432,1,+1,619,5.991689636550997,0.5974605095846268,-0.007719130543422992,1715061.0,-12.948543585886403,-2.5812904066155067,-0.06152104334021491,1718594.0,17.342721901641315,-5.706719704512549,0.11018774327988923,1764596.0,1719.9282444589892,1716.395244458989,1765.9302444589891
115,60,28,M,1,2,107.0,31,3,low,4 + 7 - 3 + 5 - 1,12,11,13,12,1729.3472421999904,1731.3755577999982,1732.8909277999774,1737.9099021999864,1738.3608482999844,1738.3608535999665,1739.8776573999785,1740.8954413000029,e,12,0.4509460999979637,1,+1,620,6.109880227250675,3.2841511203781586,0.1019366843393843,1728021.0,-41.57102641695579,-1.4008623335401094,-0.01113629703567609,1731556.0,-36.31849461156757,-4.835983729056735,-0.018436277367069653,1738540.0,1732.8902444589892,1729.355244458989,1739.874244458989
116,60,28,M,1,2,108.0,32,2,high,9 + 4 - 6 + 1 - 1,7,7,9,8,1742.4121441000025,1744.4401457000058,1745.955375699967,1750.9734464999638,1751.3768488999922,1751.3768540999736,1752.893385000003,1753.91071799997,q,7,0.4034024000284262,1,+10,630,-2.4444736724835465,3.9602257524232023,0.018154372809539687,1741086.0,-3.5040073527702305,-1.1798447021662088,0.03706413782550855,1744619.0,-12.835040561277088,-1.148617810296427,0.15856599841063357,1751556.0,1745.953244458989,1742.4202444589891,1752.8902444589892
117,60,28,M,1,2,109.0,33,1,low,7 - 1 + 9 + 1 - 1,15,14,15,13,1755.4277875999687,1757.4561581999878,1758.971482599969,1763.989897099964,1764.416904699989,1764.41690989997,1765.9335220999783,1766.9506790000014,w,15,0.4270076000248082,1,+1,631,-14.573828366164648,2.0484717402910118,0.015318450459282484,1754102.0,28.611893528485567,-2.8095223152654167,-0.02517524593978826,1757636.0,-0.47627019777810453,2.022137479476873,0.9023433723332586,1804268.0,1758.970244458989,1755.4362444589892,1805.6022444589892
118,60,28,M,1,2,110.0,34,3,low,7 - 6 + 8 + 1 + 7,17,16,17,15,1768.4677187000052,1770.4937807999668,1772.0088898999966,1777.0272816999932,1777.3928281000117,1777.3928335999954,1778.909476700006,1779.9263249000069,w,17,0.365546400018502,1,+1,632,-3.3792179309736694,1.0473961381366887,-0.18612029074101066,1767139.0,2.0851173463933463,-1.429073022456583,-0.03450754793157884,1770673.0,-11.230529409849364,-7.02360589325967,-0.1256497238061718,1777572.0,1772.0072444589891,1768.473244458989,1778.906244458989
119,60,28,M,1,2,111.0,35,3,low,5 + 6 - 4 - 1 + 8,14,15,16,14,1781.443022499967,1783.46716499998,1784.984447899973,1790.0025968999837,1791.0727059000055,1791.0727107999846,1792.589280999964,1793.6063346000155,e,14,1.0701090000220574,1,+1,633,10.127773485583168,-0.3016671372289128,0.13244750331591537,1780113.0,-6.561810451022668,-1.024025165943602,-0.11972328361555484,1783648.0,-41.913616463543136,-0.22498032015637115,2.1733925734084636,1791252.0,1784.982244458989,1781.4472444589892,1792.586244458989
120,60,28,M,1,2,112.0,36,1,high,3 + 1 + 8 + 1 + 1,14,14,16,13,1795.1230479999797,1797.1479065999738,1798.6631420999763,1803.6820622999803,1804.0886895000003,1804.0886943999797,1805.6053521999856,1806.6225115999696,q,14,0.4066272000200115,1,+10,643,-4.273251123773217,1.5537073757695357,-0.2382351472215376,1793793.0,-7.940924225917913,-6.452365296242117,-0.7284096190105052,1797327.0,91.78227406181414,3.068410432056364,2.2979003322739517,1900844.0,1798.6612444589891,1795.127244458989,1902.1782444589892
121,60,28,M,1,2,113.0,37,2,high,2 + 9 - 4 + 1 + 1,9,11,8,9,1808.1395021000064,1810.1662084999844,1811.6814393000093,1816.699369099981,1817.1527320999885,1817.152737699973,1818.669255899964,1819.686500700016,e,9,0.4533630000078119,1,+10,653,6.298797364775263,2.5783523412809117,0.007490787518068309,1806812.0,34.821604364149415,-2.3767950693795274,-0.1914318939664592,1810345.0,5.221479006957386,0.8213824784902588,-0.09047319030483036,1817332.0,1811.6792444589892,1808.146244458989,1818.6662444589892
122,60,28,M,1,3,114.0,0,4,high,4 + 7 - 8 + 9 - 3,9,9,8,11,1878.6051409000063,1880.632882700011,1882.1480595999749,1887.1679096000155,1887.5927574000088,1887.5927625999905,1889.1092419999768,1890.1265831000053,q,9,0.4248477999935858,1,+10,663,-3.5119419402743173,3.690261347391914,0.29616340549792675,1877278.0,-22.3562820513073,-4.54523166507488,0.13021366270467505,1880813.0,-4.247977787692768,3.3363893783247978,0.8802152343107341,1887772.0,1882.1472444589892,1878.6122444589892,1889.106244458989
123,60,28,M,1,3,115.0,1,1,high,3 + 1 + 9 + 1 - 1,13,12,14,13,1891.6434071999972,1893.6678403000117,1895.1830609000167,1900.2013334999792,1900.6645899,1900.6645948999796,1902.181349199964,1903.1984141999856,e,13,0.4632564000203274,1,+10,673,5.921575392434272,0.37876374503763977,-0.5242126658213309,1890313.0,37.638946652844716,-4.434427146931354,0.0008907166202360983,1893847.0,-22.495279090139427,0.9586485265017668,-0.028478128181343987,1953908.0,1895.181244458989,1891.6472444589892,1955.242244458989
124,60,28,M,1,3,116.0,2,2,high,3 + 8 + 1 - 5 + 1,8,9,8,6,1904.7150480999844,1906.7430581999945,1908.2582225999795,1913.2764074999725,1913.664587599982,1913.664592899964,1915.1812283999752,1916.1981596999683,w,8,0.3881801000097766,1,+10,683,-2.076109110124804,2.890952958533404,-0.18280327710856925,1903388.0,5.507281385754596,-3.3978311994129378,-0.13676513894730657,1906921.0,-8.688467008693983,5.528980397017378,-0.0724960439734168,1913843.0,1908.2552444589892,1904.722244458989,1915.1772444589892
125,60,28,M,1,3,117.0,3,2,low,6 + 1 + 1 + 7 - 9,6,4,6,8,1917.7150673000144,1919.743023999967,1921.258211200009,1926.276485099981,1927.5205531999816,1927.5205582999624,1929.0371911000111,1930.054115200008,w,6,1.2440681000007316,1,+1,684,-12.942665828690496,-1.2400657678675238,0.008609360205996008,1916388.0,27.116953649126504,-3.894377003232851,-1.2831477766410542,1919921.0,25.822356936697556,-0.6915771962852411,0.16165587103928458,1927699.0,1921.2552444589892,1917.722244458989,1929.0332444589892
126,60,28,M,1,3,118.0,4,3,high,6 - 1 + 7 - 8 + 9,13,12,11,13,1931.5710182000184,1933.5997153999635,1935.114856900007,1940.1343673999652,1940.6725511999684,1940.672556400008,1942.1890323999687,1943.206334699993,e,13,0.5381838000030257,1,+10,694,16.253830920920162,3.3548421117900418,0.010027161315530497,1930244.0,19.41314362931955,0.17747879102606312,0.25356224929232907,1933779.0,-3.847652384316077,2.309079152294837,-0.11260734195087907,1940851.0,1935.1132444589891,1931.578244458989,1942.1852444589892
127,60,28,M,1,3,119.0,5,1,high,6 + 1 + 1 + 7 - 1,14,12,13,14,1944.7229849,1946.7472319999945,1948.2624931000173,1953.2809471999644,1953.7286407999927,1953.7286458999731,1955.245498300006,1956.262886499986,e,14,0.4476936000282876,1,+10,704,-27.815528696280666,-0.23141630984322248,-0.07981319156467848,1943392.0,19.150187760887043,-2.48357506317606,0.011357556599325358,1946926.0,10.014613655885043,0.2673286580713832,0.20019817583606736,1996228.0,1948.260244458989,1944.7262444589892,1997.5622444589892
128,60,28,M,1,3,120.0,6,3,high,3 + 1 + 8 - 5 + 9,16,16,15,17,1957.779699400009,1959.807037399965,1961.322295799968,1966.341287999996,1968.768622800009,1968.7686283999935,1970.2851840999792,1971.3030842000155,q,16,2.427334800013341,1,+10,714,17.397736591255466,-1.0522999992626012,-0.0013322206215486965,1956452.0,21.572732759129707,0.3014812305483421,0.015747877378150088,1959985.0,3.957597947877055,1.797582729543036,0.06279831951583925,1968947.0,1961.319244458989,1957.7862444589891,1970.281244458989
129,60,28,M,1,3,121.0,7,2,low,3 + 9 - 1 - 5 + 1,7,5,7,6,1972.8208999999915,1974.848930399981,1976.3641904999968,1981.3823157000008,1982.960630699992,1982.9606359999743,1984.476927299984,1985.4942408999775,w,7,1.5783149999915622,1,+1,715,28.257771072834828,0.34562002090303245,-0.012005667169898926,1971494.0,-8.34117367491501,-1.3661171320782746,0.021677680893723572,1975027.0,18.08900531852601,-1.0196127789232943,0.046087279676300774,1983139.0,1976.3612444589892,1972.828244458989,1984.473244458989
130,60,28,M,1,3,122.0,8,1,high,8 + 1 + 1 - 1 - 4,5,5,3,6,1987.010886700009,1989.03690549999,1990.5521638999928,1995.57035569998,1996.048626100004,1996.0486312999856,1997.566370799963,1998.5837434999996,q,5,0.4782704000244848,1,+10,725,-12.66860467837748,-0.7151103133719161,-0.14049956771993188,1985682.0,-10.564456175220602,0.6812416443943992,0.15060791261344142,1989216.0,12.860221901900303,4.085743690681404,-0.002934413338177899,2035515.0,1990.550244458989,1987.0162444589891,2036.8492444589892
131,60,28,M,1,3,123.0,9,2,low,8 + 1 + 9 + 1 - 4,15,16,15,14,2000.1005139999909,2002.1253471999664,2003.64140079997,2008.659150499967,2009.104590200004,2009.104595599987,2010.6211611999895,2011.6380682999732,w,15,0.445439700037241,1,+1,726,46.03123852029905,-1.0186607376766066,0.19568849054531556,1998770.0,32.67696857400106,-2.166360142575769,-0.17118934742986713,2002304.0,0.8425127170654569,-1.678873854950698,0.04364526411220315,2009283.0,2003.6382444589892,2000.1042444589891,2010.617244458989
132,60,28,M,1,3,124.0,10,3,low,2 + 9 - 3 + 4 + 1,13,14,13,11,2013.1549645999912,2015.1831821000087,2016.6981075999795,2021.7163975000149,2022.1125438999732,2022.1125496000168,2023.6297737999705,2024.6467207999667,w,13,0.3961463999585248,1,+1,727,12.820647188292666,0.3681402662961428,-0.26534701049994536,2011828.0,-0.5475236721109322,-0.11755735682553592,0.05324662453154372,2015361.0,46.329334454849025,-0.5015873475399157,0.029004948017403054,2022291.0,2016.6952444589892,2013.162244458989,2023.625244458989
133,60,28,M,1,3,125.0,11,1,low,5 + 1 + 1 + 6 + 1,14,13,14,16,2026.1634810999967,2028.1912113999715,2029.7064799999932,2034.724556799978,2035.3365335999988,2035.3365389999817,2036.853209199966,2037.870054600004,w,14,0.6119768000207841,1,+1,728,8.760806174273572,0.6441448614662857,0.09728640334180483,2024836.0,2.356067479177341,-3.012760862524802,0.09568101251024452,2028369.0,-15.20015328520711,0.4688691864601573,-0.04418332852577844,2075098.0,2029.703244458989,2026.1702444589891,2076.4322444589893
134,60,28,M,1,3,126.0,12,3,low,7 + 5 + 9 + 1 - 6,16,16,14,15,2039.3868389999843,2041.413974699972,2042.929180099978,2047.9474326999623,2048.4084498999878,2048.408454999968,2049.924979000003,2050.941605200001,q,16,0.4610172000247985,1,+1,729,7.228464867299426,2.752239241366885,0.1542518220000253,2038058.0,7.613073831657736,-1.2348945358782792,0.06541270472146499,2041592.0,-29.958966760102975,2.710346309170749,0.10808218507548562,2048587.0,2042.9262444589892,2039.3922444589891,2049.9212444589893
135,60,28,M,1,3,127.0,13,3,low,8 - 1 + 6 - 7 + 5,11,13,12,11,2052.4583314000047,2054.482906899997,2055.9990133999963,2061.017860699969,2061.5204819999635,2061.5204871000024,2063.036730199994,2064.0537534999894,e,11,0.5026212999946438,1,+1,730,5.051839857651922,-1.0503718582087025,0.10728945560738357,2051128.0,13.147538839077011,-4.363337975373172,-0.04756767515077831,2054663.0,34.822337459982286,-0.41523570922366204,-0.036372185836796245,2061698.0,2055.9972444589894,2052.4622444589895,2063.032244458989
136,60,28,M,1,3,128.0,14,1,low,3 + 1 + 1 + 9 - 1,13,14,13,12,2065.5704446000163,2067.597314200015,2069.112439299992,2074.1305966000077,2074.920553700009,2074.920558999991,2076.4362184999627,2077.4529035000014,w,13,0.7899571000016294,1,+1,731,-5.344371562095022,-0.8990597322200937,-1.987351439070277,2064242.0,6.125806580438418,-5.172460255348021,0.47361143072713485,2067775.0,11.692721200443618,4.774629973295305,0.4423375101782301,2101955.0,2069.1092444589895,2065.5762444589895,2103.2892444589893
137,60,28,M,1,3,129.0,15,2,high,5 + 8 + 1 - 1 + 9,22,23,22,21,2078.969772899989,2080.998227600008,2082.513322899991,2087.5311288000084,2088.688388600014,2088.688393699995,2090.205098800012,2091.222197700001,w,22,1.1572598000057042,1,+10,741,14.79221624936454,4.15301393196067,-0.0415746302584441,2077643.0,13.240620160052746,1.5138075577658423,0.13421528524097992,2081176.0,-14.096985737930355,-1.2525069251400698,0.059979164982696176,2088867.0,2082.5102444589893,2078.9772444589894,2090.2012444589895
138,60,28,M,1,3,130.0,16,1,high,5 + 1 + 1 + 9 + 1,17,17,16,19,2092.739063799964,2094.7655663000187,2096.280549499963,2101.2982780999737,2101.7763923999737,2101.7763976000133,2103.292985600012,2104.3101998000056,q,17,0.4781143000000156,1,+10,751,4.382833946587791,3.2925782284030785,0.10715097534278573,2091410.0,-53.8839431800752,0.6231311231413894,-0.0744416381306674,2094943.0,1.6574676945688456,-2.784376952712144,0.19400972161255314,2233074.0,2096.2772444589896,2092.744244458989,2234.4082444589894
139,60,28,M,1,3,131.0,17,4,low,4 + 7 - 8 + 9 - 4,8,9,7,8,2105.82707509998,2107.853890499973,2109.3691987000057,2114.3876828000066,2114.8244212999707,2114.8244269000133,2116.3408678999986,2117.3583759000176,e,8,0.4367384999641217,1,+1,752,-41.9070683158193,1.3748785472988505,0.8459142870447729,2104499.0,18.70991456162076,-1.9959127608153668,0.0740803967940864,2108032.0,29.6046191377525,-1.7809058973900882,0.051643618760189636,2115003.0,2109.3662444589895,2105.833244458989,2116.3372444589895
140,60,28,M,1,3,132.0,18,4,high,3 + 8 - 4 + 9 + 6,22,22,23,21,2118.875251199992,2120.903312299982,2122.418543200009,2127.4366164999665,2127.9364391000126,2127.936444499996,2129.452603099984,2130.4697108999826,q,22,0.4998226000461727,1,+10,762,-7.47138578238655,1.1302489260236346,0.18987339448815366,2117548.0,4.323704135935724,-0.7184813576377458,-0.04856537732276189,2121081.0,1.3164630709704834,-0.6962158407696588,2.1216010196706976,2128114.0,2122.4152444589895,2118.882244458989,2129.4482444589894
141,60,28,M,1,3,133.0,19,3,high,3 + 8 - 7 + 1 + 9,14,12,13,14,2131.987002499984,2134.012743900006,2135.528426499979,2140.546976500016,2141.216333199991,2141.21633809997,2142.732949999976,2143.749803300016,e,14,0.6693566999747418,1,+10,772,-11.268962183224385,2.7029316708574775,0.01801552339899848,2130657.0,33.10946782916321,-0.6615048501109371,-0.03691120906192902,2134191.0,-15.625628486468875,-1.2263941348103984,0.10407439709906985,2141394.0,2135.525244458989,2131.9912444589895,2142.728244458989
142,60,28,M,1,3,134.0,20,3,high,3 + 1 + 8 - 5 + 6,13,15,14,13,2145.266084100004,2147.290933499986,2148.80620240001,2153.823195600009,2154.328827899997,2154.3288331999797,2155.845557499968,2156.8627419999684,e,13,0.5056322999880649,1,+10,782,17.844551871357112,0.3150179955897716,0.023151668804864745,2143935.0,-5.043854714399891,-0.31085731642015446,-0.031925156403767696,2147469.0,13.801235903281114,1.5383758692311016,0.05239197906144111,2154507.0,2148.8032444589894,2145.2692444589893,2155.8412444589894
143,60,28,M,1,3,135.0,21,4,low,3 + 9 - 5 + 8 - 7,8,7,8,9,2158.3804003999685,2160.4084677000064,2161.9238704000018,2166.9422725000186,2167.3445854000165,2167.3445903999964,2168.8610487999977,2169.878103099996,w,8,0.4023128999979235,1,+1,783,13.0369383000804,-0.8450503094728212,0.1056382409596599,2157052.0,-6.7637224878328155,-2.365538420460224,-0.10659797500219836,2160587.0,-20.088290574145265,-1.4001483897472493,0.3260498400383618,2167522.0,2161.9212444589893,2158.3862444589895,2168.8562444589893
144,60,28,M,1,3,136.0,22,3,low,5 + 6 + 7 - 1 - 9,8,8,9,7,2171.395604499965,2173.423349199991,2174.9391704999725,2179.9574450000077,2180.4323671999737,2180.432372600015,2181.9491618999746,2182.966123399965,q,8,0.4749221999663859,1,+1,784,6.864197769098269,0.701616972312209,0.15982355394723546,2170068.0,21.758540220240242,-1.3269128806525465,0.015990207861596106,2173602.0,5.741540952802607,1.0078895571566484,0.03256627932583078,2180610.0,2174.936244458989,2171.4022444589896,2181.9442444589895
145,60,28,M,1,3,137.0,23,4,high,7 + 6 - 4 + 9 - 5,13,13,14,12,2184.482959999994,2186.5074566999683,2188.022948800004,2193.0415939000086,2193.5523935999954,2193.5523989999783,2195.069211599999,2196.086935199972,q,13,0.5107996999868192,1,+10,794,-22.44931492112363,-0.7857524617039342,0.04963471116349649,2183152.0,-2.642026769122074,-2.6811067019733628,0.1841250281313076,2186686.0,-4.14622666221495,1.6120274438095894,0.13770362589539253,2193731.0,2188.0202444589895,2184.4862444589894,2195.0652444589896
146,60,28,M,1,3,138.0,24,2,high,9 + 5 - 6 + 1 - 1,8,9,8,7,2197.604855499987,2199.6327463999623,2201.1480472999974,2206.166408799996,2206.728292100015,2206.728296899993,2208.2446068999707,2209.274409400008,w,8,0.5618833000189625,1,+10,804,6.757953959253187,-4.74934260477383,-0.07681786641393051,2196277.0,4.0525103118549755,-0.3227450283864872,0.05454054168713163,2199811.0,-22.362196224966482,-0.37432710710424644,0.10350758816728733,2206918.0,2201.1452444589895,2197.6112444589894,2208.2522444589895
147,60,28,M,1,3,139.0,25,2,high,6 + 1 + 7 - 8 - 1,5,5,4,7,2210.7911606999696,2212.815878900001,2214.331064399972,2219.3496529000117,2219.8082594000152,2219.8082642999943,2221.3249457000056,2222.342638799979,q,5,0.4586065000039525,1,+10,814,-2.5062880816721886,2.1359245308688024,0.37524626658524385,2209460.0,-11.07269700366116,-4.017588327160031,-0.17327201697667594,2212994.0,20.936406451428283,-0.20540769598866504,-0.02320011378765985,2219987.0,2214.3282444589895,2210.7942444589894,2221.3212444589894
148,60,28,M,1,3,140.0,26,1,low,3 + 1 + 8 + 1 + 1,14,13,12,14,2223.8592605000013,2225.887109800009,2227.4023061000044,2232.421174100018,2232.896280999994,2232.896286399977,2234.4125394999865,2235.429898799979,e,14,0.475106899975799,1,+1,815,-12.446204308875005,-0.2821919818365348,-0.04108447345535926,2222531.0,-1.7986447466415179,-1.24866385715654,0.051198767056978234,2226065.0,-25.875505773537473,-0.5460576331688394,-0.007555626411357874,2376898.0,2227.3992444589894,2223.8652444589893,2378.2322444589895
149,60,28,M,1,3,141.0,27,2,low,9 + 4 + 5 + 1 - 1,18,19,18,17,2236.9461602999945,2238.9746812999947,2240.489870699996,2245.507804299996,2245.8883385999943,2245.888343699975,2247.404898400011,2248.4219853999675,w,18,0.3805342999985441,1,+1,816,-8.20392200424753,-0.2992179744279433,-0.1769374085989981,2235619.0,9.043114011036312,-6.938937121460816,-0.05617140802595744,2239152.0,-1.3318572700807758,-3.6291797568358266,0.18126522295702685,2246066.0,2240.4862444589894,2236.9532444589895,2247.400244458989
150,60,28,M,1,3,142.0,28,4,high,3 + 8 - 4 + 9 + 7,23,24,23,22,2249.9383588999626,2251.964510299964,2253.4798263999983,2258.49824679998,2258.8333095000125,2258.8333308,2260.3499354000087,2261.367206699972,w,23,0.3350627000327222,1,+10,826,6.012935976857286,0.18268013755916357,-1.0358140109602423,2248608.0,-3.7890110522486466,-2.147474003403344,1.8054045581210212,2252142.0,-19.374626502456376,1.9168858004075497,-0.07020875463306231,2259011.0,2253.476244458989,2249.9422444589895,2260.3452444589893
151,60,28,M,1,3,143.0,29,3,low,7 + 1 + 9 + 5 - 6,16,14,15,16,2262.883956199977,2264.909447100013,2266.4243852999643,2271.4433564000065,2271.89624989999,2271.896255299973,2273.4122817000025,2274.4290509999846,e,16,0.4528934999834746,1,+1,827,-42.07467726638427,-0.5040831412425728,0.061908241643301665,2261553.0,10.247129141724951,-2.540652290110126,-0.09151213462058894,2265087.0,24.282540946202186,-0.9515881712484138,-0.015275992890523282,2272073.0,2266.4212444589893,2262.8872444589892,2273.407244458989
152,60,28,M,1,3,144.0,30,4,high,5 + 7 - 4 + 8 + 6,22,22,23,24,2275.945610499999,2277.971916400013,2279.4869536000188,2284.505335199996,2284.904325100011,2284.904330099991,2286.420942900004,2287.4386300999904,q,22,0.3989899000152945,1,+10,837,-8.159046391904976,-0.12019908227890674,-0.036267386250154354,2274616.0,1.0680553130395154,0.41560377357285816,0.14256571679825725,2278149.0,22.691701187285425,4.2895983561346265,-0.07178027003154175,2285082.0,2279.4832444589892,2275.9502444589893,2286.4162444589892
153,60,28,M,1,3,145.0,31,3,low,3 + 1 + 6 - 8 + 9,11,12,11,13,2288.955444099964,2290.9822671000147,2292.4972744999686,2297.515283899964,2297.928322499967,2297.9283274000045,2299.4449660999817,2300.4620285999845,w,11,0.4130386000033468,1,+1,838,-13.817771095792185,6.658985975114751,-0.10027079815798512,2287626.0,5.220024219382466,-0.9534566073779427,0.0024487658248604216,2291159.0,-0.31784952720810367,0.8821093350497851,-0.0013745710522803378,2298106.0,2292.4932444589895,2288.9602444589896,2299.4402444589896
154,60,28,M,1,3,146.0,32,3,low,9 - 1 + 5 - 6 + 8,15,17,14,15,2301.9789248000016,2304.005589000008,2305.5208008000045,2310.538893999997,2311.128262099985,2311.1282673999667,2312.6449607000104,2313.6619289999944,e,15,0.5893680999870412,1,+1,839,-2.478831376754748,-0.4523969742357039,-0.13015251299057362,2300649.0,17.39821645809449,-1.7554048278019465,-0.12482537111445646,2304183.0,1.8095593820315727,-1.6212705659527362,-0.12379117515664362,2311306.0,2305.5172444589894,2301.9832444589892,2312.6402444589894
155,60,28,M,1,3,147.0,33,3,high,7 - 1 + 8 - 6 + 4,12,13,12,11,2315.178835699975,2317.2053073999705,2318.7204790000105,2323.738876399992,2324.280257800012,2324.2802633999963,2325.7962368999724,2326.813242700009,w,12,0.5413814000203274,1,+10,849,73.33339261969596,-4.882096605602139,0.01393149991496534,2313849.0,2.4887629447852575,-3.0079785147802554,-0.00594163747128551,2317383.0,-15.071914055465577,0.06014334221752371,0.05030938532895979,2324457.0,2318.717244458989,2315.1832444589895,2325.7912444589892
156,60,28,M,1,3,148.0,34,2,high,5 - 1 + 1 + 8 + 9,22,23,22,21,2328.330333299993,2330.3570398999727,2331.8719931999804,2336.889958899992,2337.3921862000134,2337.392190999992,2338.9086462999694,2339.9258229999687,w,22,0.5022273000213318,1,+10,859,-8.33231459461932,-2.333340451667694,0.11844919604357651,2327001.0,51.40684805034777,0.02863632844501396,0.1020360568322698,2330534.0,-9.79296044476119,-1.1049494448075858,0.09501179624171385,2337570.0,2331.8682444589895,2328.3352444589896,2338.9042444589895
157,60,28,M,1,3,149.0,35,3,low,4 + 5 - 3 + 7 - 1,12,12,13,11,2341.443098299962,2343.470037399966,2344.9852771000005,2350.0065895000007,2350.4881874999846,2350.4881928999675,2352.004731199995,2353.02160919999,q,12,0.4815979999839328,1,+1,860,-19.041799536375482,0.08486679684720677,0.04700623962011363,2340114.0,4.919851846931689,-1.676353960557874,-0.25278029942606217,2343650.0,-18.611724380870342,-0.7198100722581025,1.2128514296226187,2350665.0,2344.9842444589895,2341.4482444589894,2351.9992444589893
158,60,28,M,1,3,150.0,36,4,high,9 + 3 - 5 + 8 + 6,21,21,23,19,2354.538438699965,2356.5634485000046,2358.0787137000007,2363.0964349000133,2363.6081954999827,2363.608200699964,2365.124961900001,2366.143034800014,q,21,0.5117605999694206,1,+10,870,-9.696919202445091,3.5502459908753696,-0.3614917733413927,2353207.0,16.882891957364187,-1.3243223888278415,-0.24221875106811797,2356741.0,7.755567991207617,-2.3667869515267714,0.08887156331693391,2363786.0,2358.0752444589893,2354.5412444589892,2365.1202444589894
159,60,28,M,1,3,151.0,37,1,low,9 + 7 + 1 + 1 + 1,19,20,18,19,2367.6599937999854,2369.6882877000025,2371.204093399981,2376.222102599975,2376.720249100006,2376.720254199987,2378.236927799997,2379.253965299984,e,19,0.4981465000309981,1,+1,871,9.24000560065199,0.06423091994406072,0.05273409266777551,2366332.0,21.676384766749315,-3.2215626651600022,-0.08225392973745338,2369866.0,-4.78797710121251,-0.09386379593822092,-0.6327738999223471,2458857.0,2371.2002444589893,2367.6662444589892,2460.1912444589893
160,60,28,M,1,4,152.0,0,2,low,5 + 9 - 8 + 1 + 1,8,8,7,9,2409.66038929997,2411.686450299981,2413.20162800001,2418.2206413999666,2419.656195699994,2419.65620149998,2421.172751599981,2422.1894153999747,q,8,1.4355543000274338,1,+1,872,20.59253183825208,-0.8788949220970093,-5.28165192248403,2408330.0,-3.1098313864389757,-2.6308922971313518,-0.2012336487240538,2411864.0,5.8607455586034,-0.8169134160565505,0.13289788018741167,2419833.0,2413.1982444589894,2409.6642444589893,2421.1672444589894
161,60,28,M,1,4,153.0,1,4,low,6 + 9 + 7 - 3 - 5,14,12,13,14,2423.706204599992,2425.734121599992,2427.2493188999943,2432.267793799984,2432.712117499963,2432.712122500001,2434.228270099964,2435.2448873000103,e,14,0.4443236999795772,1,+1,873,4.616380137870042,0.6267876052610326,0.07848500522694701,2422378.0,-17.967475545058434,0.4485063788657122,0.3127880641058949,2425911.0,-9.342860629051193,-1.6333752366434133,-0.027006334650921282,2432889.0,2427.2452444589894,2423.7122444589895,2434.2232444589895
162,60,28,M,1,4,154.0,2,4,high,2 + 9 - 4 + 8 + 7,22,21,22,23,2436.761813899968,2438.788783699973,2440.3039856000105,2445.322380099969,2445.7441921000136,2445.7441975999973,2447.260840900009,2448.2782286999864,w,22,0.4218120000441558,1,+10,883,17.528783179214876,-0.7778399726220115,-1.8966536152048001,2435432.0,7.814774821818222,-2.6818407444927654,-0.21917787886007734,2438966.0,16.901751748302164,-0.8665169210491577,0.051590171458379075,2445922.0,2440.3002444589893,2436.766244458989,2447.2562444589894
163,60,28,M,1,4,155.0,3,1,low,3 + 1 + 1 + 8 - 1,12,14,12,13,2449.7948463999783,2451.8219109000056,2453.3370914999978,2458.3552850999986,2458.6800656999694,2458.680070900009,2460.196658400004,2461.2142767999903,w,12,0.3247805999708362,1,+1,884,11.918106094043535,5.781483286740199,0.11778803405893123,2448465.0,17.480706633010016,-1.7793158286529884,0.17362115133045442,2451999.0,-13.748417792259762,-0.19555538391153604,3.419861678442093,2472153.0,2453.333244458989,2449.7992444589895,2473.487244458989
164,60,28,M,1,4,156.0,4,1,low,7 + 1 + 4 + 1 - 1,12,11,13,12,2462.7311085999827,2464.7557494000066,2466.270636799978,2471.289756399987,2471.976013000007,2471.976018299989,2473.4925396000035,2474.509241099993,e,12,0.6862566000199877,1,+1,885,-10.672872639040108,1.5030237397168182,0.11750511691033227,2461399.0,-1.0143579785651191,1.3316196271646987,0.1520239837650792,2464932.0,23.301859557372822,1.2768053356892999,-0.06463036626127483,2524777.0,2466.266244458989,2462.7332444589892,2526.1112444589894
165,60,28,M,1,4,157.0,5,3,high,7 - 1 + 9 - 5 + 4,14,14,15,13,2476.026105099998,2478.054818100005,2479.569883999997,2484.58864729997,2485.0639920000103,2485.063996699988,2486.580342200002,2487.5972176999785,q,14,0.4753447000402957,1,+10,895,-17.684151201391643,-3.971968264718745,-0.27547887318368014,2474698.0,-7.639964336397799,-5.304361979227998,0.01677656974515651,2478232.0,-6.739119660449742,-1.275766669755967,0.06412375716387064,2485241.0,2479.5662444589893,2476.032244458989,2486.5752444589893
166,60,28,M,1,4,158.0,6,4,high,8 + 4 + 7 - 5 - 6,8,9,6,8,2489.1141118999803,2491.139204700012,2492.654343699978,2497.6727591999806,2498.3043295000098,2498.3043344999896,2499.8208755999804,2500.8381623000023,e,8,0.6315703000291251,1,+10,905,-3.4063773069205148,-8.957515395341412,0.0968887250592001,2487782.0,10.851999171120255,-3.71975071520621,-0.047161895213682525,2491316.0,12.530242885968317,-4.329137856735226,0.16371968677779591,2498481.0,2492.650244458989,2489.1162444589895,2499.8152444589896
167,60,28,M,1,4,159.0,7,4,low,7 + 8 - 4 + 6 - 5,12,11,12,13,2502.354763999989,2504.382402299961,2505.8976261999924,2510.927316899993,2511.384066300001,2511.3840717999847,2512.900723700004,2513.922760299989,w,12,0.4567494000075385,1,+1,906,-31.253386467379716,-9.775031542526762,0.181768608339838,2501026.0,15.548371366650407,0.5101003471792929,-0.12091912325875187,2504570.0,2.637680616256496,-4.377799741484468,-0.016858042471896262,2511566.0,2505.9042444589895,2502.360244458989,2512.900244458989
168,60,28,M,1,4,160.0,8,1,high,6 + 9 + 1 + 1 - 1,16,16,14,15,2515.443186799996,2517.4711293000146,2518.9863290999783,2524.0042079999694,2524.599965000001,2524.5999698999804,2526.1165242000134,2527.1339342999854,q,16,0.595757000031881,1,+10,916,-10.643098010608648,-1.25821967820667,-1.0800177334320589,2514115.0,18.88147606869403,5.325202527693625,0.0630143179181557,2517648.0,-8.628713931061245,4.312625208077748,-1.4411150843927762,2603416.0,2518.9822444589895,2515.449244458989,2604.7502444589895
169,60,28,M,1,4,161.0,9,2,low,8 + 1 + 4 - 7 + 1,7,5,6,7,2528.650725699961,2530.6772471999866,2532.1922375999857,2537.2103868999984,2537.62395769998,2537.6239628000185,2539.140245699964,2540.157381600002,e,7,0.4135707999812439,1,+1,917,-28.69134474241713,-4.544063295420965,-0.2071061792275235,2527320.0,-20.263778913558944,-0.13118720278779428,-0.14660054627156782,2530854.0,8.788115587407827,-4.681370949399964,-0.04481652711711792,2537800.0,2532.188244458989,2528.6542444589895,2539.1342444589895
170,60,28,M,1,4,162.0,10,3,high,5 + 7 + 1 - 4 + 6,15,17,15,13,2541.67447540001,2543.7027506000013,2545.2180480000097,2550.2364489000174,2550.6559836000088,2550.65598879999,2552.172641200013,2553.189805299975,w,15,0.4195346999913454,1,+10,927,-38.82538430429332,0.40098985459082215,-0.036915342503158755,2540346.0,22.525563779180434,-1.3594476791922716,-0.04621789902407869,2543880.0,19.172379195777623,6.364290997057807,-0.1776746386682415,2550833.0,2545.2142444589895,2541.6802444589894,2552.1672444589894
171,60,28,M,1,4,163.0,11,3,high,4 + 8 - 3 + 5 - 1,13,12,13,14,2554.7066010999843,2556.731815600011,2558.2471161999856,2563.265461199975,2563.952010400011,2563.952015499992,2565.4687332999893,2566.4860773999826,w,13,0.6865492000360973,1,+10,937,0.9383165286492137,-8.426400497191349,0.09904791639198329,2553375.0,17.77080355100929,11.45612502361724,-0.13809736379025184,2556909.0,-4.796873731958794,-3.6802840090894406,-0.04255921181084177,2564129.0,2558.2432444589895,2554.7092444589894,2565.4632444589893
172,60,28,M,1,4,164.0,12,3,low,4 + 1 + 8 + 9 - 5,17,19,18,17,2568.0028463999624,2570.027583499963,2571.5428960999707,2576.561019500019,2577.0239856999838,2577.023990799964,2578.5404582999763,2579.557829199999,e,17,0.4629661999642849,1,+1,938,-9.196619274539579,3.082550625234095,-0.19735589136520693,2566671.0,-34.8289030924702,-3.561794294485363,-0.007315561668297166,2570204.0,-3.1145706260693657,-1.1971746083595693,0.157443361519495,2577200.0,2571.5382444589895,2568.005244458989,2578.534244458989
173,60,28,M,1,4,165.0,13,4,low,4 + 8 + 9 - 3 + 7,25,24,26,25,2581.0754292999627,2583.102631899994,2584.617875099997,2589.636441599985,2590.143890200008,2590.1438950999877,2591.66067209997,2592.6817679000087,e,25,0.5074486000230536,1,+1,939,18.18422674695527,-5.181562415875941,-0.21985663134197964,2579745.0,-8.722810697640313,8.695281020184092,0.230112795801253,2583280.0,19.58925108956888,1.2881040366101448,0.27653210179264054,2590325.0,2584.6142444589896,2581.0792444589893,2591.659244458989
174,60,28,M,1,4,166.0,14,1,low,5 + 6 + 1 + 1 + 1,14,16,13,14,2594.197939799982,2596.224662399967,2597.739803000004,2602.7581721000024,2603.239875399973,2603.239880600013,2604.75651430001,2605.773567700002,e,14,0.4817032999708317,1,+1,940,-27.373581058952084,8.250850783054611,0.26441876735401815,2592868.0,5.07795079433462,-0.992139605663171,0.047086284093426745,2596401.0,4.161705215166945,-0.40268255923111695,2.1576708963467754,2668512.0,2597.735244458989,2594.2022444589893,2669.8462444589895
175,60,28,M,1,4,167.0,15,3,high,3 - 7 + 5 + 1 + 9,11,13,11,12,2607.2901114000124,2609.317234699964,2610.8325003999635,2615.8512130000163,2616.2558725000126,2616.255877299991,2617.772257399978,2618.789561100013,w,11,0.4046594999963417,1,+10,950,2.6469687704725344,-2.216134547471661,-0.03746091440515942,2605960.0,-22.766550750052694,0.7131014641325262,0.03130904935966461,2609494.0,-1.220160729341032,3.0916202611998482,0.40149768908538697,2616433.0,2610.8282444589895,2607.2942444589894,2617.7672444589894
176,60,28,M,1,4,168.0,16,3,low,8 + 3 + 1 - 7 + 9,14,12,14,15,2620.3065064999973,2622.3302654,2623.845518599963,2628.864147599961,2629.3759160999907,2629.375921399973,2630.8922825999907,2631.909171100008,w,14,0.5117685000295751,1,+1,951,20.55088324511037,-1.6051410121950056,-0.16520500545570194,2618973.0,5.525857278309288,-0.5388970408137208,-0.17158965963423434,2622507.0,-6.018360974966893,-3.196747690795803,-0.267725606914027,2629552.0,2623.8412444589894,2620.3072444589893,2630.8862444589895
177,60,28,M,1,4,169.0,17,2,high,7 + 8 + 1 + 9 + 1,26,24,26,25,2633.4259047000087,2635.4491674000164,2636.963146099996,2641.9814058999764,2642.399843499996,2642.3998488999787,2643.915963799984,2644.933327100007,w,26,0.4184376000193879,1,+10,961,-18.68180817579678,-0.35797851789461355,0.28053770695539404,2632092.0,35.79753758082676,-0.5839879248590591,0.10170445489370028,2635624.0,33.46187751675875,-7.291701555967535,-2.8930111477603786,2642576.0,2636.958244458989,2633.4262444589895,2643.9102444589894
178,60,28,M,1,4,170.0,18,2,low,7 + 5 + 1 + 9 + 1,23,22,23,21,2646.4499914000044,2648.478142099979,2649.9934165999875,2655.010707699985,2655.343924399989,2655.34392949997,2656.86015079997,2657.8769941999926,w,23,0.3332167000044137,1,+1,962,-5.3102057838868255,-0.41658602344906726,-0.6315486396937069,2645120.0,-39.232010394867615,3.850661466388674,0.022780495813955692,2648654.0,-14.324766760835436,1.4268284642287785,0.045811082661803226,2655520.0,2649.9882444589894,2646.4542444589893,2656.8542444589893
179,60,28,M,1,4,171.0,19,1,low,9 + 8 + 1 + 1 - 1,18,19,18,17,2659.39371460001,2661.4206454000087,2662.935919200012,2667.955370299984,2668.3358368999907,2668.335842199973,2669.8520285999984,2670.868698599981,w,18,0.3804666000069119,1,+1,963,-9.192384733638304,-2.7855211999227354,0.047703841310922535,2658063.0,4.188189705028737,-0.5716740142655148,0.020784006908195263,2661598.0,-5.157735159508558,-0.342197586559033,-0.02892187841836824,2694840.0,2662.9322444589893,2659.3972444589895,2696.1742444589895
180,60,28,M,1,4,172.0,20,2,high,8 + 1 + 7 + 1 - 4,13,12,14,13,2672.385379299987,2674.412984399998,2675.92791899998,2680.9463001000117,2681.463865800004,2681.463870799984,2682.980614800006,2683.9978214,e,13,0.5175656999927014,1,+10,973,-0.5952411507968076,-4.009419747793416,-1.114149893844914,2671056.0,13.647017010442,-3.405710980875,-0.18609339482255693,2674589.0,18.9652387437122,-3.2594427842393863,0.07887871787642853,2681641.0,2675.9232444589893,2672.3902444589894,2682.9752444589894
181,60,28,M,1,4,173.0,21,1,low,6 + 1 + 8 + 1 + 1,17,16,17,15,2685.514742899977,2687.543449399993,2689.0584903999697,2694.077279499965,2694.663824599993,2694.6638296999736,2696.180443999998,2697.1972263999637,w,17,0.586545100028161,1,+1,974,33.81451176101351,3.4604175742239747,0.02928517249796103,2684186.0,7.318766149160295,3.141210748554794,-0.23681628610601013,2687720.0,-0.5667968968452923,2.162980717124869,-0.05174362794422738,2812256.0,2689.054244458989,2685.5202444589895,2813.590244458989
182,60,28,M,1,4,174.0,22,4,low,3 + 9 - 4 + 7 + 6,21,19,21,20,2698.714068899979,2700.741386300011,2702.2567027999903,2707.275540200004,2707.7437899999786,2707.743794900016,2709.2603743000072,2710.2773793999804,w,21,0.4682497999747284,1,+1,975,4.710729430578569,-4.419096889593094,1.1441759254876556,2697384.0,8.460640145623495,-5.541503583839173,-0.1387025021160917,2700918.0,-19.894934678814167,-0.49859963156826304,0.006435819475099525,2707920.0,2702.2522444589895,2698.7182444589894,2709.2542444589894
183,60,28,M,1,4,175.0,23,2,high,4 + 1 + 9 + 1 - 6,9,7,9,8,2711.794473999995,2713.817590199993,2715.3321584999794,2720.350370100001,2720.727775599982,2720.727780499961,2722.244497300009,2723.261630599969,w,9,0.3774054999812506,1,+10,985,8.526143279266943,-1.7520211697790984,-0.0806901297266096,2710461.0,5.503102684347151,-0.9485980286446498,0.0001433913641890605,2713993.0,8.052733185133603,-0.5554031604740111,-0.012788482226164799,2720904.0,2715.3272444589893,2711.795244458989,2722.2382444589894
184,60,28,M,1,4,176.0,24,2,low,4 + 9 - 7 + 1 - 1,6,5,8,6,2724.778396199981,2726.806360399991,2728.3215916999616,2733.340764899971,2733.7838862999924,2733.783891399973,2735.300288199971,2736.317183099978,e,6,0.4431214000214822,1,+1,986,6.389312820390477,-4.11702736165029,0.7183703041319944,2723449.0,4.88084522158773,-2.4912558454238507,-0.23951808252114715,2726983.0,1.5188150626138892,-0.011024492716263268,-0.012151032939518913,2733960.0,2728.3172444589895,2724.7832444589894,2735.2942444589894
185,60,28,M,1,4,177.0,25,2,high,3 + 9 + 1 - 5 + 1,9,7,9,8,2737.83383660001,2739.8598982999683,2741.375253700011,2746.39440759999,2746.839777400018,2746.8397826,2748.356244899973,2749.373941299971,w,9,0.4453698000288568,1,+10,996,17.3989741083726,-3.9971533085049504,-0.3003909931168307,2736503.0,21.417195023252237,-1.0092855504779976,-0.35018936076019447,2740037.0,-7.9105173066470975,-2.6766497353904697,-0.5492394469303932,2747016.0,2741.371244458989,2737.8372444589895,2748.3502444589894
186,60,28,M,1,4,178.0,26,3,high,9 + 3 - 4 + 6 + 7,21,21,22,23,2750.891069000005,2752.91837259999,2754.433542200015,2759.451884399983,2759.855732899974,2759.8557378000114,2761.3721534999786,2762.389421399974,q,21,0.4038484999909997,1,+10,1006,-2.159495219255092,-0.5339879346908702,-0.5676061684430351,2749561.0,31.798036267613004,-0.5710259450764301,-0.23412488815840726,2753095.0,28.859388279615185,-2.264883435188283,-0.07394651230513904,2760032.0,2754.429244458989,2750.8952444589895,2761.3662444589895
187,60,28,M,1,4,179.0,27,2,low,6 + 1 + 8 + 7 - 1,21,21,19,23,2763.9062339999946,2765.932365000015,2767.4476279999944,2772.467759299965,2772.895764200017,2772.8957691999967,2774.412586599996,2775.429767799971,q,21,0.4280049000517465,1,+1,1007,-2.8957829403358337,-1.7814646185901601,0.0656292360613433,2762575.0,7.375075228563178,-1.032620207144701,-0.0893546974198598,2766110.0,-33.599474998621005,0.7660759662431182,0.2724680212080828,2773072.0,2767.4442444589895,2763.909244458989,2774.4062444589895
188,60,28,M,1,4,180.0,28,2,low,6 + 1 + 7 + 5 - 1,18,18,17,16,2776.946380199981,2778.9699396999786,2780.4858622999745,2785.5043003999745,2785.927801600017,2785.927807400003,2787.4442666000105,2788.4611502999905,q,18,0.423501200042665,1,+1,1008,5.883624472985595,-5.193432084114955,3.418493284477371,2775613.0,8.30507481095054,10.039957910435954,-17.622950915798302,2779147.0,9.768114928752745,-3.6645155227743267,-10.840584592604161,2786104.0,2780.4812444589893,2776.947244458989,2787.438244458989
189,60,28,M,1,4,181.0,29,4,low,5 + 6 - 4 + 7 + 9,23,23,25,24,2789.9779515999835,2792.0048204999766,2793.520095199987,2798.5384024999803,2798.951809099992,2798.9518145999755,2800.468359099992,2801.485263800016,q,23,0.4134066000115126,1,+1,1009,12.785687327292344,0.9238911195992134,-2.2324769987588304,2788647.0,1.293096674678555,-0.5542494550108543,-0.9731541638385997,2792181.0,-30.94453078591027,-2.934907705941649,-1.1179751302945071,2799128.0,2793.5152444589894,2789.9812444589893,2800.4622444589895
190,60,28,M,1,4,182.0,30,1,high,7 + 1 + 5 + 1 - 1,13,14,13,12,2803.002202600008,2805.0290526999743,2806.543932600005,2811.5622035000124,2812.0797406999627,2812.079749199969,2813.5967851000023,2814.613283100014,w,13,0.5175371999503113,1,+10,1019,-31.736602413348805,1.163824915758667,0.8121085185418,2801672.0,-12.947483801679986,3.120077870195553,1.0212125530992227,2805205.0,-1.0708728958253708,3.1654442979415993,-0.04167296969470158,2825456.0,2806.5392444589893,2803.0062444589894,2826.7902444589895
191,60,28,M,1,4,183.0,31,1,low,5 + 9 - 1 + 1 + 1,15,13,17,15,2816.1303016999736,2818.157316899975,2819.6724564000037,2824.691508100019,2825.2799835999613,2825.2799889000016,2826.796689299983,2827.8133736000163,e,15,0.5884754999424331,1,+1,1020,0.2179458104792964,-4.327825684651453,0.40917700371853805,2814800.0,-18.3567729846407,-4.41215346849968,-0.8338414951068098,2818334.0,,,,,2819.668244458989,2816.1342444589895,
192,60,28,M,1,4,184.0,32,3,low,6 + 1 + 8 + 7 - 9,13,15,14,13,2829.3299544000183,2831.357502900006,2832.872949099983,2837.89151809999,2838.439764400013,2838.4397698999965,2839.9564356000046,2840.9735120999976,e,13,0.5482463000225835,1,+1,1021,6.8359172151390375,-4.12848181062683,-0.9131583989330743,2828000.0,-8.186504878083282,-2.934325766895199,0.22660473494183098,2831534.0,23.118124143261763,2.782524931666087,1.0938213982821745,2838616.0,2832.8682444589895,2829.3342444589894,2839.9502444589893
193,60,28,M,1,4,185.0,33,4,low,8 + 4 + 7 - 5 - 6,8,9,8,7,2842.490738099965,2844.5182144999853,2846.0334371000063,2851.0537467999966,2851.519673299976,2851.519678600016,2853.0362112000003,2854.053192399966,w,8,0.4659264999791048,1,+1,1022,12.565148727898213,-9.350816692697446,-1.0196277136075498,2841161.0,-11.864349333158264,-1.752711573608897,-0.2408610235701154,2844696.0,-14.361988617316303,-0.8085988780767437,-0.581524993268336,2851696.0,2846.0302444589893,2842.4952444589894,2853.0302444589893
194,60,28,M,1,4,186.0,34,2,high,2 + 1 + 9 - 4 + 1,9,9,11,8,2855.570159499999,2857.5939013999887,2859.1091236000066,2864.1271156999865,2864.927711599972,2864.9277172000147,2866.444252699963,2867.4617691999883,q,9,0.8005958999856375,1,+10,1032,-7.696342614504527,-2.5984572523932705,0.01942537071411632,2854237.0,3.295768382962965,-2.5664652095060436,-0.5662136830051012,2857770.0,-5.511385672743376,-2.191943567539054,1.9203906782018585,2865104.0,2859.1042444589893,2855.5712444589894,2866.438244458989
195,60,28,M,1,4,187.0,35,2,low,4 + 7 + 1 + 1 - 8,5,4,7,5,2868.978502999991,2871.0050734999822,2872.520378599991,2877.538694199989,2878.007646800019,2878.007651699998,2879.524002599996,2880.540980199992,e,5,0.4689526000292972,1,+1,1033,4.96238771893125,-2.9113139168149047,-0.36034358367470043,2867647.0,2.3071419764050436,-2.3940411540722746,0.2946356260806646,2871181.0,-12.039904409009903,-0.32994780092779585,-0.011614008903977346,2878183.0,2872.5152444589894,2868.9812444589893,2879.5172444589894
196,60,28,M,1,4,188.0,36,2,high,9 + 1 + 6 + 7 + 1,24,24,23,25,2882.0577317000134,2884.0857857000083,2885.600927499996,2890.6189169000136,2891.1436533000087,2891.1436587999924,2892.659998100018,2893.6771274000057,q,24,0.5247363999951631,1,+10,1043,-1.4219712866883647,-0.3732415498742334,0.5254784587657246,2880728.0,12.652289091549273,-0.9131458484611255,-0.31515274809454663,2884261.0,-8.210798988771918,13.044963537836008,5.962312927799216,2891319.0,2885.5952444589893,2882.0622444589894,2892.6532444589893
197,60,28,M,1,4,189.0,37,3,low,6 + 8 + 7 + 1 - 9,13,15,14,13,2895.193858999992,2897.2225935999886,2898.737894499965,2903.756368000002,2904.215658499976,2904.2156637000157,2905.7324435999617,2906.7493292000145,e,13,0.4592904999735765,1,+1,1044,-0.5122185814980771,0.6770031814664463,-0.697443250990581,2893865.0,1.6859827172333812,-7.089544746539557,-0.23495862209652518,2897399.0,17.276043555660568,2.4447858324746434,0.059100583663698414,2904392.0,2898.7332444589892,2895.199244458989,2905.726244458989
198,60,28,M,1,5,190.0,0,4,low,5 + 7 - 4 - 6 + 9,11,13,11,12,2927.171902799979,2929.1987441999954,2930.7139804000035,2935.733270699973,2936.159661100013,2936.159666199994,2937.676381499972,2938.693639300007,w,11,0.4263904000399634,1,+1,1045,-13.59843394623676,-6.058135351192359,0.705461905179785,2925841.0,-16.462297679656356,-2.2475685701886743,-1.558252140570131,2929376.0,4.917724265048248,-4.858076604358459,-1.1732023220289935,2936336.0,2930.7102444589896,2927.1752444589893,2937.670244458989
199,60,28,M,1,5,191.0,1,2,low,9 + 6 + 1 + 7 + 1,24,23,24,25,2940.2105236999923,2942.238441900001,2943.753998700005,2948.7718227999867,2949.1835635000025,2949.183568999986,2950.7001636999776,2951.717720799963,w,24,0.4117407000157982,1,+1,1046,15.00291607411084,1.4491214194470654,-0.3471617057060996,2938880.0,-8.662786688129817,-7.673165358325728,-0.008541673581607512,2942414.0,4.312603044825057,-0.9259771303534805,0.7247188723633755,2949359.0,2943.7482444589896,2940.2142444589895,2950.6932444589893
