,id,age,sex,cued,block,trial,trialinblock,efflev,rewlev,calc,corAns,option1,option2,option3,tstart,ITI1Time,probTime,respTime,selectTime,ITI2Time,fbTime,ITI3Time,key_press,chosenAns,RT,acc,feedback,total_points,cuescr,cuecor,cuezyg,cuetime,probscr,probcor,probzyg,probtime,fbscr,fbcor,fbzyg,fbtime,probtime_c,cuetime_c,fbtime_c
0,61,19,m,0,Practice,,0,1,0,4 + 1 + 9 + 1 + 1,16,14,15,16,46.926288899965584,,46.9262911999831,52.23878259997582,56.57036989997141,56.57037649996346,58.08790909999516,59.12918899999932,w,15,4.33158729999559,0,Incorrect,0,,,,,-4.182006388184836,-2.8139975008330103,1.552254929979453,44029.0,4.006419403224301,0.6854996666861659,0.04195917549706962,54919.0,47.22333634398111,,58.1133363439811
1,61,19,m,0,Practice,,1,1,0,3 + 1 + 1 + 8 - 1,12,10,11,12,60.65725319995545,,60.65727859997424,65.67965109995566,66.50639090000186,66.50639719999162,68.02315819996875,69.0429407999618,e,12,0.8267398000461981,1,Correct,0,,,,,3.0630910941826777,-0.2987312377327438,-0.20028438696015405,57470.0,-11.261075244562404,-1.5492429599833049,0.2096269780004727,64833.0,60.664336343981105,,68.0273363439811
2,61,19,m,0,Practice,,2,2,0,8 + 1 + 6 + 1 - 4,12,10,12,11,70.60418939997908,,70.60419519996503,75.62411239999346,76.25038849998964,76.25039439997636,77.76808919996256,78.78676699998323,w,12,0.6262760999961756,1,Correct,0,,,,,-25.191809614230436,1.2100075406539705,-6.316847919624868,67414.0,3.5546665796177486,-0.2663471042287302,0.01421773337372323,74577.0,70.60833634398111,,77.7713363439811
3,61,19,m,0,Practice,,3,2,0,9 + 4 - 6 + 1 - 1,7,5,7,6,80.30371299997205,,80.30371599999489,85.32320889999392,85.9621661999845,85.96217249997426,87.47881299996516,88.49591890000738,w,7,0.6389572999905795,1,Correct,0,,,,,-3.9573012385116186,-1.7181491451446966,-0.0172231758056125,77113.0,2.158101322355874,1.86859504737569,0.0762470238549553,84286.0,80.3073363439811,,87.48033634398111
4,61,19,m,0,Practice,,4,3,0,9 + 3 - 5 + 6 + 7,20,22,20,21,90.01274169998942,,90.01274479995482,95.0316856999998,97.81022539996776,97.81023139995524,99.32698939996772,100.3450343000004,w,20,2.7785396999679506,1,Correct,0,,,,,6.550360634915005,1.0841876788354021,0.08877898491610847,86822.0,-50.28430239538838,-0.3275687657683459,-0.08314988831281833,96135.0,90.01633634398111,,99.32933634398111
5,61,19,m,0,Practice,,5,3,0,2 + 1 + 9 - 7 + 6,11,9,11,10,101.90915570000652,,101.90915889997268,106.93025089998264,107.4904067000025,107.49041500000747,109.00748400000155,110.02599789999658,w,11,0.5601558000198565,1,Correct,0,,,,,-4.036422856139205,1.0808835200231792,0.11951040409419877,98720.0,-11.901762953839931,-0.5159783940030129,-0.08006627521563514,105816.0,101.9143363439811,,109.01033634398111
6,61,19,m,0,Practice,,6,4,0,4 + 8 + 5 - 3 + 7,21,23,21,22,111.54330079996726,,111.54330369998934,116.56401109998114,119.25044029997662,119.25044649996562,120.76730810001028,121.7855274999747,e,22,2.686429199995473,0,Incorrect,0,,,,,8.22351743609925,0.32588826946300564,-0.04451670342310221,108354.0,-7.584943369582679,-1.5483796518522963,0.13790198835733958,117575.0,111.5483363439811,,120.76933634398111
7,61,19,m,0,Practice,,7,4,0,5 + 8 - 4 + 6 + 9,24,24,23,22,123.30273120000491,,123.30273429997033,128.33351229998516,129.00223109999206,129.00223759998337,130.5186143000028,131.53755119995913,q,24,0.6687188000069,1,Correct,0,,,,,11.881105056414535,0.7215955393030162,0.19110273949430057,120123.0,-15.264762548843587,1.9214402394932284,-0.03019539152383066,127328.0,123.31733634398111,,130.5223363439811
8,61,19,m,1,0,0.0,0,2,high,6 + 1 + 8 + 5 - 1,19,18,17,19,224.41582629998447,226.45120000001043,227.96640189999016,232.99698900000655,233.68779499997615,233.6878001999576,235.2180635000113,236.2354708999628,e,19,0.6908059999695979,1,+10,10,4.922528396536171,-0.039191233417771976,0.3565277483594578,221241.0,22.996208717378803,0.6258883251456107,-0.1577843972420565,224786.0,9.300394887327014,-0.13075623817672266,-0.06429412283263725,232025.0,227.9803363439811,224.4353363439811,235.2193363439811
9,61,19,m,1,0,1.0,1,1,high,7 - 1 + 1 + 9 - 1,15,15,14,13,237.7537336999667,239.7874029999948,241.30281309998827,246.3213157999562,247.3437932999805,247.34380470000903,248.86040099995444,249.877607500006,q,15,1.0224775000242516,1,+10,20,3.012806953514982,0.28357749835976076,0.032258179089436734,234577.0,26.82692342884669,0.5357026403813689,0.057175802584757296,238111.0,11.077396668680217,-0.5723608315610154,0.06195623635507541,245667.0,241.30533634398108,237.7713363439811,248.8613363439811
10,61,19,m,1,0,2.0,2,1,low,2 + 9 + 1 + 1 + 1,14,12,13,14,251.39432439999652,253.4201236999943,254.9350730999722,259.9534592999844,260.59979089995613,260.59979599999497,262.1163426999701,263.13332590000937,e,14,0.6463315999717452,1,+1,21,16.53299454607384,-0.938129658050685,4.211235299503048,248209.0,21.376796132167108,-0.9102967170849237,0.09041120242894518,251742.0,-2.2757110067578665,-0.9373909739381645,0.026947235372483558,258923.0,254.93633634398108,251.4033363439811,262.1173363439811
11,61,19,m,1,0,3.0,3,4,high,5 + 8 - 6 + 7 + 4,18,17,19,18,264.6502290999633,266.6867670000065,268.2020019000047,273.22076219995506,273.74382919998607,273.7438352999743,275.26052819995675,276.27797389996704,e,18,0.5230670000310056,1,+10,31,4.356467887987527,0.92083759506232,-0.12507699254519578,261476.0,-11.501404573849015,-0.14937561549354061,3.6093084355259597,265010.0,25.299658519080985,-1.1146347206135436,0.0034629413017546185,272067.0,268.2043363439811,264.6703363439811,275.2613363439811
12,61,19,m,1,0,4.0,4,2,low,7 + 1 + 9 - 1 - 8,8,7,6,8,277.7948085999815,279.82743669999763,281.3426053999574,286.360899399966,286.88774450001074,286.88775019999593,288.4043854000047,289.4213094000006,e,8,0.5268451000447385,1,+1,32,-22.033140493423453,0.4835888850167027,-0.11251406289168742,274617.0,-16.585188690408433,-1.1779405766825262,0.06449390893155327,278150.0,7.323091702692173,0.8189448736436855,0.14198888046724933,285210.0,281.34433634398107,277.8113363439811,288.4043363439811
13,61,19,m,1,0,5.0,5,4,low,4 + 8 + 9 - 3 + 7,25,26,25,24,290.93817410001066,292.96511449996615,294.48035889997846,299.49855899997056,301.10379719996126,301.1038026000024,302.6202285999898,303.6516789000016,q,26,1.6052381999907084,0,+0,32,-4.538109271533201,1.3802194643943855,-0.10653780575929916,287754.0,5.94505960284388,0.4617050211589424,-0.05784308528861137,291288.0,-30.725421627986684,0.7998408699753945,-0.29911866187641234,313443.0,294.4823363439811,290.9483363439811,316.6373363439811
14,61,19,m,1,0,6.0,6,4,low,8 + 7 - 4 + 5 + 9,25,26,24,25,305.16850319999503,307.1943724000012,308.70950999995694,313.7281684000045,315.1197375999764,315.1197428999585,316.63635179999983,317.6539742999594,e,25,1.391569199971855,1,+1,33,0.5028179825926946,1.19567411070451,-0.07910887249517362,301983.0,-80.38688077834155,0.1996529890920673,1.381566107723049,305517.0,10.42111310028188,-1.2350357013075044,0.30432714614786116,354724.0,308.7113363439811,305.1773363439811,357.9183363439811
15,61,19,m,1,0,7.0,7,3,low,9 - 5 - 1 - 6 + 8,5,5,7,4,319.1708345999941,321.20659309998155,322.7224738000077,327.7410131999641,329.9836496000062,329.9836547999876,331.5000677999924,332.517253500002,q,5,2.2426364000421017,1,+1,34,-37.04053057641874,0.09203857209327637,0.11063774753802313,315996.0,-6.570094170966206,0.2863830284528035,0.12810646531209935,319530.0,7.2542599376756876,0.1516046408973164,0.07519526064481052,328307.0,322.72433634398107,319.1903363439811,331.5013363439811
16,61,19,m,1,0,8.0,8,3,low,8 + 5 + 1 - 7 + 9,16,16,17,14,334.0342150999932,336.0593082999694,337.57510969997384,342.6086013999884,343.2636805999791,343.2636860999628,344.78025169996545,345.79750869999407,q,16,0.6550791999907233,1,+1,35,-1.392744214508455,0.18227367640109016,-0.2631822342264374,330848.0,0.9514623381627714,-1.7956317342795884,-0.10553045773203751,334398.0,-34.48126340541301,1.8579562242034129,0.10368992367346053,341586.0,337.5923363439811,334.0423363439811,344.7803363439811
17,61,19,m,1,0,9.0,9,4,low,5 + 7 - 4 - 6 + 9,11,11,12,13,347.31550889997743,349.34303039999213,350.8582378999563,355.8771347999573,356.39967769995565,356.39968259999296,357.91647060000105,358.9348454999854,q,11,0.5225428999983706,1,+1,36,-13.978777282145455,2.0223017980355706,-0.018648005791528366,344132.0,-17.66460703962897,-0.4727169782422127,-0.05733698468630122,347666.0,1.6823725550572846,-0.13205096821664597,0.040642233733603206,463281.0,350.8603363439811,347.3263363439811,466.4753363439811
18,61,19,m,1,0,10.0,10,4,high,7 + 6 - 9 + 8 - 3,9,8,7,9,360.4516932999832,362.4783303999575,363.99376789998496,369.0119438999682,371.15965139999753,371.159656999982,372.6764890999766,373.6938491999754,q,8,2.1477075000293557,0,+0,36,4.9057907395038605,0.9487443582470707,0.09372438692535034,357267.0,-24.667755723924074,0.2733465886977191,0.3757573725220249,360801.0,10.767557857093202,-1.113626534904479,-0.06620866190156605,516057.0,363.9953363439811,360.4613363439811,519.2513363439812
19,61,19,m,1,0,11.0,11,2,high,6 + 1 + 7 + 5 - 1,18,16,17,18,375.21079819998704,377.2386835999787,378.7539563999744,383.77289889997337,384.30369259999134,384.3036979999743,385.82027199998265,386.8380710000056,e,18,0.5307937000179663,1,+10,46,-15.062261649540455,-0.7243705549171526,-0.18498059758490015,372028.0,23.615025094563244,0.6013660307293343,0.07911844176341054,375561.0,-25.153917933621667,-1.5185101726620278,4.865858640757871,382627.0,378.75533634398107,375.2223363439811,385.8213363439811
20,61,19,m,1,0,12.0,12,3,high,5 + 6 - 4 - 1 + 7,13,15,14,13,388.3550188000081,390.39725729997735,391.9125131999608,396.9308700999827,397.4236495000077,397.4236554999952,398.94054300000425,399.9580721000093,e,13,0.4927794000250287,1,+10,56,-5.742116761406873,0.6399814020615544,-4.634397602878859,385186.0,0.8768246344563568,-0.8171518706731078,-0.08080454242120716,388720.0,-15.933013853283915,1.2903902456250158,0.17680416138522892,395747.0,391.9143363439811,388.38033634398107,398.9413363439811
21,61,19,m,1,0,13.0,13,2,high,4 + 8 + 1 + 1 - 5,9,11,8,9,401.47468569997,403.50270799995633,405.0179656000109,410.0363224999746,410.751618099981,410.7516232999624,412.2683685999946,413.2862747999607,e,9,0.7152956000063568,1,+10,66,17.94965416143261,-1.6201893589971252,0.39419411786818515,398291.0,16.59838300463541,-1.5872806787732756,-0.19566857318362318,401825.0,-11.581170060948299,1.2719556484963475,0.0794598538048299,409074.0,405.0193363439811,401.4853363439811,412.2683363439811
22,61,19,m,1,0,14.0,14,1,low,5 + 8 - 1 + 1 + 1,14,16,12,14,414.8032234999701,416.83029169996735,418.3454633000074,423.3638120999676,423.89570210000966,423.89570749999257,425.41228799999226,426.4292676000041,e,14,0.5318900000420399,1,+1,67,-6.1662496915067,-0.8248865494969042,-0.1580736597055874,411619.0,-9.053448155397124,-0.5717084377578274,-0.017410972060374785,415153.0,-23.35868009984351,1.7829752134054706,0.10302717270220874,422218.0,418.3473363439811,414.8133363439811,425.4123363439811
23,61,19,m,1,0,15.0,15,2,high,3 + 8 - 5 + 1 + 1,8,8,6,9,427.94593509996776,429.9729859000072,431.488209299976,436.506799899973,437.0156030000071,437.0156081999885,438.53210439998657,439.5492790999706,q,8,0.5088031000341289,1,+10,77,-20.970578552645456,-0.9359696930701329,0.06480719329601392,424762.0,5.734942670729888,0.09495224423235449,-0.010595355590441002,428295.0,6.189529728524972,-0.8465227228543935,0.12245179239377535,435338.0,431.4893363439811,427.9563363439811,438.5323363439811
24,61,19,m,1,0,16.0,16,3,low,3 + 8 - 7 + 1 + 9,14,12,14,13,441.0658397999941,443.0923119999934,444.6073344000033,449.6262308000005,451.7196505999891,451.7196562999743,453.2365273999749,454.2537362999865,e,13,2.093419799988624,0,+0,77,-12.784955229774946,-0.19695584063171978,2.675798684248948,437881.0,-2.7702473372765866,0.3939429430696233,-2.280154768063331,441415.0,-0.2333213278621642,-0.8492733527884191,0.003498444757244812,476578.0,444.6093363439811,441.07533634398106,479.77233634398107
25,61,19,m,1,0,17.0,17,4,low,9 + 8 - 5 - 7 + 6,11,13,11,10,455.7714735000045,457.7987217999762,459.3139744999935,464.3438512999565,464.95953970000846,464.9595444999868,466.476058500004,467.4929686000105,w,11,0.6156884000520222,1,+1,78,5.694590743674011,-0.1458035962550408,0.020231086445791746,452587.0,9.061634679402633,-1.9520402697718415,0.09892346892272075,456132.0,-2.066139121368966,1.038846943658954,0.06365631900831525,531386.0,459.3263363439811,455.7813363439811,534.5803363439811
26,61,19,m,1,0,18.0,18,3,high,5 + 7 + 1 - 4 + 6,15,15,17,13,469.010622199974,471.0362764999736,472.5514450999908,477.57223240000894,478.25550139998086,478.255506699963,479.7721751999925,480.7896652999916,q,15,0.683268999971915,1,+10,88,30.779184001577697,0.0544960707547002,0.015969434856708764,465825.0,6.8621491983620695,0.26364736479142703,0.09733790311819401,469360.0,7.064134767642225,-0.2855680402021168,0.15031110126728153,544578.0,472.5543363439811,469.0193363439811,547.7723363439811
27,61,19,m,1,0,19.0,19,1,high,3 + 1 + 9 + 1 + 1,15,17,15,14,482.3062948999577,484.3306827999768,485.8459297000081,490.8641015999601,491.44754069997,491.4475459000096,492.96375180000905,493.9812964999583,w,15,0.5834391000098549,1,+10,98,-15.426576622816988,1.6414882243675475,0.07895622551407877,479119.0,12.9478631513786,-1.0635042251733706,-0.018938030161983477,482652.0,-57.08829135038293,-0.25179175113707863,0.1357628536800215,489770.0,485.8463363439811,482.3133363439811,492.9643363439811
28,61,19,m,1,0,20.0,20,1,low,8 + 1 + 1 + 1 - 4,7,8,7,5,495.49818900000537,497.52506369998446,499.0400235999841,504.0581318999757,504.5116049000062,504.5116101999884,506.0405686000013,507.0575792999589,w,7,0.4534730000304989,1,+1,99,-15.826303234528334,-0.31954820597377065,0.15479605750490144,492313.0,-17.358451815646347,-0.5945968303791354,-0.24206398392033845,495846.0,5.737208665843461,0.9588441665115397,0.02591324124078076,502846.0,499.0403363439811,495.5073363439811,506.0403363439811
29,61,19,m,1,0,21.0,21,4,high,7 + 8 - 4 + 6 + 5,22,23,21,22,508.573917199974,510.6012630999903,512.1164755999926,517.1349448999972,517.7355233999551,517.735528899997,519.2519334999961,520.2692732999567,e,22,0.6005784999579191,1,+10,109,5.531069789864205,-1.2749790648701325,-0.037771177551509716,505390.0,-4.493813470640412,-0.6211553979096518,-0.018623671461760694,508923.0,15.793866303427201,-1.288090067128011,-0.015134532406753998,713178.0,512.1173363439812,508.5843363439811,716.3723363439811
30,61,19,m,1,0,22.0,22,4,high,5 + 7 - 4 + 6 + 9,23,25,24,23,521.7861456999672,523.8111946999561,525.3264871999854,530.354399200005,533.0634694999899,533.063474799972,534.5800653999904,535.5984185999841,e,23,2.7090702999848872,1,+10,119,12.353023485831827,2.757732619100463,0.015879061781885362,518599.0,18.71643452915977,0.051535754218995145,1.350792140260089,522143.0,-12.453022732028552,-0.03469977187650741,0.08416798036174322,741972.0,525.3373363439812,521.7933363439812,745.1663363439811
31,61,19,m,1,0,23.0,23,3,high,9 + 3 - 4 + 6 + 7,21,22,23,21,537.1242670000065,539.1539959000074,540.6691573999706,545.6877329999697,546.2555301999673,546.2555352000054,547.7724115999881,548.7901776999934,e,21,0.5677971999975853,1,+10,129,-14.046181117320893,-1.15330850031809,-0.6460628932522052,533943.0,14.323061419182917,-0.015542073859553973,-0.13524485467767455,537476.0,17.00376031570909,-0.7409771718328848,-0.06941325698693568,643713.0,540.6703363439811,537.1373363439811,646.9073363439811
32,61,19,m,1,0,24.0,24,2,low,3 + 9 + 1 - 5 + 1,9,9,8,7,550.3071038000053,552.3356790000107,553.8509859999758,558.8692220000084,561.9115230999887,561.9115287999739,563.4283349000034,564.4450070000021,q,9,3.04230109998025,1,+1,130,-9.891500723247624,-0.5980540122566804,2.581945111394781,547123.0,-32.32843397820664,-0.7030790646905212,0.01125007699178493,550657.0,-26.521388722477447,-0.9634497416174366,0.14434035226218844,560233.0,553.8513363439812,550.3173363439812,563.4273363439811
33,61,19,m,1,0,25.0,25,2,low,7 + 8 + 1 + 9 + 1,26,26,24,25,565.961866299971,567.9847754999646,569.5002678000019,574.5185447999975,575.0714892999968,575.0714946999797,576.588561499957,577.6055402999627,q,26,0.5529444999992847,1,+1,131,26.487281501903936,0.2923858244070683,0.08353622933053906,562772.0,8.11297901914125,-0.3842229483487918,0.10589564728154244,566307.0,-3.3004427770724405,1.6041997692690515,0.19442438618485358,573393.0,569.5013363439812,565.9663363439812,576.5873363439812
34,61,19,m,1,0,26.0,26,2,high,8 + 1 + 7 + 1 - 4,13,12,13,14,579.1225882999715,581.1475634999806,582.6625485999975,587.6808759999694,588.1834374999744,588.183442599955,589.6996116999653,590.7168950999621,w,13,0.5025615000049584,1,+10,141,25.19609615464707,-0.02586195048640061,-0.07523500578490072,575935.0,6.581591984370396,0.22773947519976723,0.11876471523567078,579469.0,24.035507513855507,-0.938375048481352,0.07526089234004463,586505.0,582.6633363439812,579.1293363439811,589.6993363439811
35,61,19,m,1,0,27.0,27,1,low,6 + 1 + 1 + 7 - 1,14,14,13,12,592.2339525999851,594.2613098999718,595.7767432999681,600.7951645999565,601.3754441000056,601.3754492999869,602.892189199978,603.9091217999812,q,14,0.5802795000490732,1,+1,142,-3.3935704293570375,0.9357388758140779,-0.2067354265464365,589049.0,-14.344713792612279,-2.3428871343099695,-0.07322134441005002,592583.0,14.14920910581604,-0.6956668718947387,0.07026241799658672,599697.0,595.7773363439811,592.2433363439811,602.8913363439812
36,61,19,m,1,0,28.0,28,2,low,4 + 9 - 7 + 1 - 1,6,5,6,8,605.4258764999686,607.4513234999613,608.966452099965,613.986555499956,614.5834250999615,614.583430300001,616.1002627999987,617.1170720999944,w,6,0.5968696000054479,1,+1,143,10.007128394134117,0.21219198720783883,0.18543131625207687,602239.0,-5.492347269463988,-1.0192857459349733,0.28616245962962594,605774.0,-0.9778612874459025,-0.473898913791432,-0.030359312484983025,612905.0,608.9683363439812,605.4333363439812,616.0993363439811
37,61,19,m,1,0,29.0,29,2,high,7 + 6 + 1 - 1 - 8,5,4,5,3,618.6339268999873,620.6601279999595,622.1754822999937,627.194300299976,632.1273493999615,632.1273549000034,633.6439811000018,634.6614023000002,q,4,4.93304909998551,0,+0,143,40.02313733824124,0.20306955618034817,0.20699547733441537,615448.0,36.9610551007857,0.07114160411752213,0.040029838811959095,618982.0,-27.1979744170009,-0.7354336514180009,0.04427735098272545,893272.0,622.1763363439811,618.6423363439811,896.4663363439812
38,61,19,m,1,0,30.0,30,3,low,7 - 1 + 8 - 6 + 4,12,11,13,12,636.1782411999884,638.2037266999832,639.7186196999974,644.7374253000016,645.3914730999968,645.3914781999774,646.9082958999788,647.9254729999811,e,12,0.654047799995169,1,+1,144,10.42271732915642,1.4749853341304435,-0.06847636053813888,632991.0,3.6546641757362206,0.9269078786092697,0.7864481854989038,636525.0,11.92609354798502,0.8337673514975217,-0.21534956329459476,671793.0,639.7193363439811,636.1853363439811,674.9873363439812
39,61,19,m,1,0,31.0,31,1,high,7 + 1 + 4 + 1 - 1,12,13,12,11,649.4426733999862,651.4670550999581,652.9825331000029,658.0119460999849,658.5194347999641,658.5194404000067,660.0357786999666,661.0531473999727,w,12,0.5074886999791488,1,+10,154,-25.663262012283035,0.06800519397237803,-0.15700005002537054,646255.0,31.017907338494464,-0.8735568171025871,-0.011738380963051576,649800.0,-1.8848995206083448,2.284170326775916,-0.07988125876871166,656841.0,652.9943363439811,649.4493363439811,660.0353363439812
40,61,19,m,1,0,32.0,32,3,high,7 + 5 + 9 + 1 - 6,16,14,16,15,662.5699834999978,664.5966599999811,666.1117142000003,671.1318919999758,673.4714447999722,673.4714499000111,674.9882167999749,676.0057150999783,w,16,2.3395527999964543,1,+10,164,-4.3309102878458905,0.17593932484550834,0.17629180164236558,659384.0,-0.013720417134745588,0.6117698161121119,0.011726316618640986,662920.0,-16.48556929350396,-0.4949709480246458,-0.05871715709978176,726424.0,666.1143363439811,662.5783363439812,729.6183363439811
41,61,19,m,1,0,33.0,33,3,low,4 + 8 - 3 + 5 - 1,13,13,12,14,677.5351897999644,679.5601180999656,681.0754406999913,686.0939807000104,686.9352929999586,686.935298299999,688.4525135000004,689.4699287000112,w,12,0.8413122999481857,0,+0,164,-8.651071544736947,-1.0987413082121789,0.02458018553368202,674348.0,-39.59732553861932,0.5282061012295696,0.08208260237905884,677881.0,-66.70545173711048,-0.49347956966226647,-0.05593995402589824,919760.0,681.0753363439811,677.5423363439811,922.9543363439811
42,61,19,m,1,0,34.0,34,1,low,3 + 1 + 9 + 1 - 1,13,12,14,13,690.9869175999775,693.0149924999569,694.5310104999808,699.5491220999975,700.0873916999553,700.0873968999949,701.6040216999827,702.6206799999927,e,13,0.5382695999578573,1,+1,165,9.994148112194413,0.8061793888689799,0.20997039330270617,687802.0,15.463168186769732,-2.2789697244299205,-1.5775923756583579,691337.0,-17.051740294590683,-0.9273990113757371,-0.42719747964684984,698408.0,694.5313363439811,690.9963363439812,701.6023363439812
43,61,19,m,1,0,35.0,35,4,high,4 + 7 - 8 + 9 - 3,9,8,11,9,704.1378111999948,706.1636724999989,707.6789037999697,712.7171890999889,714.8473588000052,714.8473641999881,716.3639497999684,717.3909926000051,e,9,2.130169700016268,1,+10,175,-36.640273785469574,0.9791949274498641,-1.2574514990963577,700951.0,-4.452002307486497,0.7925249106481971,0.07604883506567495,704504.0,5.671280454690983,0.3756625391499657,-0.03932814723213207,1057367.0,707.6983363439812,704.1453363439812,1060.561336343981
44,61,19,m,1,0,36.0,36,3,high,5 + 6 - 4 - 1 + 8,14,14,15,16,718.9080112999654,720.9320966000087,722.4464150999556,727.4642618999933,728.1032547999639,728.1032603000058,729.6195541999768,730.6374226000044,q,14,0.6389928999706171,1,+10,185,-5.63735243685827,0.776378207901546,0.08195197637226981,715719.0,11.828514158411238,0.678719146752047,-0.04803784287791979,719252.0,8.83904401019932,0.25481897427786127,0.13139023040465148,974071.0,722.4463363439811,718.9133363439812,977.2653363439812
45,61,19,m,1,0,37.0,37,4,high,9 + 7 - 5 + 8 + 6,25,27,25,24,732.154138199985,734.1786894999677,735.6936883999733,740.7121574999765,743.6392729000072,743.6392780999886,745.1560978000052,746.1848638000083,w,25,2.9271154000307438,1,+10,195,4.7131970680053366,-0.14929958855942882,0.26338637660935005,728966.0,9.90500947133329,-0.08838890929824217,0.032050304075466496,732500.0,-15.82970657307648,0.7190636095548166,-0.255072158461231,1070399.0,735.6943363439811,732.1603363439812,1073.593336343981
46,61,19,m,1,1,38.0,0,1,low,2 + 9 + 1 + 1 + 1,14,12,14,13,872.6197427999577,874.647399999958,876.1626629999955,881.1818564999849,881.6631966999848,881.663201999967,883.1802354999818,884.197568100004,w,14,0.4813401999999769,1,+1,196,18.27249221486857,-1.6712983555380205,-0.47333414320549005,869434.0,5.363695990711502,-0.12478954020271171,-0.09080998233601911,872969.0,16.045832976332758,0.5150809745326823,0.25643825884264015,879984.0,876.1633363439812,872.6283363439811,883.1783363439812
47,61,19,m,1,1,39.0,1,2,low,7 + 5 + 1 + 9 + 1,23,23,22,21,885.7147921999567,887.742237599974,889.2576135999989,894.2922580000013,894.951198499999,894.9512037999812,896.4680195999681,897.4851124999695,q,23,0.6589404999976978,1,+1,197,2.2004557156213593,1.7324613176918664,-0.1755374397596119,882529.0,-32.02366172211917,-0.3651826418183379,-0.04849962918099315,886079.0,13.934344184629111,0.42873333404411706,-0.08804721237253998,1083975.0,889.2733363439811,885.7233363439811,1087.169336343981
48,61,19,m,1,1,40.0,2,1,low,9 + 8 + 1 + 1 - 1,18,18,20,17,899.0019302999717,901.0243884999654,902.5396390999668,907.5577154000056,908.3032108999904,908.3032158999704,909.8202240999672,910.8379054999676,q,18,0.7454954999848269,1,+1,198,20.57771812140335,0.39992559644880465,0.07775795782992634,895811.0,32.44128889119466,0.679853691810619,1.6025020398328924,899344.0,5.915344556393027,-1.499501713059118,-1.2790304753035882,906625.0,902.5383363439812,899.0053363439812,909.8193363439811
49,61,19,m,1,1,41.0,3,3,high,3 + 1 + 8 - 5 + 6,13,14,15,13,912.3547354000038,914.3946088000084,915.9101501000114,920.928790099977,921.4391415999852,921.4391468999676,922.955803699966,923.97280389996,e,13,0.5103515000082552,1,+10,208,3.706312689479743,-0.6437262497470897,0.034916043047528156,909181.0,-12.138745109272348,0.49844208214385777,-0.31809608585976656,912715.0,18.920009021505326,0.07054111600154744,-0.024209245585841366,987455.0,915.9093363439812,912.3753363439812,990.6493363439812
50,61,19,m,1,1,42.0,4,1,low,6 + 9 + 1 + 1 - 1,16,14,16,15,925.4898141999728,927.5160279999836,929.0312073999668,934.049163299962,934.5191787999938,934.5191841999768,936.0357833000016,937.0527880999724,w,16,0.4700155000318773,1,+1,209,-12.313987893438682,1.2923925314530393,-0.27754203096616203,922302.0,5.873560006044251,0.2187532573391593,0.035815843306407746,925836.0,4.684730540444434,-1.054943313652549,-3.5742051690212833,932839.0,929.0303363439812,925.4963363439812,936.0333363439812
51,61,19,m,1,1,43.0,5,1,high,4 + 7 + 1 - 1 - 1,10,9,11,10,938.5695039999556,940.59554879996,942.1108198000002,947.1306814999552,949.559098800004,949.5591039999854,951.0759100999568,952.0933159999548,w,11,2.42841730004875,0,+0,209,29.216226120835817,-0.46202303981343196,0.9212632360827495,935382.0,-16.89205685385755,-0.19680514107324054,-0.2444078943367125,938917.0,10.871281865137394,3.3074582388089073,2.5059536244524043,960976.0,942.1113363439812,938.5763363439811,964.1703363439811
52,61,19,m,1,1,44.0,6,1,high,3 + 1 + 1 + 8 - 1,12,14,12,13,953.6101764999912,955.6336802999722,957.148592499958,962.16732529999,962.6550244999816,962.6550298999646,964.1727302999934,965.189946700004,w,12,0.4876991999917663,1,+10,219,7.908306575173654,0.12000556702355869,0.48927118141633086,950420.0,10.385488468597817,0.005723572595051074,-3.244768966482592,953953.0,12.84219667125537,-0.037145871647710216,-0.5320479235472972,1000775.0,957.1473363439811,953.6143363439811,1003.9693363439811
53,61,19,m,1,1,45.0,7,3,low,8 - 7 + 9 + 1 + 4,15,16,14,15,966.7071558999596,968.729569499963,970.2456478999812,975.2641528999666,975.7509885999608,975.7509936999996,977.2675511999988,978.2844230000046,e,15,0.486835699994117,1,+1,220,-25.736317173362476,-0.6731518795978824,-0.5927250260322383,963516.0,-15.321367308357246,-1.3746076644233227,-0.3116339214757411,967050.0,17.357953811329054,0.5787023655795593,-0.03126521431265861,1013896.0,970.2443363439811,966.7103363439811,1017.0903363439811
54,61,19,m,1,1,46.0,8,3,low,7 - 1 + 9 - 5 + 4,14,15,13,14,979.801140800002,981.825810499955,983.34104129998,988.3606624999666,989.135050199984,989.1350553999656,990.6519389000024,991.6686368999652,e,14,0.7743877000175416,1,+1,221,-19.40862872727223,0.01296734778284403,0.6882433827378858,976612.0,-52.652073206588476,0.6669752417139669,-0.0826543490722198,980146.0,5.876080907665539,0.8014057360000679,0.22058131075378795,1233599.0,983.3403363439811,979.8063363439811,1236.793336343981
55,61,19,m,1,1,47.0,9,1,low,2 + 1 + 9 + 1 + 1,14,14,12,13,993.1851717999672,995.2126129000098,996.7278430999722,1001.7461600999814,1002.45506269997,1002.4550679000096,1003.9718131999834,1004.9886153999832,q,14,0.7089025999885052,1,+1,222,15.492399016656327,0.005887198457252829,0.5516424898685144,989999.0,14.37052867339974,-1.4255715560216418,-1.1094564465575463,993532.0,30.56402240099752,0.7235410714210557,0.17679892267412356,1027095.0,996.7263363439812,993.1933363439812,1030.2893363439812
56,61,19,m,1,1,48.0,10,3,high,9 - 1 + 5 - 6 + 8,15,17,14,15,1006.5059555000043,1008.5335878999904,1010.0488555000048,1015.0674011000084,1015.5750805999852,1015.5750856999656,1017.0925585000076,1018.1097627999844,e,15,0.5076794999768026,1,+10,232,-3.6573800550958113,1.6768863245218206,4.122641668893128,1003320.0,21.906652718896886,0.2093823739929972,0.20726720257087905,1006853.0,-32.99167779100882,1.5005210248669867,0.6020908216965069,1301222.0,1010.0473363439811,1006.5143363439812,1304.4163363439811
57,61,19,m,1,1,49.0,11,1,low,8 + 1 + 1 + 1 - 3,8,8,9,6,1019.6264231000096,1021.655176099972,1023.1701350999648,1028.1882371999673,1028.7750499999966,1028.7750552999787,1030.291547700006,1031.3090081999544,q,8,0.5868128000292927,1,+1,233,-24.19346475701943,1.6124225794476335,0.20077230107030486,1016441.0,5.835155373917624,0.26813979885485395,0.2665313420272053,1019975.0,19.863648728014468,0.3406803257187381,0.15728132674217488,1110526.0,1023.1693363439812,1019.6353363439812,1113.7203363439812
58,61,19,m,1,1,50.0,12,4,low,2 + 9 - 4 + 8 + 7,22,22,23,21,1032.8254770999774,1034.851072199992,1036.366313699982,1041.3850053999922,1044.0469841999584,1044.0469899000018,1045.5636172000086,1046.5806024000049,w,23,2.661978799966164,0,+0,233,2.7515530651154823,0.8154969147125959,0.1231896961493737,1029637.0,-15.380258277332373,-0.15729684138235012,0.01556337617541681,1033171.0,-2.7429373265993355,-0.29176149444830113,0.19547073022174954,1154550.0,1036.3653363439812,1032.831336343981,1157.744336343981
59,61,19,m,1,1,51.0,13,4,high,3 + 8 - 4 + 9 + 7,23,24,22,23,1048.0978912999851,1050.125061800005,1051.6400661999942,1056.6583372000025,1059.0470523000113,1059.047057499993,1060.5636458999943,1061.5809356999816,e,23,2.3887151000089943,1,+10,243,-48.783901815249415,1.497277932682568,0.002604439469337194,1044911.0,-21.362091046562135,-0.9325376780202008,-0.7532863194618549,1048445.0,1.4827221709923002,-0.09224155723707117,-0.05878632255458793,1167590.0,1051.639336343981,1048.1053363439812,1170.784336343981
60,61,19,m,1,1,52.0,14,4,low,6 + 7 + 9 - 3 + 5,24,23,24,22,1063.0979183999589,1065.1248267999615,1066.6402773999723,1071.6588987999712,1072.0789456999628,1072.0789510000031,1073.595774299989,1074.61270160001,w,24,0.4200468999915756,1,+1,244,3.90456277087967,0.2866583037997037,0.10403643887637237,1059911.0,4.8518475418148075,-0.19623889142567474,3.614824197188126,1063445.0,-12.046490663684768,0.44032362894499855,-0.4728550281569639,1247358.0,1066.639336343981,1063.1053363439812,1250.552336343981
61,61,19,m,1,1,53.0,15,2,high,8 + 1 + 9 + 1 - 4,15,15,16,14,1076.1304687999657,1078.1560873999842,1079.6709575999994,1084.6891384999617,1085.6550655000028,1085.6550712999888,1087.171808199957,1088.1891957999906,q,15,0.9659270000411198,1,+10,254,12.148281248309937,-0.8746838131750678,0.002975324359789422,1072942.0,9.997055436326857,-0.725858004121708,0.061816356864523136,1076475.0,-1.440078220535871,0.42374136338881296,0.09991152010042104,1096991.0,1079.669336343981,1076.1363363439812,1100.1853363439811
62,61,19,m,1,1,54.0,16,2,high,9 + 5 - 6 + 1 - 1,8,9,8,7,1089.7060010999558,1091.732328199956,1093.2475941999585,1098.2668374999776,1098.67092579999,1098.67093079997,1100.1874272999703,1101.2065729000024,w,8,0.4040883000125177,1,+10,264,-8.303607583775445,-0.035083316883127935,-0.2325491449290169,1086518.0,19.61854919171585,-1.2227843757441166,0.2196466526058667,1090052.0,17.106771614681122,0.8876814802887409,0.1903023769622405,1180735.0,1093.246336343981,1089.7123363439812,1183.929336343981
63,61,19,m,1,1,55.0,17,1,low,9 + 8 + 1 + 1 - 1,18,18,17,19,1102.723555399978,1104.75088279997,1106.2661280999891,1111.2842898999806,1112.2068575999583,1112.2068624999956,1113.7233583999914,1114.7405378000112,q,18,0.9225676999776624,1,+1,265,-4.494153385496773,-1.4161605351753295,0.12276033380087537,1099537.0,-4.633020269419433,-2.018817917166298,-0.2680916738633239,1103070.0,1.3757727195139964,0.7452635390756042,0.11762357025317316,1140870.0,1106.264336343981,1102.7313363439812,1144.064336343981
64,61,19,m,1,1,56.0,18,2,high,6 + 1 + 7 - 8 - 1,5,7,4,5,1116.2573329999575,1118.2837846999755,1119.7991369999943,1124.8192092999816,1129.4628883000114,1129.4628949000034,1130.979557499988,1131.9967353999964,q,7,4.643679000029806,0,+0,265,-2.948910675436622,0.7515827702016695,0.16924741489618977,1113070.0,21.45254188464368,-1.2329789896817207,-0.19790097658241734,1116605.0,20.15931118761703,0.7911870040201494,0.195728659563013,1327460.0,1119.7993363439812,1116.264336343981,1330.6543363439812
65,61,19,m,1,1,57.0,19,1,low,8 + 1 + 5 + 1 + 1,16,16,17,15,1133.5136005000095,1135.5376231999835,1137.0529707999667,1142.0709190999623,1142.5508350000018,1142.5508401999832,1144.0672870999551,1145.0843617999926,q,16,0.4799159000394866,1,+1,266,13.35817317902595,0.39559356900020415,-0.11730005229106544,1130323.0,10.095811249054186,-0.7192625284765475,0.02986020474613449,1133857.0,-22.091378630128908,-0.14221769433779485,0.014278026790669696,1193894.0,1137.0513363439811,1133.5173363439812,1197.0883363439812
66,61,19,m,1,1,58.0,20,4,low,4 + 7 + 9 - 5 + 7,22,23,24,22,1146.6013291999698,1148.6275594999895,1150.1431576999605,1155.161559899978,1156.230933999992,1156.230939299974,1157.7475680999923,1158.7644919999875,e,22,1.0693741000141015,1,+1,267,-0.8161762171215763,0.7646403560404762,0.15069345556054348,1143413.0,1.709367551010494,-1.5674698834836498,-12.346919097134958,1146947.0,-13.379698839330104,-0.12126219754837297,0.824812463214351,1274902.0,1150.141336343981,1146.6073363439812,1278.0963363439812
67,61,19,m,1,1,59.0,21,4,low,2 + 9 - 3 + 5 + 8,21,21,23,22,1160.281495400006,1162.3052503999788,1163.821411199984,1168.8400468999753,1169.27083579998,1169.270841099962,1170.7873404999846,1171.804769999988,q,21,0.4307889000046998,1,+1,268,18.998721212122497,-2.6498595750662144,-0.05796341495294044,1157091.0,-41.42580199302616,-0.9627955439205147,0.05289359291668205,1160626.0,0.4262398353053811,0.41259999183281604,0.5316920141115995,1343182.0,1163.8203363439811,1160.285336343981,1346.3763363439812
68,61,19,m,1,1,60.0,22,2,high,5 + 8 + 1 - 1 + 9,22,21,23,22,1173.3215805999937,1175.3443638999595,1176.8595468999702,1181.8788475999609,1182.4148447999614,1182.4148535999702,1183.931454300007,1184.9488523000036,e,22,0.5359972000005655,1,+10,278,23.305821205261637,0.4056768572653313,-0.019124175624790407,1170130.0,-27.621524878888952,-0.667717975224301,-0.061107396162567884,1173665.0,-8.342112205952544,1.7749660060063377,0.09788040749402516,1477733.0,1176.859336343981,1173.3243363439813,1480.927336343981
69,61,19,m,1,1,61.0,23,1,high,3 + 1 + 8 + 1 + 1,14,12,13,14,1186.4658716999693,1188.4944859999814,1190.0098507999792,1195.027961099986,1195.5748076000018,1195.574812899984,1197.091566499963,1198.1089581999695,e,14,0.5468465000158176,1,+10,288,-19.981340875096315,-0.019893452350276064,-0.04916663986198877,1183279.0,7.477849065187704,-0.2604935114178035,-0.10269143110111267,1186814.0,-25.78175081499306,1.1639619990283228,-0.02918993849035245,1207230.0,1190.0083363439812,1186.4733363439811,1210.4243363439812
70,61,19,m,1,1,62.0,24,1,high,9 + 7 + 1 + 1 + 1,19,19,20,18,1199.6253531999537,1201.6502275000094,1203.1656935999636,1208.183804899978,1208.910800899961,1208.9108062000014,1210.4271671999595,1211.4444377999753,q,19,0.7269959999830462,1,+10,298,8.745848290967151,-1.3931679884304744,-0.22899109665032746,1196436.0,28.414008802483767,-0.037245481795275204,0.09666624184889194,1199970.0,-16.532252745838374,0.4330412392014331,-0.02547405130248448,1220374.0,1203.1643363439812,1199.630336343981,1223.5683363439812
71,61,19,m,1,1,63.0,25,1,high,7 + 1 + 4 + 1 - 1,12,13,14,12,1212.9607857000085,1214.987801399955,1216.5028235999634,1221.520844899991,1222.0548317999928,1222.054837499978,1223.5712200999842,1224.5887640999863,e,12,0.5339869000017643,1,+10,308,-32.45226698437946,-1.523482294988062,-0.03339385297998665,1209773.0,-9.002066474332524,0.20519202790857527,-0.06901649354240713,1213307.0,-1.8840327358572333,-0.5312755946799905,1.0091866698772005,1260454.0,1216.5013363439812,1212.967336343981,1263.648336343981
72,61,19,m,1,1,64.0,26,3,low,2 + 1 + 9 - 4 + 6,14,16,15,14,1226.1055025999667,1228.132632199966,1229.6479593999684,1234.66640669998,1235.27882040001,1235.2788255999913,1236.7961817999603,1237.8131265999982,e,14,0.6124137000297196,1,+1,309,-13.48818994811064,1.604263138022687,-0.0880792023892949,1222918.0,14.908112937692577,-0.362049326045657,-0.05053640097329959,1226452.0,43.385651738917964,0.4095552333218908,0.30551973823452805,1356374.0,1229.6463363439811,1226.112336343981,1359.5683363439812
73,61,19,m,1,1,65.0,27,4,low,9 + 4 - 6 + 8 + 7,22,22,24,21,1239.32990219997,1241.3573875000002,1242.8728473999654,1247.891527300002,1249.0387489999994,1249.0387543999825,1250.555275199993,1251.5719877000083,q,22,1.147221699997317,1,+1,310,-38.08853507237451,0.40965014058342586,0.4068940526675868,1236143.0,14.356166802697995,-3.295776009577489,-0.9722191049383699,1239677.0,-16.860860770839366,-0.9514643437759558,-0.5779606414653422,1369605.0,1242.871336343981,1239.3373363439812,1372.7993363439812
74,61,19,m,1,1,66.0,28,1,low,5 + 1 + 1 + 6 + 1,14,14,16,13,1253.0897698999615,1255.118368699972,1256.6335570999654,1261.6520691000042,1262.1348645999678,1262.1348699000082,1263.651180899993,1264.6681440999964,q,14,0.4827954999636858,1,+1,311,9.114961528491687,-0.7664790800419139,-0.36587047422183705,1249904.0,-8.668173720496394,0.26915848253494,-0.46525080547942466,1253437.0,-10.596651203558306,-0.39267886332775515,0.35597493826239646,1288014.0,1256.631336343981,1253.0983363439811,1291.208336343981
75,61,19,m,1,1,67.0,29,4,high,5 + 8 - 4 - 6 + 9,12,12,14,13,1266.185078999959,1268.212347499968,1269.7273313999758,1274.745937199972,1276.5826830999576,1276.582701499981,1278.099211999972,1279.1165431999834,q,12,1.8367458999855444,1,+10,321,-5.006142227419808,0.47604965495148477,-0.8734573045107519,1262998.0,42.74704538755776,0.3613810178594896,-1.4021530946401768,1266531.0,19.057161768222773,0.19260357962201446,2.0774529879963737,1382677.0,1269.725336343981,1266.1923363439812,1385.871336343981
76,61,19,m,1,1,68.0,30,1,high,7 + 1 + 5 + 1 - 1,13,12,14,13,1280.6334862000076,1282.656572500011,1284.171881199989,1289.1910795999574,1289.694794199953,1289.6947991999914,1291.2111273999908,1292.2281807999825,e,13,0.5037145999958739,1,+10,331,20.24396354663571,-0.07586234886262133,-0.6952013291399535,1277442.0,-0.007637523769169263,-0.4118790079607173,-0.4112628673818861,1280976.0,-1.23661592273087,-0.6261099129970091,0.09846122984087113,1744917.0,1284.1703363439813,1280.6363363439812,1748.111336343981
77,61,19,m,1,1,69.0,31,3,high,8 + 6 - 7 + 1 - 4,4,3,4,5,1293.7450400000089,1295.7667901999666,1297.2821373000045,1302.3010050999585,1302.9027795000002,1302.9027847999823,1304.4194483999745,1305.4370953000034,w,4,0.6017744000419043,1,+10,341,9.927919667035479,-0.7103020326457621,0.1206396232420408,1290552.0,-0.06571029764053549,-0.2684624641722655,-0.6717549438872759,1294086.0,2.12327701176134,-0.13338587326475349,-0.09847109261068976,1559237.0,1297.2803363439812,1293.746336343981,1562.4313363439812
78,61,19,m,1,1,70.0,32,2,high,9 + 6 + 1 + 7 + 1,24,25,24,23,1306.9539333999855,1308.98092479998,1310.4961500999634,1315.5140539999702,1316.0546865999931,1316.0546918999753,1317.571328399994,1318.589041500003,e,23,0.5406326000229456,0,+0,341,12.492694069415307,-1.5310110660864105,0.9187852596371737,1303766.0,-31.251228281442827,1.1446918124836039,-0.02916584857716842,1307299.0,10.038360420636225,0.06022117116191783,-0.0514234592697822,1490829.0,1310.4933363439811,1306.9603363439812,1494.023336343981
79,61,19,m,1,1,71.0,33,2,high,3 + 1 + 8 - 5 - 1,6,7,5,6,1320.105772699986,1322.130606199964,1323.6460453000036,1328.664218299964,1329.126658699999,1329.1266638999805,1330.657680400007,1331.6749671999714,e,6,0.4624404000351205,1,+10,351,32.08379909412786,-1.1311802521625154,-0.5566812361732012,1316916.0,11.636103378048599,0.47527102417646994,0.11081237331467175,1320450.0,24.44308136798539,-0.12678446794079612,-0.12109270326896815,1517069.0,1323.6443363439812,1320.110336343981,1520.263336343981
80,61,19,m,1,1,72.0,34,4,high,5 + 7 - 4 + 8 + 6,22,22,23,24,1333.1919720000003,1335.2186912999605,1336.733983699989,1341.7527185999788,1344.862663500011,1344.8626685999916,1346.3792859999812,1347.3965861999895,q,22,3.109944900032133,1,+10,361,-12.681181199553707,1.529258340047587,0.06139980436500814,1330004.0,-6.844729909201085,-2.268495282791257,-0.07650096176464416,1333538.0,-25.950829491124132,-0.4891368726964336,0.07187057983745304,1504002.0,1336.7323363439812,1333.198336343981,1507.196336343981
81,61,19,m,1,1,73.0,35,3,high,6 - 1 + 7 - 8 + 9,13,11,13,12,1348.9134335999845,1350.9347223999794,1352.4499855999602,1357.4693324999537,1358.054648099991,1358.054653499974,1359.5711068999954,1360.588771199982,w,13,0.5853156000375748,1,+10,371,16.585091156259093,0.07538000866606431,-0.6305254272520386,1345720.0,10.25210226517256,0.8646468784214809,-0.03800128423430582,1349254.0,15.04217558140452,-1.2303885498565164,0.0077210352104624125,1572452.0,1352.448336343981,1348.9143363439812,1575.6463363439811
82,61,19,m,1,1,74.0,36,4,high,7 + 6 + 8 - 4 + 5,22,21,23,22,1362.1062912999769,1364.1290803999873,1365.644230899983,1370.6625995999784,1371.2866322000043,1371.2866371999844,1372.8027153000005,1373.8199683999992,e,22,0.624032600026112,1,+10,381,-26.84267780887539,0.8491564780929339,0.23321052137784015,1358913.0,-24.54609026460361,-0.47475787523782476,1.2876632131610357,1362448.0,42.51420185851074,1.6279288010481086,0.01628012622830166,1718780.0,1365.6423363439812,1362.1073363439812,1721.9743363439811
83,61,19,m,1,1,75.0,37,4,low,4 + 9 - 7 + 8 + 5,19,20,19,21,1375.3368701,1377.3601655999664,1378.8754464999656,1383.8939112999942,1384.3586401999928,1384.3586452999734,1385.8748639000114,1386.8916050999542,w,19,0.4647288999985903,1,+1,382,2.9735703655076584,0.1874763631081855,0.2862811636821583,1372145.0,-40.359489779344116,-0.3411492709643795,-0.5117765934199134,1375679.0,28.672412857983108,-0.38059084448304237,-0.006093324276687628,1731789.0,1378.8733363439812,1375.3393363439811,1734.9833363439811
84,61,19,m,1,2,76.0,0,2,low,8 + 1 + 1 + 9 - 4,15,16,15,14,1470.2511661999745,1472.2787293999572,1473.79394459998,1478.8131150999689,1479.4145347999877,1479.414539799967,1480.930928799964,1481.9481646000058,w,15,0.6014197000185959,1,+1,383,-3.432512015142404,-0.8427454648678561,4.436552388133847,1467064.0,-5.290584972472223,0.49801200419759706,-0.1339968443040329,1470598.0,20.435067065042276,-0.32473731775884573,0.07128396790647096,1530565.0,1473.792336343981,1470.2583363439812,1533.7593363439812
85,61,19,m,1,2,77.0,1,2,low,3 + 9 - 1 - 5 + 1,7,6,5,7,1483.4650060999556,1485.4888460999937,1487.0041941999807,1492.0223235999583,1492.5105940999929,1492.5106024999986,1494.0270291999914,1495.0439646999585,e,7,0.4882705000345595,1,+1,384,16.174189877367237,0.10735709273573946,0.13577079167110795,1480274.0,7.232773248737507,-0.36216917520339464,-0.0471930175240336,1483807.0,40.36867282700379,0.14274001559885008,0.05258715337371522,1545605.0,1487.0013363439812,1483.468336343981,1548.7993363439812
86,61,19,m,1,2,78.0,2,4,low,6 + 9 + 7 - 3 - 5,14,15,14,13,1496.5610382999876,1498.58728659997,1500.1034034999902,1505.121800599969,1505.6384573999676,1505.6384628000087,1507.1549930999754,1508.2168750999845,w,14,0.5166567999986,1,+1,385,11.319804237810995,1.1304625997859192,-0.04295824597534881,1493372.0,-12.904378058991066,0.27222299307668774,-0.08850011939470215,1496907.0,20.491112591563105,-0.0786872165976904,0.02964002572815483,1773685.0,1500.101336343981,1496.5663363439812,1776.879336343981
87,61,19,m,1,2,79.0,3,2,low,7 + 6 + 1 + 8 + 1,23,21,23,22,1509.7333617999684,1511.7576481999713,1513.2729380999808,1518.2928907999883,1518.750553299964,1518.7505594000104,1520.2673009999562,1521.2844780999585,w,23,0.4576624999754131,1,+1,386,3.2934305064378098,0.8838696922246694,0.03521518348771502,1506542.0,-1.4883153783037102,-1.7246045395798886,-0.03652818237898647,1510078.0,-0.9335835035110094,0.7515191428603982,-0.01315797107629968,1599462.0,1513.2723363439811,1509.736336343981,1602.6563363439811
88,61,19,m,1,2,80.0,4,2,high,7 + 5 + 1 - 1 - 8,4,2,4,3,1522.8009780999855,1524.8273355999845,1526.342519800004,1531.3612132999697,1532.2466258999775,1532.2466312999604,1533.7632697999943,1534.780501100002,w,4,0.8854126000078395,1,+10,396,-15.690398764440921,-1.0610466456370293,0.020018011690360327,1519612.0,-45.917685374538976,-1.2644477995507657,-0.022917161335353375,1523146.0,-36.91739624905717,0.9597260888865327,-0.10261250542422817,1625772.0,1526.340336343981,1522.8063363439812,1628.966336343981
89,61,19,m,1,2,81.0,5,2,low,4 + 1 + 9 + 1 - 6,9,7,8,9,1536.297014899959,1538.324909399962,1539.8401835999684,1544.868080699991,1547.2865406000055,1547.2865460999892,1548.8037782000029,1549.8206866999972,e,9,2.418459900014568,1,+1,397,21.708725545755954,-0.03476882149175342,-0.06497787602184069,1533109.0,-16.9861825371854,-0.6169114630604904,0.14876652563498682,1536652.0,10.311721495848571,-1.1252755293815637,0.2628135171049579,1638868.0,1539.8463363439812,1536.303336343981,1642.062336343981
90,61,19,m,1,2,82.0,6,3,low,4 + 1 + 8 + 9 - 5,17,18,19,17,1551.3373138000024,1553.363306299958,1554.8784709000029,1559.897829799971,1560.918514399964,1560.918519800005,1562.4351507999818,1563.4520797999576,e,17,1.0206845999928191,1,+1,398,8.121161908284831,4.66869697320155,3.3409657182684196,1548148.0,8.19267603774815,0.5168307146236879,-0.378515855431645,1551682.0,-11.32692531119746,-0.7786310144880337,0.004880278754506584,1586332.0,1554.8763363439812,1551.342336343981,1589.5263363439813
91,61,19,m,1,2,83.0,7,3,low,8 - 1 + 6 - 7 + 5,11,13,12,11,1564.9687873999935,1566.9932620999753,1568.5085617000004,1573.5273112999855,1574.1345368999755,1574.1345422999584,1575.6509855999611,1576.667965999979,e,11,0.6072255999897607,1,+1,399,-0.6560687256002211,1.0334086249957846,0.06081970011973059,1561778.0,12.071537122301464,-0.46230100600513513,0.28245353983224497,1565312.0,-8.181334711815104,-0.9535943710471804,0.05482680927141903,1678773.0,1568.506336343981,1564.9723363439812,1681.967336343981
92,61,19,m,1,2,84.0,8,3,low,4 + 7 - 3 + 5 - 1,12,12,13,11,1578.1853000999545,1580.2100166999735,1581.725563099957,1586.7438968999777,1588.0143909999751,1588.0143962999573,1589.5308879999793,1590.5476774999988,q,12,1.2704940999974497,1,+1,400,0.5338683578837315,1.9318861778060903,-0.09309452975200871,1574994.0,12.902894199025981,-0.30454464972895945,-0.05214947290168559,1578528.0,5.1100228684041085,0.5638303508094911,0.035346101779563543,1705573.0,1581.7223363439812,1578.188336343981,1708.7673363439812
93,61,19,m,1,2,85.0,9,2,high,5 + 1 + 7 - 6 + 1,8,8,7,6,1592.0654573999927,1594.0925283000106,1595.60789069999,1600.6263105999678,1601.142360400001,1601.1423656999832,1602.6589493000065,1603.6780255999763,q,8,0.5160498000332154,1,+10,410,4.381874346856346,-1.0909273940235646,-0.12866007671654445,1588877.0,-26.27796362470675,0.02485266812161324,-0.027081013691991673,1592411.0,8.540043309738294,-1.0300521611737192,-0.2968701411734258,1652308.0,1595.6053363439812,1592.071336343981,1655.5023363439811
94,61,19,m,1,2,86.0,10,2,high,8 + 1 + 4 - 7 + 1,7,6,7,5,1605.1949129999848,1607.2175133999554,1608.7327811999712,1613.7514422999811,1614.3424818000058,1614.342487099988,1615.8586469999864,1616.8758032000042,q,6,0.5910395000246353,0,+0,410,-16.955525971583356,0.39023212898259985,0.10791371938155736,1602002.0,-4.652183760326633,1.1475061126339163,2.003228894198276,1605536.0,-17.379393729955932,-0.18587124070586025,-0.06788972957672801,1665597.0,1608.7303363439812,1605.196336343981,1668.7913363439811
95,61,19,m,1,2,87.0,11,2,low,9 + 4 - 6 + 1 - 1,7,7,8,9,1618.3926263999892,1620.420007699984,1621.9352147000027,1626.953759199998,1627.454379600007,1627.4543846999877,1628.970853799954,1629.9874914999818,q,7,0.5006204000092112,1,+1,411,10.215209840482657,-1.409200094401898,0.1293884823711715,1615204.0,13.443001777800855,-1.4295581902450962,0.021094437084579365,1618738.0,10.72488046861689,-2.014730672328014,-10.4877679815486,1692172.0,1621.9323363439812,1618.398336343981,1695.3663363439812
96,61,19,m,1,2,88.0,12,2,low,2 + 9 + 1 + 1 - 5,8,6,7,8,1631.5044633999933,1633.5290294999722,1635.0443658999866,1640.0639601000005,1640.550485899963,1640.550491300004,1642.0670991999796,1643.0841105,e,8,0.4865257999626919,1,+1,412,9.890109081825818,-0.1809144754027896,0.1759131390133124,1628313.0,-17.20946180909619,0.25829195963907736,-0.1324728371152082,1631848.0,-7.026843573729362,0.09756778695305446,-1.1139732169929348,1786820.0,1635.042336343981,1631.5073363439813,1790.014336343981
97,61,19,m,1,2,89.0,13,2,low,2 + 1 + 9 - 4 + 1,9,11,8,9,1644.6007810999872,1646.6232218999648,1648.1386096999631,1653.1570026999689,1653.9903743999894,1653.9903797999723,1655.506588999997,1656.5229219999746,e,9,0.833371700020507,1,+1,413,-3.2927372710429097,0.1462803769940697,-0.03557101290300069,1641407.0,13.552893659528392,-0.9089476495548814,-0.049712579687676284,1644941.0,-15.761824892088644,0.2589452661310565,0.021667056791675465,1812980.0,1648.1353363439812,1644.601336343981,1816.1743363439812
98,61,19,m,1,2,90.0,14,2,high,6 + 1 + 1 + 8 - 9,7,7,9,5,1658.0396925999669,1660.0666065000114,1661.582641099987,1666.6124800999532,1667.2784051999915,1667.2784105999744,1668.7951289999764,1669.812596499978,q,7,0.6659251000382937,1,+10,423,16.730293462558276,2.269854759807232,0.20283985449304232,1654851.0,4.782804886174701,0.6618111962142175,0.05531747454968117,1658397.0,-15.064836571193403,0.5429182159284158,0.16205678059613438,1892187.0,1661.591336343981,1658.0453363439813,1895.381336343981
99,61,19,m,1,2,91.0,15,3,high,6 + 8 + 7 + 1 - 9,13,15,14,13,1671.3292186000035,1673.354281899985,1674.8703439999954,1679.8904158999794,1680.454304499959,1680.4543101000015,1681.9711349999998,1682.9884677999653,e,13,0.5638885999796912,1,+10,433,-1.1603774051677789,0.2908598014292014,3.6174436530703993,1668139.0,20.82276769053326,-1.8400787388836601,-0.0987251305207093,1671675.0,-42.86926072193147,-1.5236408957683905,0.07822888973068776,1799892.0,1674.869336343981,1671.333336343981,1803.0863363439812
100,61,19,m,1,2,92.0,16,2,low,5 + 7 - 8 + 1 + 1,6,6,7,8,1684.505243499996,1686.5306036999682,1688.045975499961,1693.0659302999848,1693.8543525999994,1693.8543577999808,1695.371038799989,1696.3878967000055,q,6,0.7884223000146449,1,+1,434,73.66905091284285,-4.12851292327059,-10.478738273305515,1681315.0,-68.91430196146294,0.8659591368643982,0.5029341948270885,1684850.0,27.126272670238187,-0.3044689133638423,-0.047375398123146395,2109978.0,1688.044336343981,1684.5093363439812,2113.172336343981
101,61,19,m,1,2,93.0,17,3,high,2 + 9 - 3 + 4 + 1,13,13,11,14,1697.9047322999686,1699.931136499974,1701.4465470999712,1706.4666496999562,1707.2546700999956,1707.2546759999825,1708.7711114999838,1709.7884903000086,q,13,0.788020400039386,1,+10,444,-18.585209982742402,0.1477741467300735,0.05135792793972804,1694715.0,5.648753536900338,0.2495779547193031,0.049185602057388866,1698251.0,6.904967710923437,-1.0516628407656379,-0.013593470809207364,1826052.0,1701.4453363439811,1697.909336343981,1829.246336343981
102,61,19,m,1,2,94.0,18,4,low,3 + 9 - 5 + 8 - 7,8,8,9,7,1711.305408199958,1713.3309935999569,1714.8462934999843,1719.8646279000095,1720.462315599958,1720.462320999999,1721.978808099986,1722.995717599988,q,8,0.5976876999484375,1,+1,445,32.13484903146207,1.504117143869789,0.08952777271027346,1708115.0,8.881531685748001,-1.4711397022901886,-0.10362683594053568,1711649.0,3.4089643832157974,-0.4544090751912826,0.2153221908095153,1878988.0,1714.843336343981,1711.3093363439812,1882.1823363439812
103,61,19,m,1,2,95.0,19,4,high,7 + 8 - 4 + 6 - 5,12,13,12,11,1724.512517199968,1726.5389298999798,1728.053621399973,1733.0740278000012,1733.470269399986,1733.470274399966,1734.9876636999545,1736.0048158999998,w,12,0.3962415999849327,1,+10,455,8.322726028403904,-0.03788217569897245,0.07202841921594771,1721323.0,3.3671728320461103,-1.0473702304189105,-0.15637618239993212,1724858.0,5.0047903585432785,0.792425644903128,-0.030462600283704955,2083562.0,1728.052336343981,1724.5173363439812,2086.756336343981
104,61,19,m,1,2,96.0,20,1,high,4 + 8 + 1 - 1 - 1,11,9,13,11,1737.5216255999983,1739.5471239999752,1741.0623430999694,1746.080723299994,1746.5982174999665,1746.5982224000036,1748.1149194999598,1749.132266999979,e,11,0.5174941999721341,1,+10,465,6.573323001930188,-0.1745706814234076,0.15180044549107463,1734330.0,-10.079935869366793,-2.376529394805911,-0.03789711401485851,1737865.0,-8.579660697785744,1.159154429798046,0.17724756791180885,1758116.0,1741.0593363439812,1737.524336343981,1761.3103363439811
105,61,19,m,1,2,97.0,21,1,high,6 + 1 + 8 + 1 - 1,15,14,15,13,1750.6494732999709,1752.6754539000103,1754.1906772999791,1759.2086439999985,1759.7983216999564,1759.7983269999968,1761.3148477000068,1762.3322138999938,w,15,0.5896776999579743,1,+10,475,9.009590565783885,0.2731157699521667,0.08014751724993663,1747460.0,-36.15498183537798,-0.42235392512479475,-0.058032684181117844,1750993.0,0.7456347739220437,1.432438476475789,0.1281444120472277,1852259.0,1754.187336343981,1750.6543363439812,1855.4533363439812
106,61,19,m,1,2,98.0,22,4,high,3 + 8 - 4 + 9 + 6,22,23,22,21,1763.8492453999934,1765.87530710001,1767.3909503999748,1772.4091439999756,1775.36623829999,1775.366243699973,1776.8836709999596,1777.9008909999975,w,22,2.9570943000144325,1,+10,485,11.21446553427467,0.39234003721888655,0.021780651360285397,1760659.0,-4.068186835097974,-0.5733668318776095,0.04013251100322268,1764193.0,1.2707111110502947,0.5326688326614182,0.07260314775564769,2301513.0,1767.3873363439811,1763.8533363439813,2304.707336343981
107,61,19,m,1,2,99.0,23,2,low,6 + 8 + 1 + 1 - 7,9,11,8,9,1779.417739700002,1781.4452943999786,1782.9603628999903,1787.978632099985,1788.50225640001,1788.502261799993,1790.018983899965,1791.0358474999666,e,9,0.5236243000254035,1,+1,486,-6.2917048740602155,-0.4204241616419315,-0.08742804805826765,1776229.0,-28.092149059509904,-0.687449911561341,1.5097975132113053,1779763.0,-2.4869888508905653,0.2740834732899602,-0.508881438767451,2190874.0,1782.957336343981,1779.4233363439812,2194.0683363439807
108,61,19,m,1,2,100.0,24,3,high,3 - 7 + 5 + 1 + 9,11,11,13,12,1792.5526318000047,1794.5796801999677,1796.094929499959,1801.115110099956,1801.5742195000057,1801.574225299992,1803.0909306000103,1804.108073099982,q,11,0.4591094000497833,1,+10,496,31.169866263047112,0.16517535819429874,0.00029313644349349133,1789363.0,4.288427468468679,-1.36390793429518,-0.045252456832744814,1792899.0,9.333535061939747,0.1716090869961162,0.23086558666699752,1839084.0,1796.093336343981,1792.5573363439812,1842.2783363439812
109,61,19,m,1,2,101.0,25,2,low,9 + 4 + 5 + 1 - 1,18,18,17,19,1805.6246106000035,1807.6525202000048,1809.167766299972,1814.185015099996,1814.662206799956,1814.6622121999967,1816.17899819999,1817.195921699982,q,18,0.4771916999598034,1,+1,497,8.331252979440364,0.5298519848994312,-0.176404861203314,1802436.0,0.6176116968343663,0.5416858355927383,0.08481274914452408,1805970.0,3.197279501540362,0.5840010890284395,0.06601991264630391,2341022.0,1809.1643363439812,1805.630336343981,2344.216336343981
110,61,19,m,1,2,102.0,26,3,low,8 + 4 + 1 - 7 + 9,15,13,16,15,1818.712909299997,1820.7387024000052,1822.253925899975,1827.2736415999825,1827.7341859999576,1827.7341911999972,1829.2510204999708,1830.2678480999891,e,15,0.4605443999753333,1,+1,498,-24.79793720059291,3.517088804675505,-0.17144376389307725,1815523.0,-7.546731292203633,-1.663918074276924,0.057862674576946826,1819058.0,9.81084738682569,0.026581542939054792,-0.05769541362341468,1919283.0,1822.2523363439811,1818.717336343981,1922.477336343981
111,61,19,m,1,2,103.0,27,3,low,4 + 1 + 8 + 9 - 5,17,17,18,19,1831.7844182999688,1833.808554999996,1835.323778799968,1840.341977000004,1840.7661783999647,1840.7661836000043,1842.2828430999648,1843.2999552999968,q,17,0.4242013999610208,1,+1,499,36.18490749049454,-0.4013737765353653,-0.06295413585039755,1828593.0,-9.516357543605569,0.2585141715879713,-0.06547019980600788,1832126.0,-24.364327443440164,0.31717297402075406,-0.02259647154619171,1932619.0,1835.3203363439811,1831.7873363439812,1935.813336343981
112,61,19,m,1,2,104.0,28,1,low,8 + 1 + 1 - 1 - 4,5,6,5,3,1844.8167336999904,1846.8439253999968,1848.3591984999948,1853.3772217999797,1853.9421581999632,1853.9421636000045,1855.4580019999996,1856.4751072999788,w,5,0.5649363999837078,1,+1,500,16.672310123449172,-0.681538821613354,-0.006347636058866346,1841628.0,-9.364949999994888,-1.0356749744091562,-0.1359765363491865,1845161.0,-16.491902517115594,-1.7092897120208077,-0.21149361545386225,1865612.0,1848.3553363439812,1844.822336343981,1868.8063363439812
113,61,19,m,1,2,105.0,29,1,high,5 + 1 + 1 + 9 + 1,17,17,16,19,1858.25844169996,1860.288248799974,1861.8038192999663,1866.821481299994,1867.2941491999663,1867.294154800009,1868.8106863999856,1869.8276313999668,q,17,0.4726678999722935,1,+10,510,-8.438425036370363,0.2658626318536479,0.15095720462718298,1855072.0,-13.304896372843483,-1.1311358182149878,0.026944734281790783,1858605.0,-41.587791393628706,-0.3626513236769613,-0.07530195592888189,1905748.0,1861.7993363439812,1858.266336343981,1908.9423363439812
114,61,19,m,1,2,106.0,30,4,high,3 + 8 - 7 + 9 - 5,8,9,7,8,1871.344457499974,1873.3664378999963,1874.8817134999556,1879.9010886999893,1880.670191099984,1880.6701965999675,1882.186919500004,1883.204301299993,e,8,0.7691023999941535,1,+10,520,9.643836977381183,0.26599064011405815,-0.015525842430468062,1868150.0,4.448377186876932,-0.7277505772971882,0.016161788436448665,1871685.0,-4.103243910795784,0.6186922005722622,0.029784538914183756,2314665.0,1874.879336343981,1871.3443363439812,2317.859336343981
115,61,19,m,1,2,107.0,31,2,high,3 + 8 + 1 - 5 + 1,8,8,6,9,1884.721260899969,1886.7439093999565,1888.259096199996,1893.277768299973,1893.8703032999765,1893.8703120999853,1895.3865577999968,1896.4037677999584,q,8,0.5925350000034086,1,+10,530,37.02281664707512,0.22381367181091694,-0.029977707385831387,1881528.0,11.071923099464243,-1.334287028036509,0.10376301833721979,1885061.0,-6.207981592846038,-0.11763540464820643,0.04554870290942237,2354145.0,1888.255336343981,1884.7223363439812,2357.339336343981
116,61,19,m,1,2,108.0,32,1,high,6 + 1 + 1 + 9 - 1,16,14,15,16,1897.921566199977,1899.9474903999944,1901.4629441999716,1906.480934799998,1907.430097799981,1907.4301028999616,1908.946776999976,1909.9639312999789,e,16,0.9491629999829456,1,+10,540,-15.692453869656571,0.6563528312124607,0.08678047370575803,1894731.0,12.573056679757075,-1.2674679337941326,0.03680560970798563,1898265.0,15.843205821090763,-0.528640896063509,-0.034710853938359154,1974115.0,1901.4593363439812,1897.9253363439811,1977.3093363439812
117,61,19,m,1,2,109.0,33,3,low,6 - 1 + 7 - 8 + 9,13,11,12,13,1911.4806295000017,1913.5037657999785,1915.0189796999912,1920.037130499957,1920.966098200006,1920.9661031999856,1922.482609300001,1923.4995517999632,e,13,0.9289677000488156,1,+1,541,11.082658715546572,-0.23428748699878366,0.03462511972622062,1908287.0,-11.238653395338138,-1.009461689949351,-0.01622889662619631,1911821.0,5.682874543528056,1.1356228494540188,0.1625626635344588,1960963.0,1915.015336343981,1911.4813363439812,1964.1573363439811
118,61,19,m,1,2,110.0,34,3,high,5 - 1 - 4 + 6 + 7,13,15,13,14,1925.0165817000088,1927.038279099972,1928.5533332999912,1933.5715673000088,1934.2860891000016,1934.286094899988,1935.8179853999757,1936.835384999984,w,13,0.7145217999932356,1,+10,551,13.85770811865737,1.3539414981891653,0.05738916236648017,1921822.0,-4.0526362001637,0.47575530974136715,0.059733337211843374,1925355.0,1.7669991536054237,-0.39705296479270746,0.2801069258889832,2070315.0,1928.5493363439812,1925.016336343981,2073.509336343981
119,61,19,m,1,2,111.0,35,4,high,8 + 5 - 4 + 7 + 9,25,25,26,24,1938.352303199994,1940.3767292999544,1941.8921184999635,1946.910522399994,1948.638017099991,1948.638022899977,1950.1546273999847,1951.1717018999625,e,24,1.727494699996896,0,+0,551,1.6590366700744328,0.34640899960874894,-0.016205847292261932,1935160.0,-12.060661195937854,-0.7362750407369125,0.19240970459161932,1938694.0,-15.927674815417852,-0.8708635304625894,0.07298326202712824,2327897.0,1941.888336343981,1938.3543363439812,2331.091336343981
120,61,19,m,1,2,112.0,36,3,low,2 - 4 + 9 + 7 + 1,15,15,16,13,1952.688155399985,1954.712548299984,1956.2278661999733,1961.24832829996,1962.6460568999755,1962.6460623999592,1964.1624867999928,1965.1791269999808,q,15,1.397728600015398,1,+1,552,-2.161227388071257,0.9990944880459827,0.008525330508178497,1949496.0,0.902132219695698,-0.424066687453049,0.6168567363216515,1953032.0,7.341680965210758,-0.49126681141749273,-0.126109282569407,2123226.0,1956.226336343981,1952.6903363439812,2126.420336343981
121,61,19,m,1,2,113.0,37,1,high,3 + 1 + 1 + 9 - 1,13,12,13,14,1966.6958048999657,1968.722167800006,1970.2372564999969,1975.255574599956,1975.7980278999892,1975.79803299997,1977.314547099988,1978.3318709000011,w,13,0.5424533000332303,1,+10,562,-9.694766932975106,-0.28791656042407343,-0.2144291682425261,1963506.0,10.340057550381353,-0.3525858483489346,-0.028951249116209166,1967039.0,-32.84651933271434,0.1810320586195493,-0.030685902554937083,2096883.0,1970.2333363439811,1966.7003363439812,2100.0773363439807
122,61,19,m,1,3,114.0,0,3,high,4 + 8 - 9 + 1 + 7,11,9,11,13,2062.8902915999643,2064.9168283999898,2066.4325732999714,2071.4532258999534,2071.9979215000058,2071.997926799988,2073.514495899959,2074.531987799972,w,11,0.5446956000523642,1,+10,572,23.989463392838477,1.3321959955986076,7.393847425177422,2059700.0,-30.962475969582627,0.3076160008084292,0.12287836522295303,2063236.0,4.532771802764547,-0.3031505751628325,0.07374275194754798,2151218.0,2066.430336343981,2062.8943363439807,2154.4123363439808
123,61,19,m,1,3,115.0,1,4,low,2 + 9 - 6 + 8 - 4,9,9,11,7,2076.048908099998,2078.0759069999917,2079.5911276999977,2084.6515436999616,2085.245941900008,2085.245947299991,2086.7625811999897,2087.779560499999,q,9,0.5943982000462711,1,+1,573,-26.524246473332273,-0.044001939765112574,2.3784642943000143,2072859.0,32.508966218365984,-1.0699264107352562,0.3684306628763352,2076435.0,6.7736514426272505,0.5729171689637935,-0.022602399421829844,2436289.0,2079.629336343981,2076.053336343981,2439.483336343981
124,61,19,m,1,3,116.0,2,1,low,9 + 1 + 1 + 7 - 1,17,17,19,16,2089.296221799974,2091.3209040999645,2092.836223199964,2097.85627379996,2098.565934299957,2098.565944699978,2100.0826607999625,2101.100077599985,q,17,0.7096604999969713,1,+1,574,-38.1682225127806,-2.1503987198163017,-0.3649388996762024,2086104.0,-38.68563532713003,-1.358874424043627,-0.08856937127711917,2089639.0,12.116803051430356,1.2424912603796816,-0.12049262288685947,2136603.0,2092.833336343981,2089.2983363439807,2139.797336343981
125,61,19,m,1,3,117.0,3,2,low,4 + 9 - 7 + 1 - 1,6,8,5,6,2102.6177849000087,2104.645003099984,2106.1602576999576,2111.179545299965,2111.6619463000097,2111.661951499991,2113.1782204000046,2114.195153000008,e,6,0.4824010000447742,1,+1,575,23.01941812393659,-0.008317464255129359,0.06215829202922407,2099428.0,3.032591054723772,-0.3767411851631097,-0.03355955664073207,2102962.0,-1.9452648806195358,-0.6666046303170239,1.6489045774430915,2410104.0,2106.156336343981,2102.622336343981,2413.2983363439807
126,61,19,m,1,3,118.0,4,3,low,3 + 1 + 6 - 8 + 9,11,12,11,13,2115.711724199995,2117.7367750999983,2119.25213009998,2124.272248099965,2124.9101343000075,2124.910139799991,2126.426514299994,2127.443527699972,w,11,0.6378862000419758,1,+1,576,32.344468291501656,0.6559929237835007,0.05956532887373145,2112520.0,30.215613865412216,-1.0413747996268796,0.08207110476828561,2116054.0,47.23090421353557,-0.573303071472675,1.0965275404243835,2164402.0,2119.248336343981,2115.714336343981,2167.596336343981
127,61,19,m,1,3,119.0,5,1,high,5 + 6 + 1 + 1 + 1,14,15,16,14,2128.960157199996,2130.984367099998,2132.499668399978,2137.517121599987,2138.285860200005,2138.285865699989,2139.802600199997,2140.820004599984,e,14,0.7687386000179686,1,+10,586,16.537668091187847,1.4988584482994618,0.06470328247465584,2125767.0,15.275591910828712,0.1983116313594815,-0.17819444219410174,2129300.0,-14.398868768733633,-0.7237435182565246,-0.04546817439038309,2177626.0,2132.494336343981,2128.9613363439807,2180.820336343981
128,61,19,m,1,3,120.0,6,3,low,5 + 6 + 7 - 1 - 9,8,9,7,8,2142.3369237000006,2144.3620028999867,2145.87712749996,2150.9391784999752,2152.901909200009,2152.901914999995,2154.4185350000043,2155.43546529999,e,8,1.9627307000337169,1,+1,587,-8.620192430934834,0.10668032777773018,-0.0796566601839106,2139145.0,24.560002880134064,0.38870106255184833,0.020048281658147316,2142721.0,0.8242746802878322,1.6701576516119365,0.5423914058955634,2273570.0,2145.915336343981,2142.339336343981,2276.764336343981
129,61,19,m,1,3,121.0,7,3,high,4 + 5 - 3 + 7 - 1,12,11,13,12,2156.952861899976,2158.9790843999945,2160.4939968999824,2165.513027899957,2166.085827599978,2166.08583289996,2167.602129600011,2168.61941569997,e,12,0.5727997000212781,1,+10,597,-8.056096744310302,0.7181809169294562,-0.036395627568032385,2153762.0,-1.5246512749978474,-0.18712298761705792,0.023565239164540897,2157296.0,8.028412495878221,-0.06167890793708697,0.047285619521892475,2529905.0,2160.4903363439807,2156.956336343981,2533.099336343981
130,61,19,m,1,3,122.0,8,1,high,7 - 1 + 9 + 1 - 1,15,14,13,15,2170.136231099954,2172.162463399989,2173.6773943000007,2178.6954725999967,2179.3097981999745,2179.309803399956,2180.8262503999867,2181.8434951999807,e,15,0.6143255999777466,1,+10,607,19.687589911931337,-0.09629756791939936,-0.04513104114912547,2166945.0,34.699708295093416,-0.8433133626143139,-0.07880512638065085,2170479.0,-8.833132752832277,0.4197928577376304,-0.008259320230302958,2204115.0,2173.6733363439807,2170.139336343981,2207.3093363439807
131,61,19,m,1,3,123.0,9,2,low,6 + 1 + 1 + 7 - 9,6,4,6,8,2183.361160199973,2185.38907559996,2186.904315599997,2191.922819599975,2192.541862099956,2192.541867699998,2194.0585007999907,2195.0912330999854,w,6,0.6190424999804236,1,+1,608,9.87778970037284,1.5971865451508007,-0.02671396562107642,2180171.0,22.90005621029696,-0.04904549263352109,-0.06068280293981454,2183706.0,8.286251673253938,-0.30251945634308,0.017829147506967624,2423177.0,2186.900336343981,2183.3653363439807,2426.371336343981
132,61,19,m,1,3,124.0,10,1,low,2 + 1 + 9 + 1 - 1,12,11,12,13,2196.6079136999906,2198.6334761999897,2200.148813899956,2205.167208799976,2205.797859499988,2205.79786479997,2207.315136199992,2208.331959699979,w,12,0.6306507000117563,1,+1,609,3.1844596047129627,-2.2258938857567303,-0.18114320775449766,2193416.0,-5.891616879515837,0.23729278836750378,-0.002835002825833266,2196950.0,7.014918457608363,0.48528311771980714,0.18184818389619006,2247362.0,2200.1443363439807,2196.610336343981,2250.556336343981
133,61,19,m,1,3,125.0,11,4,high,8 + 4 + 7 - 5 - 6,8,8,6,9,2209.8487508999533,2211.875852499972,2213.391112399986,2218.409476900008,2221.309903599962,2221.30990990001,2222.8264316999703,2223.843601799977,w,6,2.9004266999545507,0,+0,609,4.698566700306655,0.2969556878286568,0.0657822932368719,2206659.0,-18.975416251169694,0.18641291533918114,0.09843791810262381,2210192.0,-6.260618304054148,0.11639673383072147,0.13848099275577108,2449529.0,2213.386336343981,2209.853336343981,2452.723336343981
134,61,19,m,1,3,126.0,12,2,high,4 + 7 + 1 + 1 - 8,5,7,4,5,2225.360291899997,2227.386442499992,2228.901574299962,2233.93729099998,2235.941812300007,2235.9418172999867,2237.4583185999654,2238.4752550999983,q,7,2.0045213000266813,0,+0,609,-3.6071346234209294,-0.47984357118505105,0.24965157885627898,2222168.0,-28.395415058699655,-0.17496318890971718,-0.22055619236050683,2225720.0,34.59305774649222,-0.2913507724589195,-0.04695142263352947,2477553.0,2228.9143363439807,2225.362336343981,2480.747336343981
135,61,19,m,1,3,127.0,13,1,low,6 + 9 + 1 + 1 - 1,16,14,16,15,2239.992159699963,2242.019149300002,2243.5343036999693,2248.5521132999565,2249.045755899977,2249.0457610999583,2250.5622079999885,2251.5790884000016,w,16,0.4936426000203937,1,+1,610,-5.7329147275157375,-0.11964337916382739,0.15635491860366724,2236802.0,1.9802139343767502,-0.2123476643030484,0.07912296369266536,2240335.0,8.39133978110001,1.0700245775819868,0.11990603898893304,2260483.0,2243.529336343981,2239.996336343981,2263.677336343981
136,61,19,m,1,3,128.0,14,1,low,3 + 1 + 8 - 1 + 1,12,13,12,10,2253.0959871999803,2255.1180840999587,2256.63326089998,2261.6517093,2262.157672900008,2262.1576779999887,2263.6836413999554,2264.7002039999934,w,12,0.5059636000078171,1,+1,611,3.3491372914518465,1.3468140376957818,0.16049216318394866,2249900.0,6.293228377186928,-0.0022277693219834305,1.7158324076882034,2253434.0,11.112059895994278,-0.5808733431221578,-0.21524959707835434,2367505.0,2256.628336343981,2253.094336343981,2370.699336343981
137,61,19,m,1,3,129.0,15,3,high,3 + 8 + 1 + 5 - 9,8,9,8,7,2266.2173235999653,2268.2447952000075,2269.7601266999845,2274.7783864999656,2275.2537607999984,2275.25376599998,2276.7701681999606,2277.7873681999627,w,8,0.4753743000328541,1,+10,621,14.374514409178463,-0.4226824104238345,-0.29354085211505865,2263027.0,-6.6718493840846,-0.7703131225443869,0.12028638939020775,2266561.0,-9.834823189199728,1.7787461132302038,-0.14173066763937658,2543049.0,2269.755336343981,2266.221336343981,2546.243336343981
138,61,19,m,1,3,130.0,16,4,low,4 + 7 + 8 - 3 + 9,25,26,25,24,2279.304263899976,2281.3291041000048,2282.8443060999853,2287.8649698999943,2289.917671100004,2289.9176760999835,2291.434145600011,2292.451566500007,e,24,2.052701200009324,0,+0,621,-0.723597792286828,2.4289621338351015,-4.1820996542312585,2276111.0,-40.945207857639645,-1.4308999720474525,0.043473186560786026,2279647.0,1.4834409192063764,1.9993111972131405,0.04175501453823793,2464537.0,2282.841336343981,2279.305336343981,2467.7313363439807
139,61,19,m,1,3,131.0,17,4,low,7 + 6 - 4 + 9 - 5,13,14,13,12,2293.9686605999595,2295.990080199961,2297.5052129999967,2302.52393570001,2303.197629200004,2303.197634399985,2304.714001299988,2305.7309118999983,w,13,0.6736934999935329,1,+1,622,16.103296550999275,1.165763569006634,0.16860573594486317,2290773.0,6.0953440210688115,0.11172688192190883,0.09738945473482241,2294306.0,26.752673469890436,0.26774493657140663,-0.11896249367467648,2490569.0,2297.500336343981,2293.967336343981,2493.763336343981
140,61,19,m,1,3,132.0,18,4,high,3 + 8 - 5 + 9 - 7,8,6,8,7,2307.247955399973,2309.274610499968,2310.789785299974,2315.8098147999845,2316.349679899984,2316.349684799963,2317.8656860999763,2318.882612299989,w,8,0.539865099999588,1,+10,632,2.254535123375976,0.3560530292115418,-0.04773366643853949,2304057.0,13.821741383049247,-0.4131958294089175,-0.12518045611879725,2307592.0,15.481106434804122,-0.6738765434352825,-0.09727623926434692,2557192.0,2310.786336343981,2307.2513363439807,2560.386336343981
141,61,19,m,1,3,133.0,19,4,high,8 + 3 - 4 + 5 + 9,21,21,23,22,2320.399466199975,2322.42340879998,2323.9386946999584,2328.956489000004,2329.581653199973,2329.5816581999534,2331.0980279999785,2332.1152714999625,q,21,0.6251641999697313,1,+10,642,1.5892579904290471,1.0500664800387582,0.1362915085839429,2317206.0,8.399168749475923,-1.0414814606580531,2.070464930491217,2320739.0,45.12953039263616,1.2813110661737168,0.07022221438370724,2759583.0,2323.933336343981,2320.400336343981,2762.777336343981
142,61,19,m,1,3,134.0,20,2,high,4 + 8 + 1 + 1 - 6,8,9,7,8,2333.632077099988,2335.6592110999627,2337.1744095999748,2342.1933136999724,2342.6937231000047,2342.693728499988,2344.222484599973,2345.240139200003,e,8,0.5004094000323676,1,+10,652,18.34336260202484,-0.14302943495835851,-0.2294420204424914,2330441.0,18.740294175444454,-0.950532934699158,-0.31568654199871093,2333976.0,13.704741314990194,3.0665180302470687,0.6992331605003095,2516825.0,2337.170336343981,2333.6353363439807,2520.0193363439807
143,61,19,m,1,3,135.0,21,2,low,8 + 1 + 9 + 1 - 5,14,15,13,14,2346.7569811999565,2348.783358099987,2350.298784099985,2355.317001299991,2355.8296632999554,2355.8296683999943,2357.346138099965,2358.3633913999656,e,14,0.5126619999646209,1,+1,653,19.84375440887952,0.4094672433574047,0.31201707473470064,2343565.0,-2.647562513688987,0.1405356465409593,1.0758827040150005,2347099.0,-29.41207723943876,-1.2771053895628652,0.039942343377149525,2785824.0,2350.293336343981,2346.759336343981,2789.018336343981
144,61,19,m,1,3,136.0,22,1,low,6 + 1 + 8 + 1 + 1,17,15,17,16,2359.8802789999754,2361.905898800004,2363.421028599958,2368.4395750999684,2369.18972580001,2369.1897309999918,2370.706177899963,2371.723400899966,w,17,0.7501507000415586,1,+1,654,12.092016863460529,0.4811646370045235,0.4870011533600853,2356688.0,1.752608396623149,0.5521497139681015,0.04694712715545846,2360222.0,-8.384272401798725,-1.168981657962564,-0.09055014106561021,2503714.0,2363.416336343981,2359.882336343981,2506.908336343981
145,61,19,m,1,3,137.0,23,3,low,2 + 1 + 9 - 7 + 6,11,12,13,11,2373.240408499958,2375.2670040999656,2376.782328900008,2381.801007099973,2385.045570099959,2385.0455753999995,2386.562121199968,2387.5803305999725,w,13,3.2445629999856465,0,+0,654,27.37407450671004,0.3481742632962579,0.08541436566479876,2370049.0,1.8978407476575914,0.9704829197094194,-0.03425222487068047,2373583.0,27.768939914631844,1.7842999754108533,0.16985919798661842,2841343.0,2376.777336343981,2373.243336343981,2844.5373363439808
146,61,19,m,1,3,138.0,24,3,high,4 + 7 + 1 + 9 - 5,16,17,18,16,2389.096949699975,2391.1186428999645,2392.634048399981,2397.6522400999675,2398.709598699992,2398.7096037999727,2400.226018599991,2401.2432262999937,q,17,1.0573586000245996,0,+0,654,7.565157093820442,0.04251229485687258,0.25661872230689386,2385901.0,-13.347949404779456,0.009817951924937951,-0.9497032278015674,2389435.0,-26.023931747386452,-0.5756670847086323,0.06866164488330195,2867639.0,2392.629336343981,2389.0953363439808,2870.833336343981
147,61,19,m,1,3,139.0,25,2,low,6 + 1 + 1 + 7 - 9,6,6,8,4,2402.759995899978,2404.78364769998,2406.298574299959,2411.316831199976,2411.7895885999897,2411.789593899972,2413.305276900006,2414.321892099979,q,6,0.4727574000135064,1,+1,655,-40.64161443905922,3.23392854915208,7.7187812068764075,2399566.0,-6.4078817773273045,-1.5858450721193753,-0.49994727523370264,2403099.0,-3.855934061828238,2.458733486823535,-0.25176599529852206,2828007.0,2406.293336343981,2402.7603363439807,2831.201336343981
148,61,19,m,1,3,140.0,26,2,low,3 - 1 + 9 - 5 + 1,7,7,5,6,2415.8386088999687,2417.862277599983,2419.377286700008,2424.397011599969,2424.86168490001,2424.861690599995,2426.378213299962,2427.39483070001,q,7,0.4646733000408858,1,+1,656,24.261545807695654,-0.1382159914187442,0.614155790979841,2412644.0,-8.549292977484699,-0.5659814178202565,0.22870984176304798,2416179.0,2.3271037056463415,1.299639269148921,0.1438910651996328,2854472.0,2419.373336343981,2415.8383363439807,2857.666336343981
149,61,19,m,1,3,141.0,27,4,high,3 + 9 - 5 + 6 + 8,21,23,21,22,2428.911553499988,2430.938963399967,2432.454340199998,2437.4726221999736,2437.973498699954,2437.9735037999926,2439.490001099999,2440.507476700004,w,21,0.5008764999802224,1,+10,666,18.838340627069897,0.7544938947887463,0.011469168605304114,2425720.0,12.859314761519347,-0.5195856649293802,-0.15281688060384746,2429255.0,8.466594625635024,0.602613957908364,-0.037987291494411934,2772663.0,2432.449336343981,2428.9143363439807,2775.857336343981
150,61,19,m,1,3,142.0,28,4,high,4 + 7 - 8 + 9 - 4,8,9,8,7,2442.024309600005,2444.048942599969,2445.5642746000085,2450.582939899992,2451.213593099965,2451.2135983000044,2452.730346600001,2453.7475702000083,w,8,0.6306531999725848,1,+10,676,-5.892515190064277,1.0606965849324759,0.12923825837663694,2438831.0,-1.795805089037616,-0.9256216250499234,-0.31067332298372463,2442365.0,8.222606202197078,-0.2935673147418676,-0.11586536949806092,2912196.0,2445.5593363439807,2442.025336343981,2915.390336343981
151,61,19,m,1,3,143.0,29,4,high,7 + 6 - 9 + 8 - 3,9,8,9,7,2455.264808300009,2457.2939567999565,2458.809553699976,2463.8276095999754,2466.2216211999767,2466.22162659996,2467.738127699995,2468.755361199961,w,9,2.394011600001249,1,+10,686,-9.452237693677507,2.7539145581728075,2.3048829194950424,2452076.0,-23.64742527984237,0.05456352588028768,-0.1378312186686852,2455610.0,2.084408244615778,1.002368251724798,-0.07009937918476128,2965683.0,2458.804336343981,2455.270336343981,2968.877336343981
152,61,19,m,1,3,144.0,30,2,high,2 + 1 + 9 - 4 + 1,9,8,9,11,2470.2720280999783,2472.299707499973,2473.8150011000107,2478.833321699989,2479.237475699978,2479.23748099996,2480.754156599985,2481.77162049996,w,9,0.404153999988921,1,+10,696,-55.1098628339404,-1.3868262978908596,1.2825671227585533,2467081.0,5.171940622214002,-1.1651678204296454,0.07067807741873655,2470615.0,20.05671058127163,-1.2805431989210048,-0.049382727609223354,3061591.0,2473.8093363439807,2470.275336343981,3064.785336343981
153,61,19,m,1,3,145.0,31,4,low,6 + 9 - 7 + 8 - 5,11,12,11,13,2483.2885456999647,2485.310337200004,2486.825553999981,2491.844914699963,2492.2535377999884,2492.253543299972,2493.770794799959,2494.787781199964,w,11,0.4086231000255793,1,+1,697,7.044607221731784,0.051537752141782356,0.11163603214087914,2480092.0,-19.359526849331175,-1.0249140089765758,-0.07436878800056901,2483626.0,1.6817589381601472,0.49090891136165826,-0.08033319774843606,3033606.0,2486.820336343981,2483.286336343981,3036.800336343981
154,61,19,m,1,3,146.0,32,1,low,4 + 1 + 1 + 7 - 1,12,13,14,12,2496.3043082999648,2498.327923999983,2499.84311029996,2504.861404299969,2505.3975208000047,2505.397526899993,2506.914946899982,2507.932210400002,e,12,0.5361165000358596,1,+1,698,13.123420593250032,-0.05629509845911862,0.004118495234267439,2493110.0,-13.692411351588879,-1.1067210439248854,-0.05228190903733587,2496643.0,-14.718164702263001,0.48927481706568,-0.17135761916652248,2570329.0,2499.837336343981,2496.304336343981,2573.523336343981
155,61,19,m,1,3,147.0,33,2,low,4 + 9 + 1 - 7 - 1,6,8,6,5,2509.449345499976,2511.4763065999723,2512.992145799973,2518.0104965000064,2518.5095369999763,2518.5095425999607,2520.026197600004,2521.0430585999857,w,6,0.4990404999698512,1,+1,699,3.3981874779840666,1.0511826143663212,0.011689932450738905,2506258.0,-8.528939163052705,0.41639181744599263,0.08158446817355669,2509792.0,10.570573982690155,0.192004557305947,-0.09220911001248178,3141766.0,2512.986336343981,2509.4523363439807,3144.960336343981
156,61,19,m,1,3,148.0,34,3,low,6 - 1 + 7 - 8 + 9,13,12,13,11,2522.5597447999758,2524.585170599981,2526.100528699986,2531.121306099987,2531.58941939997,2531.589428699983,2533.1060687999707,2534.1230268999934,w,13,0.4681132999830879,1,+1,700,-5.177346081553662,0.5861392176280056,0.12712500185500897,2519367.0,-2.366275982896731,-0.4054144439215861,0.1089507120576001,2522903.0,-17.065002440243084,1.4346883847416647,0.11293452728987696,2952559.0,2526.0973363439807,2522.561336343981,2955.753336343981
157,61,19,m,1,3,149.0,35,3,high,7 - 1 + 8 - 6 + 4,12,11,12,13,2535.6398903999943,2537.664709499979,2539.17969119997,2544.198083299969,2544.733487199992,2544.733492199972,2546.250047999958,2547.267323200009,w,12,0.5354039000230841,1,+10,710,5.384126689394611,1.1288821447013557,0.15727881856791104,2532446.0,14.145262554568681,-0.6532349217198696,0.06104350592057495,2535980.0,-16.145807139951977,-3.6186839047945814,-0.017215683497800782,3005102.0,2539.174336343981,2535.640336343981,3008.296336343981
158,61,19,m,1,3,150.0,36,4,low,8 + 4 + 7 - 5 - 6,8,9,8,6,2548.7840702999965,2550.811263599957,2552.326596500003,2557.345064299996,2558.8775011999533,2558.8775064999936,2560.3940957000013,2561.411014299956,w,8,1.532436899957247,1,+1,711,14.483670049535785,0.06526908476757143,-0.1684488975071763,2545593.0,4.2935120564143,-1.2317292764313112,-0.3099449760638522,2549127.0,7.849688967570268,0.0861023950228601,0.33484571153159126,3115358.0,2552.321336343981,2548.7873363439808,3118.552336343981
159,61,19,m,1,3,151.0,37,1,high,5 + 6 + 1 + 1 + 1,14,14,16,13,2562.9277947999653,2564.955129000009,2566.470448100008,2571.488301299978,2572.0134267999674,2572.0134319000063,2573.529883199953,2574.5472105999943,q,14,0.5251254999893717,1,+10,721,5.34945407111349,0.2583401250345885,0.01094588625760462,2559736.0,-7.198849287321977,-0.7727698788173178,0.0977299046204072,2563270.0,-19.89881016629097,0.24424300398767507,0.13795799755532734,2746520.0,2566.464336343981,2562.930336343981,2749.714336343981
160,61,19,m,1,4,152.0,0,1,high,7 + 1 + 4 + 1 - 1,12,11,12,13,2739.113862900005,2741.140348599991,2742.6556187999668,2747.676007799979,2748.205208499974,2748.205213999958,2749.721540600003,2750.73832949996,w,12,0.5292006999952719,1,+10,731,14.761743936716254,-1.5123809423015482,-0.14346779658526265,2735921.0,2.098805056548361,1.7580422379473521,3.5306566610580123,2739457.0,32.88602180642141,1.225014243895508,0.02172867381382626,2799032.0,2742.651336343981,2739.1153363439807,2802.226336343981
161,61,19,m,1,4,153.0,1,4,low,8 + 4 + 7 - 5 - 6,8,8,9,7,2752.2552027999773,2754.28117989999,2755.796271900006,2760.8147947000107,2761.2693849999923,2761.269390099973,2762.7859412999824,2763.802754400007,q,8,0.4545902999816462,1,+1,732,23.38081136983967,-0.3500743374108861,0.1567179329647379,2749062.0,-22.891463654959534,-0.141784302974858,3.3785727075943655,2752596.0,3.46893916786928,-1.780298006242706,0.3386041082186819,3181742.0,2755.790336343981,2752.256336343981,3184.936336343981
162,61,19,m,1,4,154.0,2,4,low,3 + 9 - 4 + 7 + 6,21,20,21,19,2765.319642999966,2767.3455406999565,2768.8608351000003,2773.879758899973,2774.349308999954,2774.3493145999964,2775.865847899986,2776.8827452000114,w,21,0.4695500999805517,1,+1,733,-18.68051688931378,0.4175613624142098,0.04024465409883149,2762126.0,-13.009779471675728,-1.677422724843427,0.06287050669854777,2765661.0,4.230065732016486,0.7055157088558595,-0.039731554820232606,3222286.0,2768.855336343981,2765.320336343981,3225.480336343981
163,61,19,m,1,4,155.0,3,2,high,6 + 1 + 8 + 7 - 1,21,23,21,19,2778.399743999995,2780.424900299986,2781.941131400002,2786.9596332999645,2787.509189200005,2787.5091945999884,2789.025761500001,2790.043038800009,w,21,0.549555900041014,1,+10,743,1.2816603501972752,0.10753244037867304,0.9016801716345078,2775205.0,-16.92654548190866,-1.4439810685036125,0.11442640446513797,2778741.0,-17.721849378769345,3.6549618308867013,-0.08580287399212017,3195093.0,2781.935336343981,2778.399336343981,3198.2873363439808
164,61,19,m,1,4,156.0,4,1,high,5 + 9 - 1 + 1 + 1,15,17,15,13,2791.560093799955,2793.587257599982,2795.1020291000023,2800.1206998999696,2800.7171846999554,2800.717189699993,2802.233727899962,2803.251621500007,w,15,0.5964847999857739,1,+10,753,27.26993981169587,-0.4724527835137442,0.03337789792946366,2788368.0,11.846520384471798,-0.5341313172448965,0.07398882296995257,2791901.0,3.0404848724117697,-0.3041834699237329,-0.15065905336462615,2925487.0,2795.0953363439808,2791.562336343981,2928.681336343981
165,61,19,m,1,4,157.0,5,3,high,7 - 5 + 9 + 1 - 4,8,9,8,7,2804.7686574999825,2806.7912838999764,2808.306365599972,2813.324614699988,2816.6212743999786,2816.6212796999607,2818.138046399981,2819.154286300007,e,7,3.296659699990414,0,+0,753,22.782939197683767,-0.3499317592350364,0.7681287397567309,2801572.0,-31.671634194095276,0.4196794018485379,-0.2330099363642213,2805105.0,-1.7331362059088562,-0.5766228627068282,0.07714429290245794,3088903.0,2808.299336343981,2804.766336343981,3092.0973363439807
166,61,19,m,1,4,158.0,6,2,low,2 + 9 - 4 + 1 + 1,9,8,11,9,2820.6711016999907,2822.698223299987,2824.2135686999536,2829.2322499,2829.6932802000083,2829.693285899993,2831.20962899999,2832.2263019999955,e,9,0.461030300008133,1,+1,754,36.8798159046902,0.1749967691657357,0.02987881846430196,2817479.0,-16.743468504304616,-0.4146472599508284,-0.05740905310367106,2821013.0,,,,,2824.207336343981,2820.6733363439807,
167,61,19,m,1,4,159.0,7,3,high,3 + 8 - 7 - 1 + 9,12,14,13,12,2833.7431666000048,2835.770707099989,2837.285982800008,2842.304199999955,2843.0291197999613,2843.0291251000017,2844.5456701999647,2845.5627448000014,e,12,0.7249198000063188,1,+10,764,8.122664143153647,0.41420313682128285,0.11433844966368323,2830551.0,-29.946018858709753,0.009482894983586121,0.8405585599705727,2834085.0,4.404712092818997,0.8581904924187196,0.09564717799900224,3168662.0,2837.279336343981,2833.745336343981,3171.8563363439807
168,61,19,m,1,4,160.0,8,2,high,9 + 1 + 6 + 7 + 1,24,23,24,25,2847.0795302999904,2849.105222299986,2850.6206054000068,2855.639634699968,2856.1573079999653,2856.157313200005,2857.673838499992,2858.691444600001,w,24,0.5176732999971136,1,+10,774,-1.3648307569353282,1.3824600789181618,-0.16204695150461923,2843885.0,71.55936120734575,0.6935217289976414,0.1579598992738216,2847420.0,,,,,2850.614336343981,2847.079336343981,
169,61,19,m,1,4,161.0,9,3,low,2 + 9 + 1 - 5 + 7,14,14,12,15,2860.209118800005,2862.236050699954,2863.751350799983,2868.76978219999,2869.3251316999667,2869.3251369000063,2870.841887899965,2871.858793399995,q,14,0.5553494999767281,1,+1,775,-4.719966039867735,-0.5253087172413657,-0.12474621250503026,2857016.0,-14.702851677014252,0.7115371813090849,0.11647735711726148,2860550.0,19.12554542331274,1.9290901213561362,0.06649875379585835,3208333.0,2863.744336343981,2860.210336343981,3211.527336343981
170,61,19,m,1,4,162.0,10,4,low,6 + 5 - 7 + 8 - 9,3,3,4,5,2873.375540899986,2875.4014720999985,2876.916734299972,2881.937177899992,2885.0610317999963,2885.061037199979,2886.577542199986,2887.5947846999625,w,4,3.1238539000041783,0,+0,775,18.062633899274573,0.8259981253601447,-0.13889735649691382,2870182.0,-9.014308880838115,2.723662066535389,-0.12864251694883788,2873717.0,-2.662013951940331,-0.28533175982467185,-0.18683277760260975,3248573.0,2876.911336343981,2873.3763363439807,3251.767336343981
171,61,19,m,1,4,163.0,11,3,low,6 + 1 + 8 + 7 - 9,13,14,15,13,2889.11173840001,2891.135116799968,2892.6505490999552,2897.6689666999737,2900.7010685999994,2900.7010738999816,2902.2178580999607,2903.235037899984,w,15,3.0321019000257365,0,+0,775,-0.14109556950504754,1.650179843638032,0.2730492043416506,2885915.0,-21.819785758846557,0.05383538721625403,0.02623278236416926,2889449.0,33.88240327649027,-0.7425401348704392,-0.030953361508747612,3358061.0,2892.643336343981,2889.109336343981,3361.255336343981
172,61,19,m,1,4,164.0,12,4,low,5 + 7 - 4 - 6 + 9,11,12,13,11,2904.752278900007,2906.77954769996,2908.294477699965,2913.313031699974,2913.837046000001,2913.837051499984,2915.3986539999605,2916.415286600008,e,11,0.5240143000264652,1,+1,776,26.729618722577197,0.296627767496938,0.4001592507078999,2901560.0,-6.5352231497391085,0.6906521345358145,0.0483529554346529,2905093.0,-6.2734397978907985,1.109825885512258,0.037159639639465336,3371093.0,2908.2873363439808,2904.754336343981,3374.2873363439808
173,61,19,m,1,4,165.0,13,1,low,8 - 1 + 1 + 6 + 1,15,15,14,16,2917.9330995999626,2919.959771099966,2921.475054999988,2926.493955399957,2927.1731165999663,2927.173122100008,2928.689799499989,2929.707230600005,q,15,0.6791612000088207,1,+1,777,5.214582561715278,-0.8593127423068925,1.7922238988931705,2914740.0,10.96744887609909,0.4638602330832855,0.6217902981989685,2918274.0,2.1682665292794656,0.6405573089605845,-0.09120917804055217,2938591.0,2921.468336343981,2917.9343363439807,2941.785336343981
174,61,19,m,1,4,166.0,14,1,high,8 + 1 + 4 + 1 + 1,15,15,14,16,2931.2242751999875,2933.251269100001,2934.766549699998,2939.7853501999634,2940.277050099976,2940.277055799961,2941.793566599954,2942.810857999953,q,15,0.4916999000124633,1,+10,787,-25.792492885923423,0.22852758234574644,-0.164411468478606,2928030.0,-5.012199267440886,-0.4410839057435245,-0.009430234189101272,2931565.0,-54.66985462008709,4.31141444329628,5.207196397121977,2978855.0,2934.759336343981,2931.224336343981,2982.049336343981
175,61,19,m,1,4,167.0,15,3,low,8 + 3 + 1 - 7 + 9,14,15,14,12,2944.328098399972,2946.3515854,2947.86686109996,2952.885471699992,2954.245132099953,2954.245137699996,2955.7619048999622,2956.7787036999944,w,14,1.3596603999612853,1,+1,788,-12.83935066025306,-1.436757552693832,1.0102292776718413,2941132.0,-20.63919125996118,0.7328766393382118,0.043632258396262724,2944666.0,,,,,2947.860336343981,2944.326336343981,
176,61,19,m,1,4,168.0,16,4,low,5 + 6 - 4 + 7 + 9,23,25,23,24,2958.2952397000045,2960.3219473999925,2961.8371724999743,2966.85699489998,2967.3571386999683,2967.357144100009,2968.8864023999777,2969.902447599976,w,23,0.5001437999890186,1,+1,789,-17.477734367761435,0.7693560973283686,0.5680909301072741,2955101.0,-7.279187929497878,0.733653600129534,-0.6794876942922992,2958637.0,,,,,2961.831336343981,2958.295336343981,
177,61,19,m,1,4,169.0,17,1,low,2 + 1 + 1 + 9 - 1,12,13,12,11,2971.419095899968,2973.445508999983,2974.960730399994,2979.979443199991,2980.541064499994,2980.541069799976,2982.0578952999786,2983.0748487999663,w,12,0.5616213000030257,1,+1,790,12.221402269510902,2.2674286797189884,0.11833628174003885,2968226.0,-0.6140806088917579,-0.36129072463201517,-0.012058506202182295,2971760.0,-13.194101698034945,1.481578903343025,0.14429220707740553,2991999.0,2974.954336343981,2971.420336343981,2995.1933363439807
178,61,19,m,1,4,170.0,18,1,high,2 + 1 + 9 + 1 - 1,12,11,12,13,2984.592282400001,2986.6200513999797,2988.1352228999604,2993.1533770000096,2993.685090599989,2993.685096399975,2995.201769999985,2996.219114799984,w,12,0.5317135999794118,1,+10,800,19.662996580861194,1.0519232921041786,-0.16247332191516684,2981400.0,18.040746652255095,-0.1343724329474849,-0.06047675587810364,2984934.0,-8.614744389729918,-0.04753736753501414,0.3043928953757691,3018471.0,2988.128336343981,2984.594336343981,3021.665336343981
179,61,19,m,1,4,171.0,19,3,high,5 + 1 + 7 - 8 + 6,11,9,11,13,2997.7371965000057,2999.761733499996,3001.276921099983,3006.295366599981,3006.789057099959,3006.789063000004,3008.305327799986,3009.322685099964,w,11,0.4936904999776743,1,+10,810,9.105861361607365,0.7490422369355816,-0.018493670374343463,2994542.0,7.041015692487582,-0.7012079521900985,0.07060346187434119,2998075.0,,,,,3001.2693363439807,2997.736336343981,
180,61,19,m,1,4,172.0,20,1,low,7 - 1 + 8 + 1 - 1,14,13,12,14,3010.839282199973,3012.866050599958,3014.381542099989,3019.4000723999925,3020.1570451000007,3020.157051099988,3021.6743304999545,3022.691239899956,e,14,0.7569727000081912,1,+1,811,17.961624616983862,0.6953913185545186,0.07617536883058262,3007646.0,2.7360125291980655,0.10344722153515651,-0.00732120944002812,3011180.0,18.13854488618121,-1.5550505037856253,0.0825836265243538,3048070.0,3014.3743363439808,3010.840336343981,3051.264336343981
181,61,19,m,1,4,173.0,21,4,low,9 + 3 - 5 + 8 + 6,21,23,21,19,3024.2079861999955,3026.23363719997,3027.748892100004,3032.766595299996,3035.292893500009,3035.2928985999897,3036.809507899976,3037.826400699967,w,21,2.526298200013116,1,+1,812,-0.8991932768694324,1.4546132291749219,0.16475106954924312,3021013.0,12.952276940741303,-0.6741143484207477,-0.031355875067993644,3024547.0,,,,,3027.741336343981,3024.207336343981,
182,61,19,m,1,4,174.0,22,1,low,7 + 1 + 6 + 1 + 1,16,16,17,18,3039.3431906999904,3041.3698490000097,3042.886048299959,3047.903886199987,3049.756926800008,3049.756931799988,3051.273400300008,3052.290338599996,q,16,1.853040600020904,1,+1,813,-0.7735879095822273,-0.729808516751608,0.17406942299236028,3036150.0,12.74230228299286,1.560982601419692,0.07550222915580784,3039684.0,10.70258702812633,-0.27752328700747686,0.08542802075355449,3075199.0,3042.878336343981,3039.344336343981,3078.393336343981
183,61,19,m,1,4,175.0,23,2,high,5 - 8 + 7 + 1 + 1,6,8,6,7,3053.807123299979,3055.8343857,3057.3493465000065,3062.3677802999737,3063.277000000002,3063.2770055999863,3064.79396749998,3065.811164399958,w,6,0.9092197000281884,1,+10,823,-25.6693059785473,-0.35828644988068614,-0.1055755776209244,3050614.0,-32.95698731324063,0.9099408190140714,-0.06111022705207958,3054148.0,,,,,3057.342336343981,3053.808336343981,
184,61,19,m,1,4,176.0,24,1,high,4 + 9 + 1 - 1 - 1,12,13,12,11,3067.328434899973,3069.355624499964,3070.8714981999947,3075.889320699964,3076.884939899959,3076.884945500002,3078.401715499989,3079.419121199986,w,12,0.9956191999954171,1,+10,833,1.068044643408541,-0.7883291616058932,-0.09159265994997834,3064135.0,-0.47887670900845336,-1.8406087149758852,0.06775903281448525,3067669.0,6.8132576524863016,1.049306035802287,-0.1751587780376389,3102166.0,3070.863336343981,3067.329336343981,3105.360336343981
185,61,19,m,1,4,177.0,25,3,high,7 + 1 + 9 + 5 - 6,16,15,16,14,3080.935979300004,3082.96276689996,3084.4778662999743,3089.4960249,3090.589022799977,3090.5890278999577,3092.105758299993,3093.122964899987,w,16,1.0929978999774903,1,+10,843,25.078336254515072,1.3441319539231005,0.01775862159805075,3077742.0,-25.36099623617595,0.35141644333646394,0.09917506418884359,3081276.0,,,,,3084.4703363439808,3080.936336343981,
186,61,19,m,1,4,178.0,26,1,high,3 + 1 + 8 + 1 + 1,14,16,13,14,3094.639868700004,3096.666778999963,3098.182102699997,3103.2003126000054,3103.852884599997,3103.852893400006,3105.3694916999666,3106.386533199984,e,14,0.6525719999917783,1,+10,853,-9.715273285915305,1.0892161233564321,0.13456798002725523,3091446.0,-24.73448867269954,0.5547619857800798,0.1951951387572659,3094980.0,2.916145467537767,1.067204406756737,-0.09829287053800684,3235478.0,3098.174336343981,3094.640336343981,3238.672336343981
187,61,19,m,1,4,179.0,27,4,high,2 + 5 - 3 + 9 + 8,21,21,22,19,3107.9032260999666,3109.9301824999857,3111.4454370999592,3116.464631699957,3117.044803500001,3117.0448084999807,3118.5613453999977,3119.578705699998,q,21,0.5801718000438996,1,+10,863,3.316376856951874,-0.33069735523756094,-0.035624076731013865,3104709.0,-3.038319930969247,-1.865639178584015,-0.247001013147218,3108244.0,,,,,3111.438336343981,3107.9033363439808,
188,61,19,m,1,4,180.0,28,2,low,9 + 6 + 1 + 7 + 1,24,25,24,23,3121.0955348999705,3123.123503299954,3124.638686699968,3129.65676709998,3130.308926399972,3130.3089318999555,3131.8259714999585,3132.8426508999546,e,23,0.6521592999924906,0,+0,863,30.21442937311302,-0.6842917445681573,-0.20028244787528982,3117902.0,-2.9772768258021216,0.01975009059337296,-0.033475730130377634,3121436.0,,,,,3124.630336343981,3121.096336343981,
189,61,19,m,1,4,181.0,29,2,high,5 - 1 + 1 + 8 + 9,22,23,21,22,3134.3594366000034,3136.3857065999764,3137.900404999964,3142.9197823999566,3143.4528229999705,3143.452828499954,3144.96901489998,3145.98596999998,e,22,0.5330406000139192,1,+10,873,-10.521710335967729,0.7106563521756888,0.20893528507776105,3131165.0,3.5071817806659924,0.13077119808421767,-1.131265931813639,3134699.0,,,,,3137.893336343981,3134.359336343981,
190,61,19,m,1,4,182.0,30,3,low,3 + 1 + 8 - 5 + 9,16,17,15,16,3147.502860699955,3149.530060399964,3151.0449984999723,3156.0629656999954,3157.180776099965,3157.180781700008,3158.697167999984,3159.7144259999623,q,17,1.1178103999700395,0,+0,873,-11.579291149082787,0.4873347662570531,-0.16341005101870154,3144310.0,9.793925191716374,-2.2573565347335025,-0.0254422512818675,3147843.0,,,,,3151.0373363439808,3147.504336343981,
191,61,19,m,1,4,183.0,31,3,high,2 + 1 + 9 - 5 + 6,13,13,14,11,3161.2308820000035,3163.2527900999994,3164.767737299961,3169.785711799981,3170.3487755999668,3170.348781000008,3171.8652549999533,3172.882621900004,q,13,0.5630637999856845,1,+10,883,1.044630644130244,3.526658320439683,4.330234825093964,3158032.0,15.321950010907553,0.6059254118643835,-8.604076928427112,3161565.0,,,,,3164.759336343981,3161.226336343981,
192,61,19,m,1,4,184.0,32,4,high,8 + 4 - 5 + 7 - 6,8,7,8,6,3174.399656099966,3176.421659399988,3177.936895599996,3182.955457200005,3183.428894299956,3183.428899999999,3184.945448199985,3185.9627274000086,w,8,0.4734370999503881,1,+10,893,23.108143426919803,0.7298435082337908,0.023929667853968883,3171201.0,9.856116988132602,-0.06270704047285047,-0.034940791997609466,3174735.0,,,,,3177.929336343981,3174.395336343981,
193,61,19,m,1,4,185.0,33,2,low,5 + 9 - 8 + 1 + 1,8,9,7,8,3187.479661399964,3189.5067689999705,3191.0220076999976,3196.040100399987,3196.78073519998,3196.7807402999606,3198.297292399977,3199.314304600004,e,8,0.7406347999931313,1,+1,894,15.391668119836854,0.17686789394659375,0.6927687719699933,3184286.0,-0.011391475936511242,0.10768764845213852,-0.17004858361912856,3187819.0,,,,,3191.013336343981,3187.480336343981,
194,61,19,m,1,4,186.0,34,3,low,6 + 7 + 8 + 1 - 9,13,13,15,14,3200.831101299962,3202.8576881999616,3204.3729211000027,3209.3916409999947,3210.020775199984,3210.0207800999638,3211.5372044999967,3212.554251399997,q,13,0.6291341999894939,1,+1,895,-38.03846500784135,-0.3320382855008992,-0.21014561501452222,3197637.0,-5.806497074909711,-0.05733360892777384,-0.0485811344692606,3201171.0,,,,,3204.3653363439807,3200.831336343981,
195,61,19,m,1,4,187.0,35,4,high,5 + 9 - 4 + 7 + 6,23,24,23,25,3214.071003599965,3216.095422899991,3217.610441399971,3222.629127699998,3223.972881799971,3223.972887699958,3225.489339499967,3226.5061261999654,w,23,1.3437540999730118,1,+10,905,-8.122171257423892,1.2105820541970083,0.037054516457442066,3210875.0,-9.789632532165442,0.7514329659230645,-0.160155758297287,3214408.0,,,,,3217.602336343981,3214.069336343981,
196,61,19,m,1,4,188.0,36,1,high,6 + 9 + 1 + 1 - 1,16,14,15,16,3228.022539599973,3230.049265599984,3231.564478499989,3236.582394499972,3237.164742699999,3237.1647478999803,3238.681262099999,3239.6986644999706,e,16,0.5823482000268996,1,+10,915,11.097766704459355,-0.993276422375593,0.37558593398024986,3224828.0,-11.500252483183072,-0.8649809249924463,0.12437417613773949,3228362.0,,,,,3231.556336343981,3228.022336343981,
197,61,19,m,1,4,189.0,37,4,low,4 + 7 + 8 - 3 + 9,25,24,25,26,3241.215566699975,3243.2429042999865,3244.7581147999736,3249.7766558000003,3250.2607803999563,3250.260785899998,3251.777396399993,3252.7942822999903,w,25,0.484124599955976,1,+1,916,20.015249993938287,0.1502310979945758,-0.08062620050302094,3238022.0,9.75873290848108,0.8532891917901795,0.13110526922484778,3241556.0,,,,,3244.750336343981,3241.216336343981,
198,61,19,m,1,5,190.0,0,3,high,7 - 6 + 8 + 1 + 7,17,16,15,17,3350.689146299963,3352.71711279999,3354.232041499985,3359.251851899957,3359.7486191999637,3359.748624500004,3361.2646076999954,3362.2813902999624,e,17,0.4967673000064678,1,+10,926,23.874824289549544,2.740007878327979,-1.1866142129310897,3347496.0,-13.137549006335982,-1.0389002581061293,-0.40950086196414226,3351031.0,,,,,3354.225336343981,3350.690336343981,
199,61,19,m,1,5,191.0,1,4,high,6 + 9 + 7 - 3 - 5,14,14,13,12,3363.7980975999963,3365.8226917999564,3367.337728799961,3372.356231499987,3372.7807055999874,3372.780711099971,3374.2974407,3375.314701299998,q,14,0.424474100000225,1,+10,936,-11.212448396217152,-0.48850164024471265,0.024899320774379285,3360601.0,-8.03734754973406,-0.07914306967028839,-0.009534629181150667,3364135.0,,,,,3367.329336343981,3363.795336343981,
