,id,age,sex,cued,block,trial,trialinblock,efflev,rewlev,calc,corAns,option1,option2,option3,tstart,ITI1Time,probTime,respTime,selectTime,ITI2Time,fbTime,ITI3Time,key_press,chosenAns,RT,acc,feedback,total_points,cuescr,cuecor,cuezyg,cuetime,probscr,probcor,probzyg,probtime,fbscr,fbcor,fbzyg,fbtime,probtime_c,cuetime_c,fbtime_c
0,62,21,m,0,Practice,,0,1,0,4 + 1 + 9 + 1 + 1,16,15,14,16,25.43151039996883,,25.43151249998482,30.45864009996876,33.37175980000757,33.37176619999809,34.888850899995305,35.91052340000169,e,16,2.9131197000388056,1,Correct,0,,,,,6.777115409295588,0.6476333357057897,0.4934837610199798,24332.0,-0.6226486606594346,0.21188292172508705,0.17587222953314674,33784.0,25.444592413127726,,34.89659241312772
1,62,21,m,0,Practice,,1,1,0,3 + 1 + 1 + 8 - 1,12,10,11,12,37.42738680000184,,37.427389999968,42.44850519997999,43.03588390001096,43.0358899999992,44.55279180000071,45.57064320001518,e,12,0.5873787000309676,1,Correct,0,,,,,-43.26692481797665,-0.12159345776618524,0.31858908050851165,36322.0,-11.13572164195855,0.030581769170473283,0.10168853786577436,43445.0,37.434592413127724,,44.55759241312772
2,62,21,m,0,Practice,,2,2,0,8 + 1 + 6 + 1 - 4,12,10,11,12,47.088415000005625,,47.088438700011466,52.10852710000472,54.23589479998918,54.23590079997666,55.75285099999746,56.77236790000461,q,10,2.127367699984461,0,Incorrect,0,,,,,18.1665322226916,-0.3682877443237138,0.12706818385117158,45982.0,3.2961471303437833,0.8654739468338377,2.4341048682116546,54646.0,47.09459241312772,,55.75859241312772
3,62,21,m,0,Practice,,3,2,0,9 + 4 - 6 + 1 - 1,7,6,7,5,58.28930629999377,,58.28930980002042,63.309551000013016,64.9799103999976,64.97991659998661,66.49714940000558,67.51414019998629,e,5,1.6703593999845907,0,Incorrect,0,,,,,17.13916562363948,-0.5691426795852981,-0.5348961851865175,57184.0,-3.32059824531235,-0.6266037840994318,-0.20834820707044122,65388.0,58.29659241312772,,66.50059241312773
4,62,21,m,0,Practice,,4,3,0,9 + 3 - 5 + 6 + 7,20,20,22,21,69.03166069998406,,69.0316637000069,74.05033479997655,74.40367630001856,74.40368230000604,75.91992459999165,76.93710450001527,w,22,0.3533415000420064,0,Incorrect,0,,,,,5.037457563282633,-0.24346934432827227,0.10533924281297935,67924.0,6.324444016544298,0.04626559419004428,-0.03921336389322416,74811.0,69.03659241312774,,75.92359241312774
5,62,21,m,0,Practice,,5,3,0,2 + 1 + 9 - 7 + 6,11,11,9,10,78.45388569997158,,78.45388889999595,83.47283719998086,84.51585379999597,84.51585979998345,86.03264459996717,87.05061380000552,e,10,1.0430166000151075,0,Incorrect,0,,,,,-13.964558685840391,-0.19540267375316267,-0.01708476341213183,77346.0,-5.39109455150221,0.18865625493750793,0.29310081829304835,84924.0,78.45859241312773,,86.03659241312774
6,62,21,m,0,Practice,,6,4,0,4 + 8 + 5 - 3 + 7,21,22,23,21,88.56801799999084,,88.56802110001445,93.58910029998516,93.94762589997843,93.94763199996667,95.46432119997915,96.48258060001535,q,22,0.3585255999932997,0,Incorrect,0,,,,,-46.43211986671724,0.4220920752324058,0.07398181953198835,87462.0,-2.603769205714702,-0.02960727988188827,-0.13290387104858503,94356.0,88.57459241312773,,95.46859241312772
7,62,21,m,0,Practice,,7,4,0,5 + 8 - 4 + 6 + 9,24,23,22,24,97.9996465999866,,97.99964960000943,103.01950669998767,103.97968749998836,103.97969449998344,105.4966301000095,106.51475989999015,e,24,0.9601808000006712,1,Correct,0,,,,,0.7538259001561318,0.19880407880678375,0.12464276927451978,96893.0,-8.157866107382446,-0.28894796631454067,-0.0848438577099464,104388.0,98.00559241312773,,105.50059241312773
8,62,21,m,1,0,0.0,0,2,low,4 + 1 + 9 + 1 - 6,9,8,7,9,152.94534729997395,154.9724305999698,156.4877703000093,161.50597870000638,162.64929919998394,162.64930440002354,164.1663829999743,165.1837678999873,w,7,1.1433204999775626,0,+0,0,-0.04654431683523619,0.3502013864849194,0.016303588638519884,151846.0,-10.507496942308912,-0.3610273781238349,-0.3213044232820228,155379.0,-5.592466119531043,0.07447297541825826,0.008162063183033474,232504.0,156.4915924131277,152.95859241312772,233.6165924131277
9,62,21,m,1,0,1.0,1,1,high,3 + 1 + 9 + 1 - 1,13,14,13,12,166.70099189999746,168.7275212999666,170.24362710001878,175.26197400002275,175.84936029999517,175.84936559997732,177.3659741000156,178.3833649000153,w,13,0.5873862999724224,1,+10,10,6.551216734805273,0.018361354345889147,-0.2476639552805726,165600.0,14.993670457457242,0.30525350737148527,-0.5492140900591962,169135.0,-0.28523650872800843,0.1850360111631959,0.2363334946726643,176256.0,170.2475924131277,166.7125924131277,177.36859241312771
10,62,21,m,1,0,2.0,2,3,low,7 - 1 + 8 - 6 + 4,12,12,13,11,179.89983080001548,181.92639889998827,183.44140820001485,188.4609418999753,191.09732719999735,191.097332299978,192.61406089999943,193.6313807999832,e,11,2.6363853000220843,0,+0,10,-10.491506150467908,-1.1979516178004128,-4.158294787527159,178800.0,-28.54256842210686,-0.20171520477629423,0.6595986910278033,182334.0,6.615682474955447,0.019962582543748386,-0.28678451708713215,245576.0,183.44659241312772,179.91259241312773,246.6885924131277
11,62,21,m,1,0,3.0,3,1,low,9 + 7 + 1 + 1 + 1,19,18,20,19,195.14818229997763,197.17563499999235,198.69059269997524,203.70875519997207,204.2653758000233,204.2653806000017,205.78205659997184,206.79896819998976,e,19,0.5566206000512466,1,+1,11,-25.65517549676511,-0.09144259902180085,0.39772563713533415,194049.0,0.5449656528294877,-0.0843061744595559,-0.8253927479538845,197582.0,-22.933064969198313,4.266127320181111,7.1355238766780005,204672.0,198.6945924131277,195.16159241312772,205.7845924131277
12,62,21,m,1,0,4.0,4,4,low,2 + 9 - 6 + 8 - 4,9,9,7,11,208.31591299996944,210.3429410000099,211.85796399996616,216.8769313999801,218.25733569997828,218.25734100001864,219.7735160000157,220.79098879999947,w,7,1.3804042999981905,0,+0,11,24.574993325787688,-0.11752899914878068,0.11998661339061867,207216.0,-8.511638493971311,0.44398558774969654,-0.12320178739551002,210750.0,6.551471886846013,-0.35843621877653753,-0.07520173873393521,315896.0,211.86259241312771,208.32859241312772,317.00859241312776
13,62,21,m,1,0,5.0,5,2,low,9 + 5 - 6 + 1 - 1,8,8,9,7,222.3078768000123,224.3349192999885,225.85013709997293,230.86842640000395,232.0972355999984,232.097240699979,233.6138084999984,234.63086879998448,q,8,1.22880919999443,1,+1,12,8.518387215031977,0.0472573411499666,0.19858820797327414,221208.0,-13.892574887418052,0.2977225715232499,-0.060806258211156816,224741.0,28.260175097478132,-0.14053039787178534,0.0681788595538797,330319.0,225.85359241312773,222.3205924131277,331.43159241312776
14,62,21,m,1,0,6.0,6,3,low,3 + 1 + 6 - 8 + 9,11,13,11,12,236.14778329996625,238.173432599986,239.68871800001943,244.70834810001543,245.16919039998905,245.16919519996736,246.68573309999192,247.70246669999324,w,11,0.4608422999735921,1,+1,13,23.654108026451183,-0.10988616693688291,0.11357605522835756,235046.0,1.4445667418434969,0.033509981157050284,0.15635282371012682,238581.0,-21.833328810276917,-0.17531985814701168,0.009509226324133202,259153.0,239.6935924131277,236.1585924131277,260.26559241312776
15,62,21,m,1,0,7.0,7,3,low,8 + 6 - 7 + 1 - 4,4,3,4,5,249.21917799999937,251.24455329997,252.7599122999818,257.77884400001494,258.74521730002016,258.74522280000383,260.262771299982,261.28042969998205,w,4,0.9663733000052162,1,+1,14,-12.201624790526854,0.382737862904289,-0.09285147597923071,248117.0,-34.87881873586766,0.07638476892349155,0.36791527618887354,251651.0,-34.2414018741311,-0.05499659444576155,-0.009168946122859456,427783.0,252.76359241312772,249.2295924131277,428.89559241312776
16,62,21,m,1,0,8.0,8,4,high,8 + 5 - 4 + 7 + 9,25,25,24,26,262.79729169997154,264.8246220999863,266.3397177999723,271.35823700000765,273.35315899999114,273.3531642999733,274.8704284999985,275.8877403999795,w,24,1.9949219999834893,0,+0,14,12.918776279337987,-0.06568316500483062,-0.10962733127105162,261697.0,7.616835377714015,-0.023997005201978006,0.3115581442787705,265231.0,-3.5722062545542954,-0.05473596321455432,0.5720923262232707,779829.0,266.34359241312774,262.80959241312775,780.9415924131276
17,62,21,m,1,0,9.0,9,1,low,4 + 9 + 1 - 1 - 1,12,11,13,12,277.4045964999823,279.431834899995,280.9478088999749,285.96645110001555,287.1132045999984,287.1132093999768,288.62945589999435,289.64636780001456,w,13,1.1467534999828786,0,+0,14,-10.221735956933273,-0.026017954555242806,0.08273849437201752,276305.0,5.611852580464376,-0.030695917269131456,0.013213579622620042,279839.0,1.5148326053005903,4.218443933443746,7.40938593679371,358199.0,280.95159241312774,277.41759241312775,359.31159241312776
18,62,21,m,1,0,10.0,10,3,low,9 - 1 + 5 - 6 + 8,15,17,15,14,291.16321969998535,293.1884844999877,294.70344130002195,299.72281680000015,301.057282099966,301.05728700000327,302.5736802999745,303.5910365000018,e,14,1.3344652999658138,0,+0,14,15.120588815614106,-0.13396895246511153,0.24803122215853257,290061.0,29.094438725722224,0.00201793083392543,-0.0909863460924516,293596.0,-6.801317784563659,0.09698582763414976,-0.0958354305864122,524151.0,294.70859241312775,291.1735924131277,525.2635924131276
19,62,21,m,1,0,11.0,11,4,low,3 + 8 - 7 + 9 - 5,8,7,9,8,305.10796509997454,307.14502039999934,308.66036719997646,313.67918410000857,315.4891864999663,315.4891917000059,317.0063245000201,318.02323220000835,e,8,1.8100023999577388,1,+1,15,2.0151731018134047,0.18306172380138852,1.0501691400625779,304018.0,-47.35082496995449,-0.2987797771067764,-0.2514816186006872,307552.0,-35.39621470969876,0.05248437674344819,-0.22201764302665183,861949.0,308.66459241312776,305.1305924131277,863.0615924131276
20,62,21,m,1,0,12.0,12,2,low,6 + 1 + 1 + 8 - 9,7,7,5,9,319.5402820999734,321.56648239999777,323.0817318999907,328.10113059997093,329.91315300000133,329.9131577999797,331.4299929999979,332.44654600002104,q,7,1.8120224000304008,1,+1,16,-24.217661005501846,-0.4784209826516941,-0.21286897538769312,318439.0,7.204471426837355,-0.11505761920148894,0.11899161487174759,321974.0,-11.346199746149486,0.7999128871807564,1.349045086886336,441543.0,323.08659241312773,319.55159241312776,442.65559241312775
21,62,21,m,1,0,13.0,13,4,high,7 + 6 - 9 + 8 - 3,9,7,9,8,333.9632704000105,335.9902741999831,337.50547400000505,342.52425080002286,344.2490825999994,344.24908769998,345.76569729996845,346.7827274000156,e,8,1.7248317999765277,0,+0,16,23.211037395512808,-0.25954450182215716,-0.013326013237097367,332863.0,10.51916000584345,-0.16223237535570822,0.16850246274300673,336397.0,46.24177212137123,0.4686398857702403,0.1544506592322299,929237.0,337.50959241312773,333.97559241312774,930.3495924131277
22,62,21,m,1,0,14.0,14,1,low,6 + 9 + 1 + 1 - 1,16,14,16,15,348.2996735000052,350.3268489000038,351.8423034999869,356.86080799996853,357.7930547000142,357.79305939999176,359.30936620000284,360.3262629000237,w,16,0.9322467000456528,1,+1,17,-7.6534166707724935,-0.28812106166270013,0.08409576810696784,347199.0,38.24183073983509,-0.8676651876380332,0.18313754931747983,350733.0,10.001256618073768,-0.16909659484978334,-0.15347961471526594,482158.0,351.84559241312775,348.31159241312776,483.27059241312776
23,62,21,m,1,0,15.0,15,1,high,6 + 1 + 8 + 1 - 1,15,14,13,15,361.8430612999946,363.87098569999216,365.3865053000045,370.4048247999745,370.9131083000102,370.9131131999893,372.43001279997407,373.4474337999709,w,13,0.5082835000357591,0,+0,17,5.821495092884378,-0.5571886577571861,0.09805813266216257,360743.0,-36.68607847338393,-0.3848119170986446,-0.0033562315489463757,364277.0,6.739786733305042,-0.3222641354949878,-0.09735760341449895,537390.0,365.38959241312773,361.85559241312774,538.5025924131277
24,62,21,m,1,0,16.0,16,3,high,7 + 5 + 9 + 1 - 6,16,15,14,16,374.96406949998345,376.987147399981,378.5024493999663,383.5211029999773,384.02507430000696,384.0250789999845,385.5414896999719,386.55875399999786,w,14,0.5039713000296615,0,+0,17,-0.3471571005166858,-0.1265110458644676,-0.018758027277862688,373860.0,39.41484148697434,-0.3786734876499773,0.03562741950250681,377394.0,14.284699969974227,-0.16411589809931204,-0.0703071193787339,606559.0,378.50659241312775,374.97259241312776,607.6715924131277
25,62,21,m,1,0,17.0,17,4,high,3 + 8 - 5 + 9 - 7,8,7,8,6,388.0756719000056,390.10234450001735,391.6176294999896,396.6361539000063,397.8171132999705,397.81711840000935,399.333692300017,400.3517424999736,q,7,1.1809593999641947,0,+0,17,0.6174385482898632,-0.22230310755305283,0.11868845939091677,386975.0,-14.024166948144451,0.042908821980758294,0.06677771807662847,390509.0,-16.655759629702356,-0.13470177263479455,0.09670417755096494,1042020.0,391.62159241312776,388.08759241312777,1043.1325924131277
26,62,21,m,1,0,18.0,18,1,high,5 + 6 + 1 + 1 + 1,14,15,16,14,401.8684985999717,403.8953190000029,405.41051419998985,410.4281766000204,412.6571736999904,412.65717889997177,414.1736716000014,415.1919202000136,q,15,2.2289970999700017,0,+0,17,-19.701224541223347,0.2782272052648094,0.2093275426847767,400768.0,2.148952361492153,-0.2148809423781466,-0.13238052865112948,404301.0,-5.143220927115103,0.2132872771994898,0.07228737292653697,550574.0,405.41359241312773,401.8805924131277,551.6865924131276
27,62,21,m,1,0,19.0,19,3,high,6 + 7 + 8 + 1 - 9,13,13,14,15,416.7085349999834,418.7352424999699,420.2503776000231,425.2689733000007,427.3771185000078,427.3771235999884,428.8938018999761,429.91096509998897,q,13,2.108145200007129,1,+10,27,15.02243711935228,0.09032558298413562,0.06902025903870168,415608.0,39.76197887956747,0.06799912060940594,-0.09610321726095439,419141.0,21.74950500634189,-0.6424270343857028,0.44261606070745385,649614.0,420.25359241312776,416.72059241312775,650.7265924131277
28,62,21,m,1,0,20.0,20,2,low,2 + 9 + 1 + 1 - 5,8,8,6,7,431.4278807999799,433.4551114999922,434.9700672000181,439.988503200002,441.13704439997673,441.1370496000163,442.653684000019,443.6706390000181,q,8,1.1485411999747157,1,+1,28,-6.809977542773044,-0.1875374223263151,-0.06969853839328,430327.0,9.655712612953714,-0.05999498330563213,0.14865708567969094,433861.0,-70.82314432190314,-0.14935627303137666,-0.06544341590977609,496375.0,434.97359241312773,431.43959241312774,497.48759241312774
29,62,21,m,1,0,21.0,21,3,high,4 + 7 + 1 + 9 - 5,16,16,18,17,445.18734439997934,447.2133757999982,448.7286363000167,453.7488726999727,455.06505969999125,455.0650649999734,456.5816401999909,457.5989306999836,e,17,1.3161870000185445,0,+0,28,21.603580487238446,-1.1995317452799612,-19.070713643160676,444086.0,4.912919523462099,0.1892259109006038,-0.3716596506955252,447621.0,-8.239626853307207,-0.042077772433523286,0.2644162553482525,808093.0,448.7335924131277,445.19859241312776,809.2055924131276
30,62,21,m,1,0,22.0,22,4,low,8 + 4 + 7 - 5 - 6,8,6,9,8,459.1159062000224,461.1435049999855,462.6586215000134,467.6772507000133,468.6251229000045,468.62512819998665,470.14197900000727,471.1589510000194,w,9,0.9478721999912524,0,+0,28,-58.01748251317153,0.3509517392590591,-0.2738843256418724,458015.0,-21.48570091152144,-0.033632198495804566,0.1420032697324385,461549.0,20.74848417050539,-0.20878058901663588,-0.09114577589067419,1084044.0,462.6615924131277,459.12759241312773,1085.1565924131278
31,62,21,m,1,0,23.0,23,1,high,2 + 1 + 9 + 1 + 1,14,13,14,12,472.6758537999704,474.70155389996944,476.21675560000585,481.2363005999941,481.7529916000203,481.75299639999866,483.2690939999884,484.2860748000094,w,14,0.5166910000261851,1,+10,38,10.77539662954334,0.4675593146868624,0.20087520906781053,471574.0,11.169212976712169,-0.40028042707550515,-0.06290840133350128,475108.0,-53.03456044068088,-0.2803709688919116,-0.08171498189456972,565214.0,476.22059241312775,472.68659241312776,566.3265924131277
32,62,21,m,1,0,24.0,24,2,low,7 + 5 + 1 - 1 - 8,4,4,2,3,485.8028810999822,487.8301827000105,489.3450437000138,494.3636282000225,495.9689874000032,495.96899259998463,497.4855947999749,498.5032777999877,q,4,1.6053591999807395,1,+1,39,-9.484276078956881,-0.051569828590178446,0.0190214573631593,484702.0,-17.961100073417334,-0.11348169510363437,0.16323593644399592,488236.0,-13.709029361739173,0.007515415075987075,-0.16012541469049557,591983.0,489.34859241312773,485.81459241312774,593.0955924131276
33,62,21,m,1,0,25.0,25,3,high,8 + 4 + 1 - 7 + 9,15,13,16,15,500.02007389999926,502.04739469999913,503.5625681999954,508.5828028999968,510.3850921000121,510.3850975999958,511.9017789000063,512.9189775999985,w,16,1.802289200015366,0,+0,39,3.6140370303656724,-0.14438153038120838,-0.06841421017413118,498919.0,24.37646347943142,-0.148752586873671,0.12521498435451028,502455.0,20.361243577709214,0.28179899969483735,-0.15568458586841283,834293.0,503.5675924131277,500.0315924131277,835.4055924131277
34,62,21,m,1,0,26.0,26,3,high,7 - 6 + 8 + 1 + 7,17,17,15,16,514.4359924999881,516.4594493000186,517.974554400018,522.993504300015,523.7449160999968,523.7449210999766,525.2615644999896,526.2788928999798,q,17,0.7514117999817245,1,+10,49,-13.59881791737781,0.45706021068983604,0.2093578194379926,513331.0,12.700123067960869,-0.3129807808115639,-0.88122720227121,516865.0,11.538866812709301,-0.44999031630487174,0.012251276477580397,1247891.0,517.9775924131277,514.4435924131277,1249.0035924131278
35,62,21,m,1,0,27.0,27,1,high,7 + 1 + 4 + 1 - 1,12,12,13,11,527.7960409999941,529.8219122000155,531.3369085000013,536.3547675000154,536.9849756999756,536.9849812000175,538.5014003000106,539.5182265000185,q,12,0.6302081999601796,1,+10,59,-9.165118609860302,-0.026892373995868635,0.7616169249007858,526694.0,16.046559812760204,-0.20181938730154148,-0.056888569882350026,530227.0,-23.204015046107205,-0.14089683787089147,0.016281000677237145,997372.0,531.3395924131277,527.8065924131276,998.4845924131276
36,62,21,m,1,0,28.0,28,1,low,3 + 1 + 1 + 8 - 1,12,12,14,13,541.03512830002,543.0628344999859,544.5781670999713,549.5962403999874,550.1689826999791,550.1689876000164,551.6853669999982,552.7020977999782,q,12,0.5727422999916598,1,+1,60,-10.364765933061669,0.08898153880905957,0.08162220807815102,539934.0,-23.01085047542455,0.24570570444809814,0.1118630487737815,543468.0,-15.81678167887868,-0.09441905633170844,-0.16159777725590785,1025636.0,544.5805924131276,541.0465924131277,1026.7485924131277
37,62,21,m,1,0,29.0,29,1,low,8 + 1 + 1 - 1 - 4,5,6,3,5,554.2187620999757,556.2404762000078,557.7558254000032,562.7739752000198,564.8088586999802,564.808863800019,566.3255144999712,567.3420572999748,e,5,2.034883499960415,1,+1,61,-3.6632038219750083,0.05208090342854588,0.2810567947203739,553112.0,18.51687731628772,-0.3357506132642256,-0.014503802888097495,556646.0,-3.8287606555777884,-0.10405472154166917,0.14399684712789873,1111540.0,557.7585924131276,554.2245924131277,1112.6525924131276
38,62,21,m,1,0,30.0,30,4,high,4 + 9 - 7 + 8 + 5,19,19,20,21,568.8587045000168,570.8864265999873,572.4011782999733,577.4198255999945,578.3368898999761,578.3368956000195,579.8532865999732,580.8705081000226,e,21,0.9170642999815756,0,+0,61,14.107471286125804,-0.02803842741751339,-0.027891313732341105,567758.0,9.17140600291076,0.012858036803127249,0.0241893070140351,571292.0,-42.134420359418534,-0.2792747670491855,-0.028805861856760595,1383603.0,572.4045924131277,568.8705924131277,1384.7155924131278
39,62,21,m,1,0,31.0,31,2,high,7 + 8 + 1 + 9 + 1,26,25,24,26,582.3875659999903,584.4124095999869,585.9281053000013,590.9474609000026,591.5768417000072,591.5768467999878,593.09437289997,594.1115023000166,e,26,0.6293808000045829,1,+10,71,-2.4140300188302017,-0.1156822970111846,0.1511574108678717,581284.0,-18.310550795291466,-0.04552701775836088,-0.3279690530704127,584820.0,19.36343098482414,0.26863757018496237,0.15398788939486074,619902.0,585.9325924131277,582.3965924131277,621.0145924131277
40,62,21,m,1,0,32.0,32,3,high,8 - 7 + 9 + 1 + 4,15,16,15,14,595.6277228000108,597.6551731000072,599.1702744999784,604.1892644999898,606.1528701999923,606.1528755999752,607.6702976999804,608.6875338999671,w,15,1.9636057000025176,1,+10,81,-0.5063889391252427,-0.6995336662324929,-0.8977124431491537,594527.0,-2.867749081543902,0.04001078365494104,0.150737788814034,598061.0,10.117071368213349,1.0567216215567523,-0.07194562388163761,1462810.0,599.1735924131277,595.6395924131277,1463.9225924131276
41,62,21,m,1,0,33.0,33,2,high,8 + 1 + 4 - 7 + 1,7,5,6,7,610.2039825000102,612.2289892999688,613.7442904000054,618.7642807000084,619.496782000002,619.4967866999796,621.0133954000194,622.0304697999964,e,7,0.7325012999936007,1,+10,91,32.625698487007035,0.3580747223766094,-0.000610356545571733,609100.0,31.174577259865547,-0.2820127256176117,-0.04630160458205923,612636.0,7.225000050431249,-0.12445966352922566,-0.41990544339011904,676358.0,613.7485924131277,610.2125924131277,677.4705924131276
42,62,21,m,1,0,34.0,34,2,high,6 + 1 + 7 - 8 - 1,5,7,4,5,623.5467636999674,625.5708946000086,627.0861361999996,632.1045573999872,635.8409430999891,635.8409485999728,637.3582336999825,638.375357699988,w,4,3.736385700001847,0,+0,91,-12.708059303266623,0.3814548301184528,-0.001693066188367176,622442.0,-7.176461060283424,-0.28590876783801766,-0.021003600705022718,625976.0,-0.8517377679810458,-0.8879245518340735,3.368388184265421,766325.0,627.0885924131277,623.5545924131277,767.4375924131277
43,62,21,m,1,0,35.0,35,3,low,5 + 1 + 7 - 8 + 6,11,13,11,9,639.8924824999995,641.9199885000126,643.43523860001,648.4550484999781,649.208844400011,649.2088494999916,650.7254551000078,651.7424445999786,w,11,0.7537959000328556,1,+1,92,-14.692602679137568,-0.23466664005226345,-0.23127468210104185,638791.0,-11.445415534025889,-0.09025569033667002,-0.08460913520781665,642326.0,1.1861949978405448,0.17296806045226543,0.05954152230502885,1502081.0,643.4385924131277,639.9035924131277,1503.1935924131276
44,62,21,m,1,0,36.0,36,1,high,8 + 1 + 1 + 1 - 4,7,7,5,8,653.2592641999945,655.2838331999956,656.7990419999696,661.8172279999708,662.8648840999813,662.8648893000209,664.3816786999814,665.3987913000165,w,5,1.0476561000104994,0,+0,92,-65.35654006374955,0.0878587357464018,-0.1889566031376826,652155.0,-9.409607737182778,0.23220395147828388,0.09591370484527006,655688.0,0.2434263848441489,0.15992360860987787,0.018821002602249948,1124748.0,656.8005924131277,653.2675924131277,1125.8605924131277
45,62,21,m,1,0,37.0,37,2,high,5 + 1 + 7 - 6 + 1,8,7,8,6,666.9155279999832,668.9425129999872,670.4578232999775,675.4777949000127,675.9528238999774,675.9528294000193,677.4693825999857,678.4863526999834,w,8,0.4750289999647066,1,+10,102,-36.26799166560603,0.8877018811101818,0.17348066918041716,665814.0,6.500631623854737,-0.14706593809906732,0.23680783117887594,669349.0,3.7035382805163906,-0.45498929269835653,-0.3119361671389431,848012.0,670.4615924131277,666.9265924131277,849.1245924131276
46,62,21,m,1,1,38.0,0,2,high,4 + 9 - 7 + 1 - 1,6,6,8,5,702.1681230000104,704.192902699986,705.7082529999898,710.7278779000044,712.2727951999987,712.27280039998,713.7895574999857,714.8078259999747,w,8,1.5449172999942675,0,+0,102,24.157449854870666,0.1869064095441182,-0.4737710209745116,701064.0,16.89829174297492,-0.052812729989816454,-0.026639128631959608,704599.0,5.2516112085823305,-0.17861497581140817,-0.0944049458629097,876877.0,705.7115924131277,702.1765924131277,877.9895924131276
47,62,21,m,1,1,39.0,1,3,high,7 - 1 + 9 - 5 + 4,14,14,15,13,716.3245401000022,718.3524366000202,719.8676330000162,724.8868147999747,725.4727824999718,725.4727876000106,726.9895986000192,728.0084042000235,w,15,0.5859676999971271,0,+0,102,-1.089419291067479,0.28551371296966943,0.0012831508398165603,715224.0,-16.672735255620715,0.03808383207480359,0.13629342979003933,718758.0,7.800524722968022,-0.9074297990236988,0.4234220852593795,1556441.0,719.8705924131277,716.3365924131277,1557.5535924131277
48,62,21,m,1,1,40.0,2,4,high,5 + 9 - 4 + 7 + 6,23,23,25,24,729.5253939999966,731.5476985999849,733.0628688000143,738.0826758000185,738.9847279000096,738.9847328999895,740.5013468000107,741.5185141999973,e,24,0.902052099991124,0,+0,102,-5.74345956176324,-0.06161148433550112,-0.10616855669307013,728419.0,-42.06632350763043,-0.15360327934824847,0.05697891413653755,731954.0,1.6734902258476723,-0.14511442629922655,0.03348754276539667,1542825.0,733.0665924131276,729.5315924131277,1543.9375924131277
49,62,21,m,1,1,41.0,3,3,low,4 + 1 + 8 + 9 - 5,17,19,17,18,743.0352724000113,745.0579337999807,746.5732936999993,751.5917763999896,752.3207273000153,752.3207322999951,753.837445800018,754.8551843999885,q,19,0.7289509000256658,0,+0,102,23.2137792193739,-0.2856423657038478,0.02360943873874377,741929.0,6.17596085813425,-0.6389185528162837,0.1314507907308311,745463.0,-11.387936070019183,0.7388022523810092,0.14397145188309945,1569257.0,746.5755924131277,743.0415924131277,1570.3695924131277
50,62,21,m,1,1,42.0,4,2,low,6 + 8 + 1 + 1 - 7,9,9,8,11,756.3728014000226,758.3996683000005,759.9149223999702,764.9332471999805,765.9206918000127,765.9206966999918,767.4372763999854,768.454174500017,q,9,0.9874446000321768,1,+1,103,-29.16422387342844,0.2654052048383395,-0.023481986339412897,755270.0,20.85507499914569,0.5859943812558712,-0.08960508349198038,758804.0,5.1883066840379035,-0.07014636948771091,0.10071400422276366,970413.0,759.9165924131277,756.3825924131277,971.5255924131277
51,62,21,m,1,1,43.0,5,4,low,2 + 9 - 4 + 8 + 7,22,21,23,22,769.9710607000161,771.9989188999753,773.5139630999765,778.5325847999775,779.4247430000105,779.4247481999919,780.9413562999689,781.9584230000037,e,22,0.892158200033009,1,+1,104,17.381747777782685,0.33626531164122664,9.834762441600493,768870.0,25.483720222594727,0.7738205261023383,-0.9911034412349853,772403.0,17.709380851030158,-0.44682064623817386,-0.09302953182240303,1693537.0,773.5155924131277,769.9825924131277,1694.6495924131277
52,62,21,m,1,1,44.0,6,3,low,9 + 3 - 4 + 6 + 7,21,22,21,23,783.4751580000157,785.5013605999993,787.0168962000171,792.0369358999887,793.5127026999835,793.5127077000216,795.02933390002,796.0469159000204,q,22,1.4757667999947444,0,+0,104,22.682913646840014,2.3681698610735253,-0.20057923610348993,782372.0,0.7098993928380786,0.6162193739492903,-0.14736678362389188,785907.0,-26.558169344842376,-0.05947313645557273,1.7585414370673966,2345637.0,787.0195924131277,783.4845924131276,2346.749592413128
53,62,21,m,1,1,45.0,7,3,low,6 - 1 + 7 - 8 + 9,13,12,11,13,797.5636142999865,799.5869531999924,801.1021512000007,806.1213217999903,807.6886589999776,807.688664700021,809.2054265000043,810.2221586999949,e,13,1.567337199987378,1,+1,105,24.029689561890798,-0.6601672018326035,0.14469970546891942,796458.0,3.321376231666914,1.4235294074754208,-0.1615760882566244,799992.0,-2.139721119159425,-0.26616591916701715,-0.0903017912104147,2537485.0,801.1045924131276,797.5705924131277,2538.597592413128
54,62,21,m,1,1,46.0,8,3,low,3 + 8 + 1 + 5 - 9,8,8,7,9,811.7387751999777,813.7606669999659,815.2764101999928,820.2953119999729,820.6967220000224,820.696727100003,822.2142428000225,823.2313592999708,w,7,0.4014100000495091,0,+0,105,4.773115041822452,-0.8410040200331652,0.6955815613632654,810632.0,-19.487711355252237,-6.525953058089627,-14.087691993551386,814166.0,-11.336574006542413,0.023441794745516997,-0.05611122255777001,2606884.0,815.2785924131277,811.7445924131276,2607.996592413128
55,62,21,m,1,1,47.0,9,3,high,3 - 7 + 5 + 1 + 9,11,12,11,13,824.7477910000016,826.773914600024,828.28873749997,833.3073663999676,833.8888006000197,833.8888057000004,835.4051010999829,836.4221937999828,w,11,0.581434200052172,1,+10,115,-17.498986501335036,5.623339941191938,12.632998810033865,823645.0,-0.5088754585276654,0.9459112782916854,-0.2678104753301169,827178.0,24.833451075745835,-0.20166585608438004,-0.07829368473149989,2619869.0,828.2905924131277,824.7575924131277,2620.981592413128
56,62,21,m,1,1,48.0,10,2,low,2 + 1 + 9 - 4 + 1,9,9,8,11,837.9388692000066,839.9658432999859,841.4810938999872,846.4994578000042,847.608565100003,847.6085698999814,849.1250502999756,850.1419607999851,q,9,1.1091072999988685,1,+1,116,-23.825302791120283,0.11848177525457615,-0.07936386115382943,836836.0,21.03332472871344,0.4324113969000787,-0.02444747264160929,840370.0,7.168995193335643,-0.25096590910194516,1.0087142566196279,1057236.0,841.4825924131277,837.9485924131277,1058.3485924131278
57,62,21,m,1,1,49.0,11,4,high,9 + 8 - 5 - 7 + 6,11,13,10,11,851.6585044999956,853.6864935000194,855.2012405999703,860.2199684000225,861.5445631999755,861.5445684000151,863.0611978999805,864.0783509999746,e,11,1.3245947999530472,1,+10,126,32.32506104458587,0.09394119223348962,0.0023253488653116605,850557.0,18.2669825295958,-0.3186927017472154,0.048449376023252944,854090.0,-18.847372110905503,0.7452732483356761,-0.04617566735614109,1748224.0,855.2025924131277,851.6695924131277,1749.3365924131276
58,62,21,m,1,1,50.0,12,2,high,4 + 8 + 1 + 1 - 6,8,8,9,7,865.5952476999955,867.6230852999724,869.1383293999825,874.1566361999721,876.4726299999747,876.472634900012,877.9894125999999,879.0073341999669,q,8,2.315993800002616,1,+10,136,-16.39666464284877,-1.0768388939091116,0.10925009734037738,864494.0,-7.498348304918666,-0.09572741617919922,0.011538924112381554,868027.0,21.00190154751069,0.04804871876651218,-0.07357500406303985,1096923.0,869.1395924131277,865.6065924131277,1098.0355924131277
59,62,21,m,1,1,51.0,13,4,low,9 + 4 - 6 + 8 + 7,22,24,21,22,880.5241105000023,882.548861999996,884.0641734999954,889.0830544999917,889.8409381000092,889.8409579999861,891.3572210000129,892.3742670000065,w,21,0.7578836000175215,0,+0,136,-31.12922427448869,0.0543016921901569,-0.1681964677475225,879419.0,-25.10071563505802,-0.12371852773385683,0.026738074071674722,882954.0,0.7738505861081997,-6.622462039259582,-3.2679427145485036,1848032.0,884.0665924131276,880.5315924131277,1849.1445924131276
60,62,21,m,1,1,52.0,14,4,low,3 + 8 - 4 + 9 + 6,22,23,22,21,893.8910662999842,895.917745099985,897.4330175999785,902.4508231999936,902.768564399972,902.7685692000086,904.2859723999863,905.303037900012,e,21,0.3177411999786272,0,+0,136,3.3087713050349876,0.13397149345611847,-0.05892518075751996,892788.0,13.160344216654028,0.002718196640034254,0.13532285337224637,896321.0,-17.71246834053842,-0.22212832004101424,0.14868997489330305,2013831.0,897.4335924131277,893.9005924131277,2014.9435924131276
61,62,21,m,1,1,53.0,15,4,high,8 + 4 + 7 - 5 - 6,8,8,7,9,906.8195395999936,908.846080599993,910.361310200009,915.3797412000132,915.9205384000088,915.9205434999894,917.4370703999884,918.4543247999972,e,9,0.5407971999957226,0,+0,136,9.867779791823413,0.12459974937989449,0.06964779807282961,905716.0,-26.063339506081434,0.1783661032258972,0.25972807983157176,909250.0,-16.793230547270554,-0.48729651545404007,-0.035897897502399134,2167119.0,910.3625924131277,906.8285924131277,2168.231592413128
62,62,21,m,1,1,54.0,16,4,high,5 + 8 - 4 - 6 + 9,12,13,12,14,919.9707565999706,921.9929792999756,923.5082417000084,928.5266526999768,928.8324801999844,928.8324850000208,930.3491459999932,931.3667094999691,w,12,0.3058275000075809,1,+10,146,-8.508554567858653,0.08872458910580638,0.5503222423262277,918863.0,-11.264729157073276,0.15106084895511174,-1.729407695628392,922397.0,10.165850831351129,2.31073244532608,2.7835541130786474,2246534.0,923.5095924131277,919.9755924131277,2247.646592413128
63,62,21,m,1,1,55.0,17,4,low,2 + 9 - 3 + 5 + 8,21,22,21,23,932.8834815999726,934.9062244999805,936.4213937000022,941.4415450000088,942.552525200008,942.5525303999892,944.0690739999992,945.0862165999716,e,23,1.110980199999176,0,+0,146,54.9682280434426,-0.19192058423324942,0.15753975258459585,931777.0,0.21707448671989127,-0.04333591021696259,-0.09593566347815718,935312.0,27.40280498475482,-0.08490050371717928,0.006894259034302408,2259542.0,936.4245924131277,932.8895924131277,2260.654592413128
64,62,21,m,1,1,56.0,18,2,low,9 + 6 + 1 + 7 + 1,24,25,24,23,946.6030001000036,948.630357899994,950.1454796000036,955.1638643000042,956.1204943999765,956.12050010002,957.6368844999816,958.6538410999927,e,23,0.9566300999722444,0,+0,146,-21.70436795608208,-0.9146314959689654,-15.148644557107824,945501.0,-16.344859246478403,0.3240761290006713,-0.23478142757825227,949034.0,16.203122417238625,-0.6302298061658558,0.0034960649509105934,1179835.0,950.1465924131277,946.6135924131277,1180.9475924131277
65,62,21,m,1,1,57.0,19,2,low,9 + 6 + 1 + 7 + 1,24,25,23,24,960.1704951999708,962.194566799968,963.7096683999988,968.7281049999874,970.0085379999946,970.0085432999768,971.5252201000112,972.5427850999986,e,24,1.2804330000071786,1,+1,147,-3.087554522313905,0.31319589437589723,0.215743552499589,959065.0,-19.93301966556287,0.5828332276268338,-0.21302442437015556,962598.0,-1.2865442884660538,-0.09791283453634092,-0.09669510635536849,1219947.0,963.7105924131276,960.1775924131277,1221.0595924131276
66,62,21,m,1,1,58.0,20,2,high,5 - 8 + 7 + 1 + 1,6,7,8,6,974.0595745000172,976.0850741000032,977.5999797999976,982.6184350000112,983.728534199996,983.728539499978,985.2450871000184,986.2622185000218,w,8,1.1100991999846883,0,+0,147,9.642091299601233,-0.3699434037321705,0.16881297287780983,972955.0,5.638934866245358,-0.2743379227507159,0.12036998300795898,976488.0,-20.718965834944356,-0.1008877092865661,0.2393365996241874,1288515.0,977.6005924131277,974.0675924131277,1289.6275924131278
67,62,21,m,1,1,59.0,21,1,high,2 + 1 + 9 + 1 - 1,12,11,13,12,987.7793683999917,989.806823400024,991.3220024000038,996.34064140002,996.9684721999802,996.9684772000182,998.4849661000188,999.5022520999772,e,12,0.6278307999600656,1,+10,157,-29.202316967391155,0.005944196678456137,0.24207901719589797,986677.0,18.14901419638546,0.43727376500943826,0.06246428280583327,990210.0,-6.65189829845678,-0.011057673332137696,0.20865924371526434,1138325.0,991.3225924131277,987.7895924131277,1139.4375924131277
68,62,21,m,1,1,60.0,22,4,high,3 + 9 - 4 + 7 + 6,21,21,19,20,1001.0189166999772,1003.0425262000064,1004.557698699995,1009.577000099991,1012.120576700021,1012.1205824000062,1013.6372269999702,1014.6544640000212,w,19,2.5435766000300646,0,+0,157,15.02093755214671,-0.33165829733298136,0.03648371719694321,999913.0,-30.187955372360914,-0.26816556365983235,-0.014590630427063322,1003447.0,20.962777890727487,-0.873915929799066,-0.3748024863647381,2302990.0,1004.5595924131277,1001.0255924131277,2304.1025924131277
69,62,21,m,1,1,61.0,23,1,high,6 + 9 + 1 + 1 - 1,16,14,16,15,1016.1713304999868,1018.1933294999762,1019.7086211999996,1024.7265717000118,1025.2324123000144,1025.232421499968,1026.748955600022,1027.766260000004,w,16,0.505840600002557,1,+10,167,-12.132091803287992,-0.0871656412046744,0.04540903504186744,1015064.0,23.052413498040437,1.592506164841799,2.9932894754133614,1018597.0,45.24562182176387,-0.0621455045591186,-0.10197091717249007,1165820.0,1019.7095924131277,1016.1765924131277,1166.9325924131276
70,62,21,m,1,1,62.0,24,4,low,6 + 9 - 7 + 8 - 5,11,12,11,13,1029.2831961999764,1031.3095447000233,1032.824738700001,1037.843595399987,1041.6165128999855,1041.616521899996,1043.133065800008,1044.1498098999728,w,11,3.772917499998584,1,+1,168,6.721776832883119,0.07101597152866157,-0.15277661863127845,1028180.0,58.989805362400894,0.4345381083287787,0.0034410365744612648,1031713.0,-29.342841167590862,-0.1820398918553563,2.33694935385103,2359382.0,1032.8255924131277,1029.2925924131277,2360.494592413128
71,62,21,m,1,1,63.0,25,2,low,7 + 1 + 9 - 1 - 8,8,6,8,7,1045.6663207999663,1047.6912195999755,1049.2069721000153,1054.2253571000183,1056.8324884999893,1056.8324940999737,1058.349216200004,1059.3662439999753,w,8,2.6071313999709678,1,+1,169,14.517672294043578,-0.1966634294810139,-0.13578705519077694,1044561.0,-33.23838320955967,0.14768896567713252,0.10720550203459189,1048095.0,2.983423674716965,0.19655696435010261,-0.09789420869399534,1410202.0,1049.2075924131277,1045.6735924131276,1411.3145924131277
72,62,21,m,1,1,64.0,26,3,high,2 - 4 + 9 + 7 + 1,15,16,15,13,1060.8830385999754,1062.9092663999763,1064.4242760000052,1069.44236549997,1070.432391999988,1070.43239729997,1071.9489623999689,1072.966217499983,e,13,0.990026500017848,0,+0,169,-38.255077695934375,0.019435353872951477,2.3672421978154623,1059779.0,24.66251902320257,0.8027729549350999,1.4084861850908879,1063312.0,15.652125851294505,-0.18856232149192742,-0.054379715825579655,2689772.0,1064.4245924131276,1060.8915924131277,2690.884592413128
73,62,21,m,1,1,65.0,27,4,high,5 + 6 - 4 + 7 + 9,23,24,23,25,1074.483412600006,1076.5082491000069,1078.0235656999866,1083.0423085999792,1083.6403797999956,1083.640384699975,1085.1570608000038,1086.174370499968,w,23,0.5980712000164203,1,+10,179,7.637420714611258,-0.028272861545139083,0.08767868734328532,1073378.0,-1.313794951066125,-0.2539386595957942,1.3202116867010298,1076912.0,-3.754458323922462,-0.36825097288626774,-0.11815642988950437,2373702.0,1078.0245924131277,1074.4905924131276,2374.814592413128
74,62,21,m,1,1,66.0,28,2,low,5 + 8 + 1 - 1 + 9,22,23,21,22,1087.6907517000218,1089.7186003999668,1091.2338335000095,1096.2519402999897,1096.520311900007,1096.5203171999892,1098.036970200017,1099.053767299978,e,22,0.2683716000174172,1,+1,180,1.2642396523369035,0.13275529774700923,-0.033494876105863325,1086588.0,4.911810544933404,0.03477306069967723,0.0859694305294656,1090122.0,23.428456743152434,-0.045638304548925035,0.09028569185971413,1516611.0,1091.2345924131278,1087.7005924131277,1517.7235924131278
75,62,21,m,1,1,67.0,29,1,low,6 + 1 + 1 + 9 - 1,16,15,14,16,1100.570439699979,1102.5982939999667,1104.1135641,1109.131755499984,1111.136392000015,1111.1363970999955,1112.653117000009,1113.6702853000024,e,16,2.004636500030756,1,+1,181,-5.504755863284837,0.2505503758262906,-0.061821064474836485,1099469.0,9.536455976085499,-0.08431367149884528,-0.3410614400975609,1103001.0,-45.88836102417889,-0.256574587039025,-0.09740854161350598,1192907.0,1104.1135924131277,1100.5815924131277,1194.0195924131276
76,62,21,m,1,1,68.0,30,1,low,8 + 1 + 5 + 1 + 1,16,16,15,17,1115.187012600014,1117.212144499994,1118.7279538000005,1123.745613200008,1124.344355600013,1124.344360499992,1125.8611176999984,1126.878795799974,q,16,0.5987424000049941,1,+1,182,-2.009218634742405,0.12877455303204233,-0.06080562084992325,1114081.0,-1.7697789783737967,0.02045438225007823,-0.13401945362321932,1117615.0,28.521824984740164,-0.13456443527426298,0.04046410868337702,1206780.0,1118.7275924131277,1115.1935924131276,1207.8925924131277
77,62,21,m,1,1,69.0,31,1,high,7 + 1 + 5 + 1 - 1,13,12,13,14,1128.3954416000051,1130.4237948000082,1131.9390491999802,1136.9583574999706,1137.921125599998,1137.921131399984,1139.4377847000142,1140.4554593000212,w,13,0.9627681000274606,1,+10,192,2.2775078999967002,0.26250854309564553,0.07671504816409036,1127293.0,10.055297495899266,0.07642462390135263,0.26374646826796067,1130827.0,10.246328532511134,-0.5058578983353947,-0.14708961673505572,1262028.0,1131.9395924131277,1128.4055924131276,1263.1405924131277
78,62,21,m,1,1,70.0,32,3,low,5 + 7 + 1 - 4 + 6,15,15,13,17,1141.9722934999736,1143.9964433999849,1145.5117467999808,1150.5300685999682,1150.9843261999777,1150.9843310000142,1152.5002706000232,1153.5179245999898,e,17,0.4542576000094414,0,+0,192,8.779285576747114,0.10394413394169044,-0.04718587174184474,1140866.0,-13.247741853323976,0.03713781493103396,-0.05347115062013219,1144400.0,70.96864352459991,-0.17539064924417724,-0.11719143289292888,2758844.0,1145.5125924131278,1141.9785924131277,2759.956592413128
79,62,21,m,1,1,71.0,33,1,low,6 + 1 + 8 + 1 + 1,17,16,17,15,1155.0344019000186,1157.0627612000098,1158.577910699998,1163.5958555999678,1165.4163687999826,1165.416374399967,1166.9336651000194,1167.9504880000022,w,17,1.8205132000148296,1,+1,193,23.944905108930993,-0.04809076584666849,-0.11049171121505563,1153932.0,-35.80866868892717,-0.03659154047383839,-0.020357368767364825,1157465.0,-10.765373375612706,0.237979615343773,0.416069366782307,1275171.0,1158.5775924131276,1155.0445924131277,1276.2835924131277
80,62,21,m,1,1,72.0,34,2,high,3 + 9 - 1 - 5 + 1,7,7,6,5,1169.4672605000087,1171.4945050000097,1173.0095564000076,1178.0279710000032,1179.4323158999905,1179.432325200003,1180.948777500016,1181.9660277999938,q,7,1.4043448999873362,1,+10,203,5.3877316994216935,0.32529367972077683,-0.08322546992300417,1168364.0,-9.442669588164366,-0.21559777168237293,-0.1768051108305908,1171897.0,-21.93091856940424,0.7946999676130986,-5.641266183552083,1609146.0,1173.0095924131276,1169.4765924131277,1610.2585924131276
81,62,21,m,1,1,73.0,35,1,low,5 + 1 + 1 + 6 + 1,14,16,13,14,1183.4827546000015,1185.509970300016,1187.0252594000194,1192.0428103000158,1192.5043393999804,1192.5043445000192,1194.0209325000178,1195.037839800003,e,14,0.4615290999645367,1,+1,204,-27.93375095434157,0.2067748790577042,0.02703098611412047,1182379.0,19.819709093080903,0.27284352040342785,-0.28688483757220284,1185913.0,9.775964176385196,-0.5528730828612005,0.09363310928259949,1357090.0,1187.0255924131277,1183.4915924131276,1358.2025924131276
82,62,21,m,1,1,74.0,36,1,low,5 + 6 + 1 + 1 + 1,14,14,13,16,1196.5546151999731,1198.5788776999689,1200.0940051000216,1205.111843599996,1206.3764254999696,1206.376431200013,1207.8932828999823,1208.9103018000023,q,14,1.2645818999735638,1,+1,205,28.020600990096494,0.36986709531810336,-0.17819221993247236,1195448.0,-13.17391235298127,-0.18983647070928145,0.03731767556621657,1198981.0,5.720879121085137,-1.482824100055343,-25.81789151246031,1423354.0,1200.0935924131277,1196.5605924131278,1424.4665924131277
83,62,21,m,1,1,75.0,37,2,high,8 + 1 + 7 + 1 - 4,13,14,12,13,1210.426898500009,1212.4528229999703,1213.9681434999802,1218.9869403999764,1219.5442667999887,1219.5442721999716,1221.0607256999938,1222.078335799975,e,13,0.5573264000122435,1,+10,215,0.12628802052053523,0.20326048463888968,0.0816388221815536,1209322.0,-26.673300951536984,-0.23711679585216583,0.21444819699862117,1212856.0,8.685524884936417,-0.6029838991563379,0.04562966279258762,1665978.0,1213.9685924131277,1210.4345924131276,1667.0905924131278
84,62,21,m,1,2,76.0,0,3,high,7 - 5 + 9 + 1 - 4,8,7,8,9,1238.2433908999665,1240.269840000023,1241.784764299984,1246.8052182999672,1247.488288499997,1247.4882937999791,1249.0046645000111,1250.022128199984,w,8,0.6830702000297606,1,+10,225,6.316476246475968,1.8458263686323395,8.693837650963811,1237139.0,-7.794081628183758,-0.015431608770411831,-0.3749632004113139,1240674.0,,,,,1241.7865924131277,1238.2515924131276,
85,62,21,m,1,2,77.0,1,1,high,2 + 1 + 9 + 1 - 1,12,11,12,13,1251.5390208999745,1253.563679500017,1255.079040499986,1260.0973218000145,1261.6241663999972,1261.6241714999778,1263.1416555999897,1264.1587504000054,w,12,1.5268445999827236,1,+10,235,49.77986880153497,0.10172808370497854,0.20369513908933579,1250433.0,-54.53228813059084,0.14577466408785256,-0.017687907628909372,1253967.0,12.707916434310302,-0.3590393096283808,-0.07017141719613984,1582785.0,1255.0795924131278,1251.5455924131277,1583.8975924131278
86,62,21,m,1,2,78.0,2,1,high,7 + 1 + 4 + 1 - 1,12,13,11,12,1265.6757915000198,1267.7024945999729,1269.2176489999983,1274.2355646999786,1274.7681656000204,1274.7681748999748,1276.2850054000155,1277.3021333999932,e,12,0.5326009000418708,1,+10,245,1.7623368887660966,-0.0539829327636272,-0.047277317110946626,1264571.0,7.17755846414339,0.31922340788720405,0.08398042114078264,1268105.0,-3.8777423315245088,-0.24609027158785324,-0.15243079900941003,1595962.0,1269.2175924131277,1265.6835924131276,1597.0745924131277
87,62,21,m,1,2,79.0,3,2,high,7 + 6 + 1 + 8 + 1,23,23,21,22,1278.8185467000003,1280.845539300004,1282.3606977000018,1287.3790392000228,1288.112126699998,1288.112131799979,1289.628576099989,1290.6457680999883,q,23,0.7330874999752268,1,+10,255,-5.130703120564249,0.2814864658521019,-0.9181775981955567,1277714.0,-15.865499103647021,-0.006186996002071066,-0.054340945025669996,1281248.0,7.865172424547048,-0.10503029458839297,0.00792101731881667,1708585.0,1282.3605924131277,1278.8265924131276,1709.6975924131277
88,62,21,m,1,2,80.0,4,3,high,5 + 6 - 4 - 1 + 8,14,15,16,14,1292.162419900007,1294.1890230000135,1295.7041604999686,1300.7237320999848,1301.768157500017,1301.7681624999968,1303.284315099998,1304.3014675999875,w,16,1.0444254000321962,0,+0,255,48.843480433422144,-0.10574245274390437,-1.7818551405840908,1291058.0,14.45635427568092,-0.12052633875197039,-0.10476584897691277,1294592.0,,,,,1295.7045924131278,1292.1705924131277,
89,62,21,m,1,2,81.0,5,2,low,5 + 7 - 8 + 1 + 1,6,8,6,7,1305.8183021000004,1307.8467886999715,1309.3618819999974,1314.3805197000038,1315.0642047,1315.0642097999807,1316.580478399992,1317.597498200019,e,7,0.6836849999963306,0,+0,255,19.186189376128162,0.22913852410102065,0.13360585155441118,1304715.0,-14.026539571474474,-0.4101318999388912,0.1083244277330353,1308250.0,11.770980163254439,-0.6262321984263757,-0.06687304682774586,1863592.0,1309.3625924131277,1305.8275924131276,1864.7045924131278
90,62,21,m,1,2,82.0,6,2,low,7 + 6 + 1 - 1 - 8,5,5,4,3,1319.114191200002,1321.1377618999686,1322.6530687999912,1327.6714718000148,1328.6321999999927,1328.6322057999787,1330.1488174999831,1331.1662577000095,w,4,0.9607281999778934,0,+0,255,3.119481761600854,1.1967495469463167,1.7997501712928785,1318006.0,-0.33289898897728065,0.18061290764391025,-0.46342828391845226,1321540.0,-34.13780905619257,0.5326936324176899,0.3363912381672458,1905120.0,1322.6525924131276,1319.1185924131278,1906.2325924131276
91,62,21,m,1,2,83.0,7,1,low,4 + 7 + 1 - 1 - 1,10,11,9,10,1332.6993671000237,1334.7225180999958,1336.237672200019,1341.2559620999964,1343.5520549999785,1343.552059700014,1345.0687096000183,1346.085954800015,w,9,2.296092899981886,0,+0,255,0.18110919693840088,-0.09498108536832106,-0.01124726006922816,1331592.0,9.83200699245381,0.1433950936233388,-0.008614761531010151,1335125.0,28.382666763510514,-0.1039890275895381,0.14292551149612498,1651425.0,1336.2375924131277,1332.7045924131278,1652.5375924131276
92,62,21,m,1,2,84.0,8,1,high,8 + 1 + 1 + 1 - 3,8,9,8,6,1347.6024040000048,1349.630559700017,1351.14577860001,1356.1637247999895,1356.6880818000063,1356.688086599985,1358.2043814000208,1359.2215035000115,w,8,0.5243570000166073,1,+10,265,-5.7692574167912545,-0.12319868833149172,0.256237124939255,1346499.0,8.38517402404708,-0.09604242691766895,0.05406554569475541,1350033.0,10.44996750827329,0.1863103912131523,0.23016451276667982,1721648.0,1351.1455924131276,1347.6115924131277,1722.7605924131276
93,62,21,m,1,2,85.0,9,3,high,7 - 1 + 8 - 6 + 4,12,11,13,12,1360.738327900006,1362.7618721000035,1364.2770997000043,1369.2952536999946,1370.1120845999685,1370.1120901000104,1371.6283423000132,1372.6464928999776,w,13,0.8168308999738656,0,+0,265,23.290947987280546,-0.41549012570183885,0.13976819365936688,1359630.0,-18.90363469546147,-0.4949384385560185,0.04916390178420671,1363164.0,,,,,1364.2765924131277,1360.7425924131278,
94,62,21,m,1,2,86.0,10,4,high,5 + 7 - 4 - 6 + 9,11,13,11,12,1374.1643313000095,1376.1871374999755,1377.7029046000098,1382.7210654999944,1383.2000431999911,1383.2000481999712,1384.7171739999903,1385.734640699986,w,11,0.4789776999969035,1,+10,275,9.522138527419017,-0.1900730865706679,0.2644824161477577,1373056.0,-22.65837806498978,0.2784587232396083,3.0629181170541027,1376590.0,-36.68576840407556,0.20215134925314393,-0.06505914994125828,2428814.0,1377.7025924131276,1374.1685924131277,2429.9265924131278
95,62,21,m,1,2,87.0,11,2,low,5 + 9 - 8 + 1 + 1,8,7,9,8,1387.2517731999978,1389.2792716000113,1390.794653000019,1395.8128404999734,1396.6080171000212,1396.608022200002,1398.1246105000027,1399.1419173000031,w,9,0.7951766000478528,0,+0,275,7.354593005545809,0.4146014610006983,-0.004250484889236628,1386148.0,2.0588201793297003,-0.19439966727486935,0.24895846083061746,1389681.0,3.877833074410198,0.2967167380261726,-0.03448045843462477,1931615.0,1390.7935924131277,1387.2605924131276,1932.7275924131277
96,62,21,m,1,2,88.0,12,2,high,4 + 8 + 1 + 1 - 5,9,11,9,8,1400.6587026999914,1402.6864656999824,1404.2015849999734,1409.2196893999935,1409.800037899986,1409.800042500021,1411.3166062000091,1412.3337763000163,w,9,0.5803484999923967,1,+10,285,2.5273125556557225,-0.010307331278602394,0.3009315654184461,1399555.0,-0.5587877597436695,0.33270548362833274,0.19790006351333456,1403088.0,10.606863827712647,0.02239377576116386,0.010248324918932905,1985288.0,1404.2005924131277,1400.6675924131277,1986.4005924131277
97,62,21,m,1,2,89.0,13,1,low,9 + 8 + 1 + 1 - 1,18,18,19,17,1413.850665099977,1415.8764625000183,1417.3914072000189,1422.4106457000016,1422.9521058999817,1422.9521107000182,1424.4684323999682,1425.4852499999688,q,18,0.5414601999800652,1,+1,286,-3.228711423660828,-0.026825354862101136,0.0284211016499325,1412745.0,6.64694109787802,0.38722326932577866,-0.024728147565829195,1416279.0,10.028034537302572,-0.3091701390393151,0.09625095189357902,1807065.0,1417.3915924131277,1413.8575924131276,1808.1775924131277
98,62,21,m,1,2,90.0,14,4,low,8 + 4 - 5 + 7 - 6,8,8,6,7,1427.001919000002,1429.0291148999822,1430.5442208999884,1435.562874700001,1436.040005900024,1436.0400141999708,1437.5561484000064,1438.573423599999,w,6,0.4771312000229954,0,+0,286,-7.30786933735153,-0.2761020492751336,-1.6289786666677601,1425898.0,-63.63111614384686,0.2809565861371781,-0.11773736380793043,1429431.0,-0.3004179778931355,0.12422946076118091,0.42948988648703335,2469253.0,1430.5435924131277,1427.0105924131276,2470.365592413128
99,62,21,m,1,2,91.0,15,3,high,4 + 1 + 8 + 9 - 5,17,17,19,18,1440.0900521000149,1442.1160974000231,1443.6314130999965,1448.6512549999752,1449.2879605999915,1449.2879691999988,1450.8040622000117,1451.821284900012,e,18,0.6367056000162847,0,+0,286,-5.670520077394334,0.027796727446200986,-0.12902839845064884,1438985.0,6.9998768141570915,-0.11584868512105873,0.08411427653210768,1442519.0,,,,,1443.6315924131277,1440.0975924131276,
100,62,21,m,1,2,92.0,16,3,low,7 + 1 + 9 + 5 - 6,16,14,16,15,1453.3378434000188,1455.362334000005,1456.8775616000055,1461.8957939000102,1462.4079821999767,1462.407987500017,1463.9244622999686,1464.941408600018,w,16,0.5121882999665104,1,+1,287,-4.500995027333756,0.2299838228498512,0.09189381223252924,1452231.0,-23.85156342610135,0.298146100502664,0.037240486087575686,1455764.0,,,,,1456.8765924131276,1453.3435924131277,
101,62,21,m,1,2,93.0,17,2,high,3 + 9 + 1 - 5 + 1,9,7,9,8,1466.4584126999837,1468.4852190999663,1470.0002000000095,1475.018380100024,1475.7119400000083,1475.711945099989,1477.2288712000009,1478.2469246999826,e,8,0.6935598999843933,0,+0,287,17.257395677634072,-0.03223040206120231,-0.04227288386126782,1465353.0,-13.72420523150086,0.30411331882659365,0.26335218208374367,1468887.0,-16.76962427303512,0.7547013746989704,4.684252110325604,2152695.0,1469.9995924131276,1466.4655924131278,2153.807592413128
102,62,21,m,1,2,94.0,18,3,high,4 + 7 - 3 + 5 - 1,12,11,12,13,1479.7637194999843,1481.7914030000102,1483.3064632000169,1488.325702400005,1488.7839431000175,1488.7839488000027,1490.3005367000003,1491.3177950999816,q,11,0.4582407000125386,0,+0,287,-0.7658275192623047,0.36866710103267764,-0.06631289209597058,1478660.0,17.57457179000385,-0.05201843823752661,0.14533238632200174,1482194.0,,,,,1483.3065924131276,1479.7725924131278,
103,62,21,m,1,2,95.0,19,3,low,2 + 1 + 9 - 7 + 6,11,13,12,11,1492.8344765999936,1494.8587152999826,1496.3739621000132,1501.392052399984,1501.6799809000222,1501.679985900002,1503.1964805999887,1504.2131586999749,e,11,0.287928500038106,1,+1,288,-24.007309868317073,0.5918704931438041,-0.15941757063833117,1491726.0,-23.47243207407028,-0.16265800298913735,-0.07302269075819079,1495261.0,,,,,1496.3735924131277,1492.8385924131278,
104,62,21,m,1,2,96.0,20,2,high,4 + 7 + 1 + 1 - 8,5,7,5,4,1505.729972400004,1507.7537423999747,1509.2689858999802,1514.287444800022,1516.2079414000036,1516.207946999988,1517.7256342999754,1518.743009499973,w,5,1.9204965999815613,1,+10,298,-33.80938172479081,0.15113068796975337,0.13896966041114767,1504622.0,25.678640236810438,0.3419406803132725,0.0531998082001619,1508155.0,-3.662548170086694,0.08113892759690433,0.02716876157548187,2388150.0,1509.2675924131277,1505.7345924131278,2389.262592413128
105,62,21,m,1,2,97.0,21,3,high,2 + 9 - 3 + 4 + 1,13,13,14,11,1520.2597802000237,1522.2870837000082,1523.802897799993,1528.821657099994,1529.511962599994,1529.5119680999778,1531.0284939999692,1532.0456176999724,e,11,0.6903055000002496,0,+0,298,-11.741177980184297,-0.14444079598533843,0.2011553982872103,1519155.0,-67.42131677661123,0.32384984973954367,-0.14178405854303078,1522689.0,,,,,1523.8015924131278,1520.2675924131277,
106,62,21,m,1,2,98.0,22,4,low,2 + 5 - 3 + 9 + 8,21,22,19,21,1533.5623300999869,1535.5877907999677,1537.1031057999935,1542.12157139997,1542.4239772,1542.4239822999807,1543.940529900021,1544.957543299999,e,21,0.3024058000301011,1,+1,299,13.990651533551087,0.13510349006547795,0.21659943223848077,1532456.0,1.04837921080955,-0.22535721281624088,0.04467840899454334,1535990.0,-32.20873381205615,-0.6192336124874336,0.2962256564582062,2509581.0,1537.1025924131277,1533.5685924131276,2510.693592413128
107,62,21,m,1,2,99.0,23,3,low,3 + 8 - 7 - 1 + 9,12,13,14,12,1546.474458199984,1548.5012961999746,1550.0162520000013,1555.0360692999675,1556.0399677999667,1556.0399736000109,1557.55636529997,1558.5730679999688,e,12,1.0038984999991951,1,+1,300,3.3202798402110805,0.2020162196457722,-0.0024250882855809675,1545369.0,3.143275308612708,-0.33999291769655793,-0.21671688514517906,1548904.0,,,,,1550.0165924131277,1546.4815924131276,
108,62,21,m,1,2,100.0,24,3,low,3 + 1 + 8 - 5 + 9,16,15,16,17,1560.0896398000186,1562.1138067999857,1563.6291692000232,1568.647321700002,1568.8559170999797,1568.8559222000183,1570.372520999983,1571.3894735000213,w,16,0.2085953999776393,1,+1,301,-12.762188326358903,0.6253099478241824,-0.6646816136209828,1558982.0,-6.291853130780268,-0.8811987965431931,-0.12408165179979314,1562515.0,,,,,1563.6275924131278,1560.0945924131277,
109,62,21,m,1,2,101.0,25,1,low,2 + 1 + 1 + 9 - 1,12,11,13,12,1572.9062794999918,1574.9328060999978,1576.4477062000078,1581.4660199999926,1582.3838685000082,1582.3838732999866,1583.9006003999966,1584.917597999971,e,12,0.9178485000156796,1,+1,302,33.13315078910067,0.07929577189367532,0.2193205660318751,1571801.0,-0.6520417880046354,1.1167372625504024,0.16850998690505126,1575334.0,-35.359683379860094,0.35870289080353945,-0.11582645117098034,1876672.0,1576.4465924131277,1572.9135924131276,1877.7845924131277
110,62,21,m,1,2,102.0,26,1,high,6 + 1 + 1 + 7 - 1,14,13,12,14,1586.4345823000183,1588.4616918999818,1589.9766678999877,1594.9950485000154,1595.5598209999737,1595.5598260000115,1597.0766604999662,1598.094034800015,e,14,0.5647724999580532,1,+10,312,10.612816633800087,0.17844119884000342,0.06278728926387211,1585329.0,-28.246454812138897,0.0773493365993474,0.09455263710356587,1588863.0,5.789798088015765,-0.21938520062885658,0.15600714538319904,1958352.0,1589.9755924131277,1586.4415924131276,1959.4645924131278
111,62,21,m,1,2,103.0,27,2,low,8 + 1 + 1 + 9 - 4,15,16,15,14,1599.6108473999775,1601.6385515999864,1603.1540105000022,1608.1717975999927,1608.7439297999954,1608.7439349999768,1610.2607849999913,1611.278204399976,w,15,0.5721322000026703,1,+1,313,-3.301652399192509,0.06875952505793848,-1.4139589302916078,1598506.0,21.20735686084209,0.24152719496871278,-2.292053247741895,1602040.0,22.20969361697742,-0.04159290204649002,0.13958401840641876,2590925.0,1603.1525924131276,1599.6185924131278,2592.037592413128
112,62,21,m,1,2,104.0,28,3,low,8 - 1 + 6 - 7 + 5,11,11,13,12,1612.7949402999948,1614.822417700023,1616.3375864999834,1621.3563590999693,1621.743804699974,1621.74380940001,1623.2603300000192,1624.2775955999969,e,12,0.3874456000048667,0,+0,313,-40.835257710674874,-0.946578251549349,0.1594392821948718,1611690.0,5.029118804840879,0.4452878515789589,-0.21709748439986187,1615224.0,,,,,1616.3365924131276,1612.8025924131277,
113,62,21,m,1,2,105.0,29,2,high,3 + 8 + 1 - 5 + 1,8,6,8,9,1625.794145699998,1627.8218005999806,1629.3366967000184,1634.355177199992,1636.3117624999722,1636.3117675000103,1637.828600700013,1638.8457082000095,e,9,1.956585299980361,0,+0,313,14.566016542113312,0.5312836238564955,0.004289032087963385,1624689.0,23.97712439604643,-0.27774957603744,0.4258849983875783,1628223.0,61.5445830880518,-0.009715987685940064,-0.06978394421919387,2772260.0,1629.3355924131276,1625.8015924131278,2773.372592413128
114,62,21,m,1,2,106.0,30,1,high,3 + 1 + 8 - 1 + 1,12,12,10,13,1640.3624680999783,1642.390603100008,1643.9066207999713,1648.9260187000036,1651.0237937999773,1651.0237990000169,1652.54042819998,1653.5579960999894,q,12,2.09777509997366,1,+10,323,-8.337451560917135,-0.28533332182284,0.09377432445288436,1639258.0,-17.483125643252713,0.461132641172707,0.08231381053245523,1642793.0,20.355091317154518,-0.4398804140154864,0.1889134269366144,2111983.0,1643.9055924131276,1640.3705924131277,2113.095592413128
115,62,21,m,1,2,107.0,31,2,low,4 + 9 + 1 - 7 - 1,6,5,6,8,1655.0747959999717,1657.102539399988,1658.6173683999805,1663.6358110000149,1665.575860699988,1665.5758662999724,1667.0929424000203,1668.109661799972,w,6,1.940049699973315,1,+1,324,-9.61442585162131,-0.19730859257170863,0.11907735947397002,1653970.0,-15.158022240347211,0.26717606272968464,-0.14115256782866892,1657503.0,,,,,1658.6155924131276,1655.0825924131277,
116,62,21,m,1,2,108.0,32,2,low,6 + 1 + 8 + 5 - 1,19,17,19,18,1669.6265204999945,1671.650780899974,1673.1657848000175,1678.1839910999988,1678.4485218999907,1678.4485276999767,1679.9651467999793,1680.9828948000213,e,18,0.2645307999919168,0,+0,324,19.910857233616234,0.06982393684736898,-0.08788377470898512,1668518.0,-3.1998524721933066,0.9103674131535371,-0.14304934234234934,1672051.0,,,,,1673.1635924131276,1669.6305924131277,
117,62,21,m,1,2,109.0,33,4,high,4 + 8 + 9 - 3 + 7,25,25,24,26,1682.4996083999868,1684.527656099992,1686.0426940000034,1691.0626676999964,1693.1357628999976,1693.1357678999775,1694.6521242000165,1695.6696622999734,q,25,2.073095200001262,1,+10,334,-10.6770624598814,-4.108882606362828,-0.0035164122014132992,1681395.0,24.21136008110511,0.15679260326393685,0.13575214125616109,1684929.0,19.60726234357455,-0.100525210110888,0.08539500457584648,2675484.0,1686.0415924131278,1682.5075924131277,2676.596592413128
118,62,21,m,1,2,110.0,34,2,high,5 - 1 + 1 + 8 + 9,22,21,22,23,1697.186457499978,1699.2134137999965,1700.7288033000077,1705.7469090999805,1708.18368919997,1708.1836942000082,1709.70019589999,1710.7176305999749,w,22,2.4367800999898463,1,+10,344,9.206683922048718,-0.017269094362037052,-0.15255026334251687,1696081.0,-31.067945437716308,0.7858926340508878,-0.06733291169003319,1699614.0,,,,,1700.7265924131277,1697.1935924131276,
119,62,21,m,1,2,111.0,35,1,low,8 + 1 + 4 + 1 + 1,15,14,16,15,1712.234471399977,1714.262201000005,1715.777195999981,1720.79505169997,1721.2477677999996,1721.2477730999815,1722.7639061000082,1723.780898500001,e,15,0.4527161000296473,1,+1,345,12.235491046754275,0.29706355923672323,-0.14401774162780323,1711129.0,-7.772409219194801,-0.05452832323374235,0.07580488960174558,1714662.0,15.171777012067228,0.3029583728013412,0.13790788649980645,2137958.0,1715.7745924131277,1712.2415924131276,2139.070592413128
120,62,21,m,1,2,112.0,36,2,low,9 + 1 + 6 + 7 + 1,24,25,23,24,1725.2976228999903,1727.3247044999734,1728.8399064000114,1733.8580450000009,1734.8717131000012,1734.8717178999796,1736.3881973999669,1737.4054755999823,w,23,1.0136681000003591,0,+0,345,12.504533332835203,0.18283597571592747,-0.35663449881891784,1724192.0,-23.143044705167163,-0.6265481528727959,0.10740648660658714,1727725.0,,,,,1728.8375924131276,1725.3045924131277,
121,62,21,m,1,2,113.0,37,4,low,6 + 9 + 7 - 3 - 5,14,13,14,12,1738.9224851999898,1740.947945499967,1742.4629574000137,1747.481492299994,1747.8237495999783,1747.823755799967,1749.3402645000024,1750.357159600011,w,14,0.3422572999843396,1,+1,346,30.431982816827585,0.5860197242072251,0.41520254210228247,1737815.0,-8.072365524262295,-0.06541851332123239,-0.011616570735825116,1741349.0,-6.776408607522093,-0.9781908612127843,-0.057182576828052945,2785476.0,1742.4615924131276,1738.9275924131277,2786.588592413128
122,62,21,m,1,3,114.0,0,2,low,6 + 1 + 1 + 7 - 9,6,6,8,4,1769.1882977000205,1771.2162478999817,1772.7315260000178,1777.751572899986,1778.8636018999969,1778.8636068999767,1780.3806858999887,1781.3980818999698,w,8,1.112029000010807,0,+0,346,-27.064875204068887,1.4111501592542384,4.273413490254681,1768083.0,17.197943257889392,0.07229127491641307,-7.216335776013175,1771619.0,,,,,1772.7315924131276,1769.1955924131278,
123,62,21,m,1,3,115.0,1,4,low,4 + 7 + 9 - 5 + 7,22,23,24,22,1782.9147557999822,1784.9402112999817,1786.4551946999854,1791.473541399988,1792.21561080002,1792.2156155999985,1793.7327011000016,1794.750149599975,w,24,0.7420694000320509,0,+0,346,-15.098214659692765,0.3112078075656317,-0.2118295740696201,1781808.0,2.1804797819466586,0.3714496956376472,0.2840015952113726,1785341.0,,,,,1786.4535924131276,1782.9205924131277,
124,62,21,m,1,3,116.0,2,1,high,7 - 1 + 1 + 9 - 1,15,15,14,13,1796.2668398999958,1798.2937401999952,1799.808726899966,1804.827167999989,1806.663704400009,1806.6637095999904,1808.181279600016,1809.198881899996,q,15,1.8365364000201223,1,+10,356,6.235300932430093,0.1668907889087432,0.1196980508690686,1795160.0,-29.332970174248473,-0.34479659674168417,-1.473804085735953,1798694.0,-11.739182468550823,-0.268922741972192,-4.755888970632075,2180294.0,1799.8065924131276,1796.2725924131278,2181.406592413128
125,62,21,m,1,3,117.0,3,4,high,5 + 7 - 4 + 8 + 6,22,22,23,24,1810.715659599984,1812.7394719999863,1814.2546184000091,1819.2731529999876,1821.1915715999785,1821.191576800018,1822.708085099992,1823.7249673000188,e,24,1.918418599991128,0,+0,356,0.7925193466218605,0.7750590592811726,0.26649056014786954,1809606.0,-20.96873598604669,-0.2879341337824597,0.14659292530893175,1813140.0,,,,,1814.2525924131278,1810.7185924131277,
126,62,21,m,1,3,118.0,4,2,low,3 + 1 + 8 - 5 - 1,6,7,5,6,1825.2424335000103,1827.270324299985,1828.785637199995,1833.804304099991,1834.343568600016,1834.3435738999976,1835.860510499973,1836.8776663999888,w,5,0.5392645000247285,0,+0,356,14.47468874918708,0.34261985577426923,0.13691933216816454,1824136.0,-16.668029879310495,0.16735623917032605,0.019424475531865326,1827671.0,,,,,1828.7835924131277,1825.2485924131277,
127,62,21,m,1,3,119.0,5,4,high,6 + 7 + 9 - 3 + 5,24,22,24,23,1838.3950097999768,1840.4220071000163,1841.9373599999817,1846.95599420002,1847.631650700001,1847.6316559999832,1849.148115999997,1850.1651772999903,w,24,0.6756564999814145,1,+10,366,9.966854943628647,-0.09086620596377948,0.0011609117749573628,1837289.0,11.285421820081726,-0.07447487829411159,-0.0013087583406798942,1840823.0,,,,,1841.9355924131278,1838.4015924131277,
128,62,21,m,1,3,120.0,6,2,low,6 + 1 + 1 + 7 - 9,6,6,4,8,1851.6826085000064,1853.7100372000127,1855.2252438999712,1860.2436959000188,1863.191656899988,1863.1916664000016,1864.7080025000032,1865.7246896,q,6,2.947960999968928,1,+1,367,-1.319506745819229,-3.0590955012504564,-0.07171667532380965,1850577.0,-28.264948047712057,1.1758494933222519,-0.017428653766239144,1854110.0,,,,,1855.2225924131276,1851.6895924131277,
129,62,21,m,1,3,121.0,7,1,high,3 + 1 + 1 + 9 - 1,13,13,14,12,1867.2413731999693,1869.265613699972,1870.7805722000196,1875.7998213999672,1876.271632899996,1876.271638199978,1877.7880964999783,1878.805285600014,q,13,0.4718115000287071,1,+10,377,13.630312735734943,-0.0928773885961185,0.3249196014218867,1866133.0,46.10243417396512,-0.27121628140452714,-0.03460883829514305,1869667.0,37.23980459219227,-0.9464558644461367,-0.08449856718522719,2401230.0,1870.7795924131276,1867.2455924131277,2402.342592413128
130,62,21,m,1,3,122.0,8,3,high,4 + 8 - 9 + 1 + 7,11,9,13,11,1880.3230345000047,1882.3474019999849,1883.8626857000052,1888.881090599985,1891.175596699992,1891.1756012999683,1892.6923031000188,1893.7096722999704,q,9,2.294506100006401,0,+0,377,14.764091239655784,0.11507047551407013,-0.06531216627985081,1879214.0,-38.70122948819843,-0.2835730177468898,-0.0027859714445739314,1882748.0,,,,,1883.8605924131277,1880.3265924131276,
131,62,21,m,1,3,123.0,9,2,high,8 + 1 + 9 + 1 - 5,14,14,15,13,1895.2266194999684,1897.2532907999705,1898.7684952999696,1903.786328200018,1904.7195575999797,1904.7195625000168,1906.2361803000092,1907.2538879999772,q,14,0.9332293999614194,1,+10,387,9.301347848596617,0.043115206714968046,-0.03142704365869253,1894120.0,2.908122792969479,0.8700647807647419,-0.19347407339891398,1897653.0,,,,,1898.7655924131277,1895.2325924131276,
132,62,21,m,1,3,124.0,10,1,low,7 - 1 + 8 + 1 - 1,14,14,13,12,1908.7719435999752,1910.804673000006,1912.319652999984,1917.337824799993,1918.1595253999692,1918.159530200006,1919.675968799973,1920.692777899967,e,12,0.821700599975884,0,+0,387,-2.459977585186106,1.071997362825547,-0.04935664526429817,1907671.0,17.925408685891632,0.645409202710483,-0.14588090250207975,1911205.0,24.233939732769137,0.12386942741667806,-0.13471019216010838,2496277.0,1912.3175924131276,1908.7835924131277,2497.389592413128
133,62,21,m,1,3,125.0,11,2,low,6 + 1 + 8 + 7 - 1,21,21,23,19,1922.2096497999737,1924.2379015000188,1925.7531011999815,1930.7713029999868,1931.2155197999675,1931.215525000007,1932.7319365000003,1933.7490298000048,q,21,0.4442167999804951,1,+1,388,1.3794135436372992,-0.4504696677321771,0.20848062261342148,1921104.0,14.011500919770253,-0.5282244940270466,0.14621984121427856,1924638.0,,,,,1925.7505924131276,1922.2165924131277,
134,62,21,m,1,3,126.0,12,1,low,4 + 8 + 1 - 1 - 1,11,9,11,13,1935.265957499971,1937.291783499997,1938.8070765999728,1943.8251577999908,1944.311497499992,1944.3115024999715,1945.8284919,1946.8458069000044,e,13,0.4863397000008262,0,+0,388,22.730664435724925,-0.644681329891533,0.18818296360776143,1934158.0,5.020034608390482,-0.25203200049374797,-0.3268189711773575,1937692.0,-7.632580296947154,0.2897733930330637,0.24196364974442996,2551813.0,1938.8045924131277,1935.2705924131276,2552.925592413128
135,62,21,m,1,3,127.0,13,1,high,2 + 9 + 1 + 1 + 1,14,14,13,12,1948.3632055000053,1950.3910999000072,1951.9062760000236,1956.9242355999888,1957.9514805999931,1957.9514858999755,1959.4680849,1960.4853440999868,q,14,1.0272450000047684,1,+10,398,-35.14598993880861,-0.35914742749550843,-0.1132175854704065,1947257.0,37.81651578415348,-0.5322072331910856,0.05558088924743032,1950791.0,-14.194661927843752,0.9322235912068213,0.007229689848347043,2577781.0,1951.9035924131276,1948.3695924131277,2578.893592413128
136,62,21,m,1,3,128.0,14,3,high,4 + 8 - 3 + 5 - 1,13,13,14,12,1962.0025038999736,1964.0267236999932,1965.5420784999733,1970.5602247000209,1971.623436999973,1971.623442100012,1973.1397343999704,1974.1561325999792,e,12,1.0632122999522835,0,+0,398,6.518153101125868,0.3031792909036044,-0.055157547175005206,1960893.0,-52.209065026235194,0.04668482782106498,-0.014934461308426794,1964427.0,,,,,1965.5395924131276,1962.0055924131277,
137,62,21,m,1,3,129.0,15,2,high,3 + 8 - 5 + 1 + 1,8,9,6,8,1975.6726753999828,1977.700656900008,1979.2156990999936,1984.2340750999865,1984.887387799972,1984.887393300014,1986.403935600014,1987.4220219000129,e,8,0.6533126999856904,1,+10,408,-7.14324545620817,0.37114132650934195,0.4721447745633012,1974567.0,40.01649058628152,-0.9739242885440245,-8.533112973139646,1978100.0,,,,,1979.2125924131276,1975.6795924131277,
138,62,21,m,1,3,130.0,16,3,low,6 - 1 + 7 - 8 + 9,13,11,13,12,1988.9392008999712,1990.9670665999877,1992.4828283999811,1997.5020825999677,1999.5675224000008,1999.56752729998,2001.0837416999857,2002.100844400004,e,12,2.065439800033346,0,+0,408,7.0802445615795,0.176722426516287,0.137625404800074,1987833.0,9.927984423445473,0.05018875845270543,-0.032436752397892565,1991368.0,,,,,1992.4805924131276,1988.9455924131278,
139,62,21,m,1,3,131.0,17,4,high,4 + 7 + 8 - 3 + 9,25,26,25,24,2003.6180282999997,2005.6430913999795,2007.1582942999669,2012.1776194999693,2013.431416700012,2013.431422099995,2014.9479816000091,2015.965186299989,w,25,1.2537972000427544,1,+10,418,-12.53894231237286,0.2197275447132787,0.02626185989505503,2002509.0,-3.429359470990611,-0.36092641862168273,-3.747181262478973,2006043.0,,,,,2007.1555924131276,2003.6215924131277,
140,62,21,m,1,3,132.0,18,1,high,3 + 1 + 8 + 1 + 1,14,13,16,14,2017.4818296000008,2019.508203800011,2021.0234122999827,2026.041625800019,2028.207399200008,2028.2074043999887,2029.724047399999,2030.7416123999865,w,16,2.1657733999891207,0,+0,418,20.85918044442961,0.3485598176389537,0.1014016131988722,2016374.0,16.009947506252843,0.9593787541034331,0.01814479916292333,2019908.0,-48.87836545424159,-0.5486274383417364,-0.1742188705027612,2633564.0,2021.0205924131276,2017.4865924131277,2634.6765924131278
141,62,21,m,1,3,133.0,19,4,low,6 + 5 - 7 + 8 - 9,3,4,5,3,2032.258152299968,2034.285119200009,2035.800395499973,2040.8190006000225,2042.4793775000144,2042.4793833000003,2043.995750800008,2045.0129782999863,q,4,1.6603768999921158,0,+0,418,-21.54560040412974,-0.7655770448321397,-17.36084777269007,2031151.0,-2.2050741562289105,-0.5071661252570383,-0.49610837883279446,2034685.0,,,,,2035.7975924131276,2032.2635924131278,
142,62,21,m,1,3,134.0,20,3,high,3 + 1 + 8 - 5 + 6,13,14,13,15,2046.5299839000215,2048.555448199972,2050.070705100021,2055.0899606000166,2056.375488999998,2056.37549419998,2057.892029299983,2058.9090197000187,e,15,1.2855283999815583,0,+0,418,-10.450709914392672,-0.3249967288332174,0.16247798488798493,2045421.0,4.049808920678531,-0.0626315901068768,0.10932686385581314,2048956.0,,,,,2050.068592413128,2046.5335924131277,
143,62,21,m,1,3,135.0,21,1,high,5 + 8 - 1 + 1 + 1,14,12,14,16,2060.425552600005,2062.4504774999805,2063.965710300021,2068.983669599984,2070.1034322999767,2070.103437600017,2071.619986900012,2072.637182099977,e,16,1.1197626999928616,0,+0,418,21.233766168587852,0.32305743341399396,-0.02914846340623778,2059316.0,8.195986743134185,0.48768034791486414,-0.20061496375268395,2062850.0,2.079087001055001,0.09398961150424645,0.05427937505839253,2730660.0,2063.962592413128,2060.4285924131277,2731.7725924131278
144,62,21,m,1,3,136.0,22,4,low,7 + 8 - 4 + 6 - 5,12,13,11,12,2074.1540567000047,2076.1818810999976,2077.697218800022,2082.7159113999805,2083.2954155000043,2083.2954206999857,2084.812030399975,2085.829084399971,q,13,0.5795041000237688,0,+0,418,8.99884202503269,0.17012950448134845,-0.15227937267870617,2073048.0,25.436130326910803,0.43660691754775627,-0.31924236773646153,2076582.0,,,,,2077.694592413128,2074.1605924131277,
145,62,21,m,1,3,137.0,23,3,high,3 + 8 - 7 + 1 + 9,14,12,13,14,2087.3458200999885,2089.3734641000046,2090.888703499979,2095.906998099992,2096.983351300005,2096.983356199984,2098.499710300006,2099.5167545999866,w,13,1.076353200012818,0,+0,418,-8.806595317625714,0.164329864158006,-0.36941314945525616,2086240.0,-22.71995137075261,0.13375693219234286,-0.042124969753825736,2089773.0,,,,,2090.885592413128,2087.3525924131277,
146,62,21,m,1,3,138.0,24,1,low,9 + 1 + 1 + 7 - 1,17,17,19,16,2101.0334528000094,2103.061164300016,2104.5763161000214,2109.5950769999763,2111.5833123999764,2111.583317700017,2113.1004282999784,2114.117249300005,q,17,1.9882354000001212,1,+1,419,-18.654215863634235,-0.12301893830163735,0.11927469562250015,2099927.0,-15.166863406199298,0.17225838364409096,0.06652164055343701,2103460.0,2.6448860970756236,-0.5554080557311125,-0.08019643758868389,2743644.0,2104.572592413128,2101.039592413128,2744.7565924131277
147,62,21,m,1,3,139.0,25,4,high,4 + 7 - 8 + 9 - 3,9,9,11,8,2115.634022600017,2117.6614020999987,2119.176673899987,2124.1954236999736,2124.519312999968,2124.5193182000075,2126.0354922999977,2127.0523913999787,e,8,0.3238892999943346,0,+0,419,31.155444004872322,0.505880931927642,0.08284988492742751,2114527.0,-17.01403218200088,0.1688697621921662,-0.38867835268324225,2118061.0,,,,,2119.173592413128,2115.639592413128,
148,62,21,m,1,3,140.0,26,1,low,2 + 9 + 1 + 1 + 1,14,12,13,14,2128.569179299986,2130.59568129998,2132.110968899972,2137.128766299982,2137.559355299978,2137.5593606000184,2139.0759276999743,2140.0928921999875,e,14,0.4305889999959618,1,+1,420,-27.784875389947267,0.09973457161656718,-0.17999763538024438,2127461.0,-30.130045346552244,0.3112094712803293,-0.05332610972735097,2130995.0,-21.70519986778001,-0.33888710766226193,-0.08231604991852648,2799203.0,2132.107592413128,2128.5735924131277,2800.315592413128
149,62,21,m,1,3,141.0,27,2,high,9 + 4 - 6 + 1 - 1,7,7,8,9,2141.6097893000115,2143.6373234000057,2145.152510499989,2150.170569000009,2152.295305399981,2152.2953113999683,2153.81200049998,2154.8287930000224,q,7,2.12473639997188,1,+10,430,2.7590979056969154,-0.10425357147841474,-0.00787256628714994,2140503.0,-24.923261595166657,0.0033388012379518273,0.1267915926489951,2144036.0,,,,,2145.148592413128,2141.615592413128,
150,62,21,m,1,3,142.0,28,4,high,4 + 7 - 8 + 9 - 4,8,7,8,9,2156.345965299988,2158.3741719999816,2159.8892517000204,2164.9073373000138,2166.719261599996,2166.7192666999763,2168.235650399991,2169.253231199982,w,8,1.8119242999819107,1,+10,440,-41.186059851186904,-0.5133455421905859,-7.518132506378557,2155240.0,-8.357904416871534,-0.31191009187292273,-0.5646579247188002,2158773.0,,,,,2159.885592413128,2156.3525924131277,
151,62,21,m,1,3,143.0,29,1,low,5 + 9 - 1 + 1 + 1,15,17,15,13,2170.77010959998,2172.796223399986,2174.311489399988,2179.32950729999,2179.8952420999995,2179.895247599983,2181.411710000015,2182.4286121000187,w,15,0.5657348000095226,1,+1,441,31.734522690916737,-0.05171319422979703,0.7038893387873828,2169662.0,-0.12535335162906236,0.13230822427177547,-0.3691955869378116,2173195.0,-42.27760447242851,-0.5902010618614977,-0.12032093067603489,2812284.0,2174.307592413128,2170.7745924131277,2813.396592413128
152,62,21,m,1,3,144.0,30,4,low,3 + 9 - 5 + 6 + 8,21,23,21,22,2183.94530099997,2185.9730437999824,2187.48822270002,2192.506625999988,2192.799224800023,2192.7992295000004,2194.316191699996,2195.333334199968,e,22,0.2925988000351935,0,+0,441,-5.2490223618319565,0.18565629988011878,-0.46964914489166043,2182839.0,38.46608256501722,0.44698841885612683,0.6310482282694747,2186372.0,,,,,2187.4845924131278,2183.951592413128,
153,62,21,m,1,3,145.0,31,2,high,9 + 4 + 5 + 1 - 1,18,19,17,18,2196.849732299976,2198.8750841,2200.390337000019,2205.408186900022,2207.135336200008,2207.135341199988,2208.65185949998,2209.669915299979,q,19,1.7271492999861948,0,+0,441,-21.838805157763197,0.22001658746846697,0.7788466577199236,2195740.0,35.66294112834192,0.3848449107219256,-0.6590404884877192,2199274.0,,,,,2200.386592413128,2196.8525924131277,
154,62,21,m,1,3,146.0,32,3,low,5 + 6 - 4 - 1 + 7,13,13,15,14,2211.186960799969,2213.2137030999875,2214.7288846999872,2219.7472446999745,2220.263233900012,2220.2632385999896,2221.779666199989,2222.797008799971,e,14,0.5159892000374384,0,+0,441,12.858661871364447,0.27336570577064645,6.0907161244542,2210079.0,-4.52607920625959,-0.5362001778577135,0.019072982972957675,2213613.0,,,,,2214.7255924131277,2211.191592413128,
155,62,21,m,1,3,147.0,33,4,low,6 + 9 + 7 - 3 - 5,14,14,15,13,2224.313865199976,2226.3419219999923,2227.8571339999908,2232.87564579997,2233.183222200023,2233.183227500005,2234.6994997999864,2235.71635469998,w,15,0.3075764000532217,0,+0,441,8.49481561884625,-0.06333258642136119,0.2656572526522907,2223207.0,10.994871159900466,-0.6023841111310704,-11.019538978533252,2226741.0,,,,,2227.853592413128,2224.319592413128,
156,62,21,m,1,3,148.0,34,4,low,8 + 3 - 4 + 5 + 9,21,23,22,21,2237.233027599985,2239.258039099979,2240.773248500016,2245.792077799968,2246.135260700016,2246.1352655999945,2247.651758200024,2248.669290799997,e,21,0.3431829000473954,1,+1,442,0.972613257755147,0.29897942471948413,-0.027452035036329203,2236123.0,11.769690697579053,0.8808724015848557,0.13749017776396366,2239657.0,,,,,2240.769592413128,2237.235592413128,
157,62,21,m,1,3,149.0,35,4,low,7 + 6 - 9 + 8 - 3,9,8,7,9,2250.1857512000133,2252.212946499989,2253.728117699968,2258.747331099992,2259.1432323000045,2259.143237399985,2260.65998940001,2261.677650099969,e,9,0.3959012000123039,1,+1,443,9.007111698239179,0.5708543769913987,-0.288093082214568,2249078.0,4.9071941654621565,-0.2462600124662888,-0.040473497116585655,2252612.0,,,,,2253.724592413128,2250.190592413128,
158,62,21,m,1,3,150.0,36,3,low,6 + 8 + 7 + 1 - 9,13,15,13,14,2263.194001899974,2265.2207633000216,2266.735861199966,2271.7544711999944,2272.1031873999746,2272.1031924000126,2273.619694599998,2274.63676590001,e,14,0.3487161999801174,0,+0,443,-8.885735818794778,-0.25896676514696715,-0.34448370087221614,2262086.0,18.559752653431403,0.08364354972384636,0.14721054567963465,2265620.0,,,,,2266.732592413128,2263.1985924131277,
159,62,21,m,1,3,151.0,37,2,low,2 + 1 + 9 - 4 + 1,9,9,11,8,2276.1546891999897,2278.1809601999703,2279.696061900002,2284.7160222000093,2285.463173899974,2285.4631792000146,2286.979980700009,2287.9968725999934,e,8,0.7471516999648884,0,+0,443,-9.127847882423769,0.5301729292453441,-0.07059298159029903,2275046.0,-6.470389276432485,-0.7778395039641293,0.2002362434631204,2278581.0,,,,,2279.693592413128,2276.1585924131277,
160,62,21,m,1,4,152.0,0,4,low,3 + 9 - 5 + 8 - 7,8,9,7,8,2293.6588130000164,2295.6855943999835,2297.2016504000057,2302.220247399993,2302.591153800022,2302.5911592000048,2304.1077874000184,2305.1245493000024,e,8,0.3709064000286162,1,+1,444,3.8455853562578195,0.5018963046526581,-1.1749372880118392,2292551.0,0.19019399327852327,-0.35967448178705563,-0.27101466344106884,2296086.0,,,,,2297.1985924131277,2293.663592413128,
161,62,21,m,1,4,153.0,1,1,high,7 + 1 + 4 + 1 - 1,12,13,12,14,2306.6415174999856,2308.666571000009,2310.181818299985,2315.201568999968,2317.9830740999896,2317.983079699974,2319.4999362999806,2320.517603699991,q,13,2.7815051000216044,0,+0,444,16.778683487249346,0.39805384476870653,-0.0362535111773874,2305532.0,22.365156210674968,0.513149559308697,-0.15077222774510401,2309067.0,,,,,2310.179592413128,2306.644592413128,
162,62,21,m,1,4,154.0,2,3,low,6 + 1 + 8 + 7 - 9,13,14,15,13,2322.0343367999885,2324.059011199977,2325.574281600013,2330.592483100016,2331.527108500013,2331.5271135999938,2333.0435618999763,2334.0604700999684,q,14,0.934625399997458,0,+0,444,8.331383048205065,0.06635737324597102,5.415864010034003,2320924.0,-51.51651690056724,0.1348896383431688,-0.5485309866547285,2324458.0,,,,,2325.570592413128,2322.036592413128,
163,62,21,m,1,4,155.0,3,3,low,9 - 5 - 1 - 6 + 8,5,4,7,5,2335.5773987,2337.603468700021,2339.11865780002,2344.1368620999856,2345.239046700008,2345.23905199999,2346.7555345,2347.772518999991,e,5,1.1021846000221558,1,+1,445,12.65654792462541,-0.14465291109502054,-0.06318178546850639,2334468.0,2.2592410693212486,-0.5232885390638051,0.47008415226208333,2338002.0,,,,,2339.114592413128,2335.5805924131278,
164,62,21,m,1,4,156.0,4,4,low,7 + 6 + 8 - 4 + 5,22,23,22,21,2349.289060899988,2351.315449599992,2352.8307245000037,2357.8492460999987,2358.9830815999885,2358.9830865999684,2360.4996715000016,2361.5169325000024,w,22,1.1338354999898002,1,+1,446,-7.469234575854321,0.03317978088295792,-4.095077608002086,2348180.0,-20.917517033422577,-0.14707967320009852,-0.2555368446340016,2351714.0,,,,,2352.826592413128,2349.2925924131277,
165,62,21,m,1,4,157.0,5,4,high,7 + 6 - 4 + 9 - 5,13,13,14,12,2363.0340160999917,2365.060090899992,2366.575031800021,2371.594977299974,2373.30318290001,2373.3031880999915,2374.820280899992,2375.837502999988,q,13,1.7082056000363082,1,+10,456,23.455653611329975,0.3722477920659837,1.3056984464048158,2361925.0,4.390633118563905,0.3932680277504419,0.05118880271285331,2365460.0,,,,,2366.572592413128,2363.037592413128,
166,62,21,m,1,4,158.0,6,2,high,2 + 9 - 4 + 1 + 1,9,9,11,8,2377.353763299994,2379.3816027999856,2380.896761399985,2385.915155399998,2387.7510504999664,2387.751055300003,2389.267791100021,2390.285116399988,q,9,1.835895099968184,1,+10,466,-11.167602155559706,0.36671476323926466,0.13090311618929884,2376246.0,11.643878636692225,0.16288528153185267,-0.1869294490383946,2379780.0,,,,,2380.892592413128,2377.358592413128,
167,62,21,m,1,4,159.0,7,1,high,3 + 1 + 9 + 1 + 1,15,14,17,15,2391.8018909000093,2393.827635399997,2395.3428710000007,2400.361711299978,2400.8309809999773,2400.8309860000154,2402.347681400017,2403.364949400013,e,15,0.4692696999991312,1,+10,476,6.451291810559194,0.23479939859335985,0.24503792887937692,2390692.0,-3.438449058531063,0.13644798131714397,0.08235926038809849,2394227.0,,,,,2395.339592413128,2391.804592413128,
168,62,21,m,1,4,160.0,8,2,high,3 - 1 + 9 - 5 + 1,7,6,7,5,2404.882015399984,2406.910543199978,2408.425730899966,2413.4437026000232,2414.7350334000075,2414.735038499988,2416.2514827999985,2417.268710799981,q,6,1.29133079998428,0,+0,476,-33.95885449963094,0.22188631716145757,0.048668067932677195,2403775.0,7.259393059693289,-0.11203366255309266,0.06034444086939139,2407309.0,,,,,2408.421592413128,2404.887592413128,
169,62,21,m,1,4,161.0,9,4,high,5 + 8 - 6 + 7 + 4,18,17,19,18,2418.7857061999966,2420.812621499994,2422.327889100008,2427.347093400021,2428.415022399975,2428.415027500014,2429.9321762999757,2430.9494156999863,e,18,1.0679289999534376,1,+10,486,-16.769421885199197,0.32780960619586086,0.06928043766096326,2417677.0,15.377290187778414,0.8100711298975742,-0.03072404875979373,2421212.0,,,,,2422.324592413128,2418.789592413128,
170,62,21,m,1,4,162.0,10,3,low,2 + 1 + 9 - 5 + 6,13,13,14,11,2432.466202199983,2434.491377700004,2436.0066378000192,2441.02497660002,2441.3909999000025,2441.3910047999816,2442.9232039999915,2443.9421750999754,w,14,0.3660232999827713,0,+0,486,-21.497219786697656,0.391221272662853,-0.012940539297429776,2431355.0,27.7736523805056,-0.28608497571581104,0.05817011977865061,2434890.0,,,,,2436.002592413128,2432.467592413128,
171,62,21,m,1,4,163.0,11,2,low,6 + 1 + 7 + 5 - 1,18,17,18,16,2445.4592562000034,2447.486682199989,2449.0017031999887,2454.020408899989,2454.9830504999845,2454.9830557999667,2456.499734400015,2457.5169504000223,q,17,0.9626415999955498,0,+0,486,-3.109456110796007,5.6430116750814605,0.5220958425036564,2444351.0,-0.11545199057932543,-0.680556731976603,-0.0881654037532753,2447885.0,,,,,2448.997592413128,2445.463592413128,
172,62,21,m,1,4,164.0,12,4,high,8 + 7 - 4 + 5 + 9,25,25,24,26,2459.033605900011,2461.059246699966,2462.5743191000074,2467.5944539000047,2468.8548973000143,2468.854901999992,2470.3714451999986,2471.3884906999883,q,25,1.2604434000095353,1,+10,496,-10.877042368076545,-0.46342900323528413,-0.06586957322400067,2457924.0,-38.535685558362395,0.042919129601674655,-0.5894251105587691,2461459.0,,,,,2462.5715924131277,2459.036592413128,
173,62,21,m,1,4,165.0,13,4,low,3 + 8 - 4 + 9 + 7,23,22,23,24,2472.905195500003,2474.932094799995,2476.447164000012,2481.4660690000164,2482.750963600003,2482.750968599983,2484.267662999977,2485.285316499998,e,24,1.2848945999867285,0,+0,496,-8.830066168254874,-0.14272923346972988,-0.2759562563091347,2471796.0,-1.8214509714463993,0.26129088374583676,0.11849362050934475,2475330.0,,,,,2476.442592413128,2472.9085924131277,
174,62,21,m,1,4,166.0,14,1,low,8 - 1 + 1 + 6 + 1,15,15,16,14,2486.8020336999907,2488.827927500009,2490.343687799992,2495.362117399985,2495.8790596000035,2495.8790652999887,2497.395339699986,2498.4124159999774,q,15,0.516942200018093,1,+1,497,4.298622785491318,-0.08977818313674168,0.16057412681371974,2485693.0,15.284210464356864,-0.15328858033347714,-0.022429883032433207,2489227.0,,,,,2490.339592413128,2486.805592413128,
175,62,21,m,1,4,167.0,15,4,high,7 + 8 - 4 + 6 + 5,22,21,22,23,2499.928941400023,2501.9570391000016,2503.472060400003,2508.490524299966,2509.182902999979,2509.18290830002,2510.6998987999978,2511.717216899968,w,22,0.6923787000123411,1,+10,507,19.06551849496036,-0.008375903517185534,0.1557022745347154,2498821.0,-5.836025853518876,0.14597153998793688,0.048258265853585725,2502355.0,,,,,2503.467592413128,2499.933592413128,
176,62,21,m,1,4,168.0,16,4,low,4 + 7 + 8 - 3 + 9,25,26,25,24,2513.2339996999945,2515.259620999976,2516.775046799972,2521.7936112000025,2522.8468739999807,2522.846879300021,2524.36326090002,2525.3808266000124,q,26,1.0532627999782562,0,+0,507,-15.102439565587911,0.11679721108242136,0.040546063840828594,2512124.0,11.004450936830589,-0.11713868921890569,0.07167174846266922,2515658.0,,,,,2516.770592413128,2513.2365924131277,
177,62,21,m,1,4,169.0,17,3,high,8 + 3 + 1 - 7 + 9,14,12,15,14,2526.897674900014,2528.925037899986,2530.440066099982,2535.45864289999,2537.086900299997,2537.086905299977,2538.603423399967,2539.620688800001,e,14,1.6282574000069872,1,+10,517,-13.38944212327863,0.6435106524090826,0.8325212367057568,2525789.0,-31.85456111695618,-0.6249343484906205,-1.8193763333116095,2529323.0,,,,,2530.435592413128,2526.901592413128,
178,62,21,m,1,4,170.0,18,1,low,6 + 9 + 1 + 1 - 1,16,15,14,16,2541.137541599979,2543.164886099985,2544.6806041999957,2549.698454199999,2551.414856599993,2551.4148617999745,2552.9317515,2553.9489536000183,e,16,1.7164023999939673,1,+1,518,-23.864859380983177,0.13646723349949896,-0.1722920345462473,2540029.0,14.68159010981155,0.3647352844711014,0.06103296912635159,2543563.0,,,,,2544.675592413128,2541.141592413128,
179,62,21,m,1,4,171.0,19,3,low,2 + 9 + 1 - 5 + 7,14,15,14,12,2555.4657567999675,2557.492961000011,2559.007919800002,2564.0337355000083,2564.326892699988,2564.326897300023,2565.843322400004,2566.8605195999844,q,15,0.2931571999797597,0,+0,518,10.28295134639596,-0.15999976674627403,0.1232614548331119,2554357.0,1.0875083081305394,-0.06466367238184656,0.981060335651728,2557898.0,,,,,2559.010592413128,2555.469592413128,
180,62,21,m,1,4,172.0,20,1,high,5 + 1 + 1 + 9 + 1,17,19,16,17,2568.377232700004,2570.401226599992,2571.9164638000075,2576.9337164000026,2577.382930599968,2577.3829359000083,2578.8995132999844,2579.916918999981,e,17,0.449214199965354,1,+10,528,-47.79239055141238,0.09726433990767869,-1.2416626044347598,2567265.0,10.062712250732531,-0.1028350706802037,-0.2625236574852263,2570798.0,,,,,2571.9105924131277,2568.377592413128,
181,62,21,m,1,4,173.0,21,2,high,8 + 1 + 9 + 1 - 4,15,14,15,16,2581.4337878000224,2583.4598083000164,2584.974971699994,2589.993343500013,2590.52705829998,2590.527063800022,2592.044058099971,2593.0614405000238,w,15,0.5337147999671288,1,+10,538,11.581554192676393,0.637333771516627,0.11342496289248971,2580323.0,17.430810253062308,-0.6950117756969383,0.01925413655416164,2583857.0,,,,,2584.969592413128,2581.435592413128,
182,62,21,m,1,4,174.0,22,3,low,5 + 6 + 7 - 1 - 9,8,8,9,7,2594.578717599972,2596.6065108000184,2598.1217444000067,2603.140486899996,2606.486817999976,2606.486823000014,2608.003208099981,2609.020091000013,q,8,3.3463310999795794,1,+1,539,25.223658812882398,-0.25056032084580426,0.8247043577330322,2593470.0,-31.81746031345778,0.1366799173401243,0.1235406090708735,2597004.0,,,,,2598.116592413128,2594.5825924131277,
183,62,21,m,1,4,175.0,23,3,high,5 - 1 - 4 + 6 + 7,13,15,13,14,2610.5369955999777,2612.558949299972,2614.073292899993,2619.092610599997,2619.4708191999816,2619.470824400021,2620.98761880002,2622.003948399972,w,13,0.3782085999846458,1,+10,549,0.5393086100519433,0.24260279105903004,-0.23340453240537506,2609423.0,-26.083600479845494,0.3773756782587925,0.0407659863989398,2612957.0,,,,,2614.069592413128,2610.5355924131277,
184,62,21,m,1,4,176.0,24,1,low,4 + 1 + 1 + 7 - 1,12,13,12,14,2623.520760599989,2625.544325099967,2627.05917209998,2632.0778753000195,2633.166849499976,2633.166854800016,2634.68345349998,2635.700233899988,w,12,1.088974199956283,1,+1,550,-4.554193479451243,0.007499914348742642,0.4365017405522531,2622408.0,10.78352341310039,-3.2790313220695047,-7.295604687071266,2625942.0,,,,,2627.054592413128,2623.520592413128,
185,62,21,m,1,4,177.0,25,4,low,5 + 7 - 4 - 6 + 9,11,11,12,13,2637.217069300008,2639.243444799969,2640.7586043999763,2645.777523699973,2647.3268542999867,2647.326859499968,2648.843122799997,2649.887780399993,w,12,1.5493306000134908,0,+0,550,-5.665605696598186,1.2153841448813028,4.891580251389532,2636107.0,4.981332007017415,-0.6187163619575116,-0.2403008481971125,2639641.0,,,,,2640.753592413128,2637.219592413128,
186,62,21,m,1,4,178.0,26,4,high,5 + 7 - 4 + 6 + 9,23,23,24,25,2651.404119300016,2653.431317300012,2654.946347899968,2659.9647884999868,2660.9508358999738,2660.9508411000133,2662.467512400006,2663.497414099984,w,24,0.986047399987001,0,+0,550,-2.407978270519031,0.14253074771202723,0.454897775744735,2650295.0,8.386059382727545,-0.3467895278713171,-0.06308329354684439,2653829.0,,,,,2654.941592413128,2651.407592413128,
187,62,21,m,1,4,179.0,27,4,high,9 + 3 - 5 + 8 + 6,21,21,19,23,2665.0147452999954,2667.0366421000217,2668.5518576999893,2673.570019899984,2675.0867590999696,2675.08676440001,2676.6032765000127,2677.6204363,q,21,1.51673919998575,1,+10,560,-5.5028361154950405,-0.07653760825302802,-0.08754035285315043,2663900.0,3.5895150726927003,-0.15663457082279786,-0.02716895990765744,2667434.0,,,,,2668.546592413128,2665.012592413128,
188,62,21,m,1,4,180.0,28,3,high,8 + 5 + 1 - 7 + 9,16,14,17,16,2679.1372771000024,2681.1596728999866,2682.674983899982,2687.693387900013,2689.374735999969,2689.3747408000054,2690.8912449000054,2691.908041800023,e,16,1.6813480999553576,1,+10,570,25.329495726198928,0.4523389039222412,-0.05622799455397276,2678023.0,6.05955747772183,-0.13019306181378942,-0.049769442270126696,2681557.0,,,,,2682.6695924131277,2679.135592413128,
189,62,21,m,1,4,181.0,29,3,low,6 - 1 + 7 - 8 + 9,13,12,11,13,2693.425143999979,2695.45155659999,2696.9669122999767,2702.035884700017,2703.142742600001,2703.142747999984,2704.659254600003,2705.688050500001,q,12,1.1068578999838792,0,+0,570,5.490311844970736,0.12054948127007359,-0.004035395006111386,2692315.0,11.944564942428492,0.007674241489729283,0.1430033767229455,2695899.0,,,,,2697.011592413128,2693.427592413128,
190,62,21,m,1,4,182.0,30,2,high,7 + 5 + 1 + 9 + 1,23,21,23,22,2707.2047369999927,2709.23182549997,2710.747194199997,2715.7660975999897,2717.2387154999888,2717.238721199974,2718.755367100006,2719.772792299977,e,22,1.4726178999990225,0,+0,570,-5.783737128390708,0.7840574490067151,-0.09254646713011683,2706095.0,2.771788111870766,0.16256805367042348,-0.061738502763931,2709630.0,,,,,2710.742592413128,2707.2075924131277,
191,62,21,m,1,4,183.0,31,1,low,7 - 1 + 9 + 1 - 1,15,15,14,13,2721.289554600022,2723.3168924999773,2724.8318628999987,2729.8513003999838,2730.2627193999942,2730.262724599976,2731.7793128999765,2732.7962331000017,q,15,0.4114190000109374,1,+1,571,42.124621628244725,-0.04667792523873304,-0.027489514596335418,2720180.0,-3.7684054643633953,-1.4108625263203676,-5.699949417666424,2723714.0,,,,,2724.826592413128,2721.2925924131277,
192,62,21,m,1,4,184.0,32,1,high,7 + 1 + 6 + 1 + 1,16,17,16,18,2734.312889299996,2736.3405536999926,2737.855804599996,2742.8739755999995,2743.246732199972,2743.246740999981,2744.7630517000216,2745.7803751999745,w,16,0.3727565999724902,1,+10,581,-6.015324098060601,0.1491125523689667,-0.05970989579200703,2733204.0,1.468401523326964,-0.06894997724778928,0.10934838787899492,2736737.0,,,,,2737.849592413128,2734.316592413128,
193,62,21,m,1,4,185.0,33,3,high,4 + 5 - 3 + 7 - 1,12,12,13,11,2747.2964479000075,2749.321696900006,2750.836553299974,2755.854957600008,2758.4466492999927,2758.446654199972,2759.9630935000023,2760.9801431000237,q,12,2.591691699984949,1,+10,591,-4.369736408375378,0.42228013505535555,-0.0847312528683779,2746185.0,33.70813270291114,0.09336970573474446,0.0836828494441284,2749718.0,,,,,2750.8305924131278,2747.297592413128,
194,62,21,m,1,4,186.0,34,2,high,4 + 9 - 7 + 1 - 1,6,6,8,5,2762.497519999976,2764.524316099996,2766.039415600011,2771.05800379999,2771.8626676999847,2771.862672800024,2773.379185899976,2774.396662199986,q,6,0.8046638999949209,1,+10,601,19.852419599945637,-0.13388039780946226,0.013155226626822003,2761388.0,11.811767646832187,0.29584290342001207,0.0012677923374155853,2764921.0,,,,,2766.0335924131277,2762.500592413128,
195,62,21,m,1,4,187.0,35,4,high,8 + 4 + 7 - 5 - 6,8,6,9,8,2775.913909199997,2777.9404275999987,2779.455382300017,2784.4738767999806,2785.0786572999787,2785.078662400017,2786.595907300012,2787.613170799974,e,8,0.6047804999980144,1,+10,611,-7.728283608018901,-0.1976183484357037,-0.16727400382612467,2774804.0,0.5297438336381743,-0.1389291366369596,0.02179880318263172,2778337.0,,,,,2779.449592413128,2775.916592413128,
196,62,21,m,1,4,188.0,36,1,low,9 + 8 + 1 + 1 - 1,18,18,17,20,2789.1297354999697,2791.1572121999925,2792.6725054999697,2797.6908527999767,2798.806675300002,2798.8066803999827,2800.3232883000164,2801.340049199993,q,18,1.115822500025388,1,+1,612,-47.03478761430232,-0.6267334837553662,0.01369501536834905,2788020.0,3.015858178172569,-0.03634255567019773,-0.06816347728783922,2791554.0,,,,,2792.666592413128,2789.132592413128,
197,62,21,m,1,4,189.0,37,1,high,3 + 1 + 8 + 1 + 1,14,14,12,13,2802.857366900018,2804.8832155999844,2806.398201700009,2811.417428000015,2811.886621500016,2811.886626599997,2813.4034889999893,2814.421030999976,q,14,0.4691935000009835,1,+10,622,7.262891052343846,0.1962595337200952,-0.009263060896106845,2801746.0,-83.08314642235047,0.07689620963787203,-0.010578209016509854,2805280.0,,,,,2806.392592413128,2802.858592413128,
