,id,age,sex,cued,block,trial,trialinblock,efflev,rewlev,calc,corAns,option1,option2,option3,tstart,ITI1Time,probTime,respTime,selectTime,ITI2Time,fbTime,ITI3Time,key_press,chosenAns,RT,acc,feedback,total_points,cuescr,cuecor,cuezyg,cuetime,probscr,probcor,probzyg,probtime,fbscr,fbcor,fbzyg,fbtime,probtime_c,cuetime_c,fbtime_c
0,63,23,F,0,Practice,,0,1,0,4 + 1 + 9 + 1 + 1,16,15,16,14,21.41557670000475,,21.415579100023024,26.54278110002633,28.17187700001523,28.171883400005758,29.689049499982502,30.71033030003309,q,15.0,1.6290958999888971,0,Incorrect,0,,,,,19.06546938747294,0.9183804149203372,0.11081070606961685,19734.0,-13.86982732556999,0.4444275800630759,0.6167908211750612,27902.0,21.529432683507814,,29.697432683507813
1,63,23,F,0,Practice,,1,1,0,3 + 1 + 1 + 8 - 1,12,11,12,10,32.22704680002062,,32.22705079999287,37.24808150000172,38.46776889998,38.4677759000333,39.98447369999485,41.00290010002209,w,12.0,1.2196873999782838,1,Correct,0,,,,,25.99246199160305,-0.05105727373826685,0.08750598655171604,30439.0,21.250843533511038,-0.7872639592563422,-0.2448824350993215,38194.0,32.23443268350781,,39.989432683507815
2,63,23,F,0,Practice,,2,2,0,8 + 1 + 6 + 1 - 4,12,12,10,11,42.52073340001516,,42.52074559999164,47.54010079998989,48.72372060001362,48.72372720000567,50.24083249998512,51.259183200018015,q,12.0,1.1836198000237346,1,Correct,0,,,,,-17.03180582796174,0.24298816112927923,0.12674916500655886,40731.0,2.2922512259175036,-0.5018508345635837,0.4553613479694749,48450.0,42.526432683507814,,50.245432683507815
3,63,23,F,0,Practice,,3,2,0,9 + 4 - 6 + 1 - 1,7,5,6,7,52.77659229998244,,52.77659570000833,57.79700610000873,59.779638900014106,59.77964670001529,61.29624049999984,62.31344430003082,e,7.0,1.9826328000053763,1,Correct,0,,,,,-31.44215413119492,0.6595787151081893,-0.5121625580857225,50988.0,-35.43101385866797,-3.340645587192583,-0.12730093093140704,59504.0,52.78343268350781,,61.29943268350781
4,63,23,F,0,Practice,,4,3,0,9 + 3 - 5 + 6 + 7,20,21,20,22,63.83031210000627,,63.8303159000352,68.84924280003179,70.37182210001629,70.37182870000834,71.88899960002163,72.9059781000251,w,20.0,1.5225792999844998,1,Correct,0,,,,,-47.645562206606165,-0.8033781894089032,0.28605370213716563,62040.0,-13.905534304948024,-14.87980579391446,0.5725318736349996,70097.0,63.83543268350781,,71.8924326835078
5,63,23,F,0,Practice,,5,3,0,2 + 1 + 9 - 7 + 6,11,11,9,10,74.42353259999072,,74.4235363000189,79.44285910000326,82.5318442999851,82.53185070003383,84.04925260000164,85.06699259998277,q,11.0,3.0889851999818347,1,Correct,0,,,,,8.251109006699814,-4.176411274737382,-1.492500949138968,72634.0,-0.9833111515006365,-1.5691366540817713,-0.12481647271547525,82258.0,74.42943268350781,,84.05343268350781
6,63,23,F,0,Practice,,6,4,0,4 + 8 + 5 - 3 + 7,21,21,23,22,86.58402650000062,,86.58403010002803,91.60511290002614,94.955660000036,94.95566650002728,96.47270149999532,97.49103440000908,q,21.0,3.3505471000098623,1,Correct,0,,,,,33.04628935069785,1.016071997983512,-0.04133399382475167,84796.0,-0.8277971777090531,-1.8312083692316419,0.036436416163079244,94682.0,86.59143268350782,,96.47743268350781
7,63,23,F,0,Practice,,7,4,0,5 + 8 - 4 + 6 + 9,24,23,24,22,99.0083159999922,,99.00832060002722,104.0281704000081,107.61970739997923,107.61971639998956,109.13645560003351,110.15461179998238,e,22.0,3.59153699997114,0,Incorrect,0,,,,,29.756474893083542,-0.8212680311122105,0.26332433302806724,97219.0,-3.3102643165207297,9.666757560566019,0.7262554175227152,107345.0,99.0144326835078,,109.14043268350781
8,63,23,F,1,0,0.0,0,1,low,3 + 1 + 8 + 1 + 1,14,13,14,12,143.07325880002463,145.10027420002734,146.6150695999968,151.63342710002323,152.64927220001118,152.64927779999562,154.16595210001103,155.18327280000085,q,13.0,1.0158450999879278,0,+0,0,-34.00530648124273,-8.684254666198282,0.3654908048954373,141291.0,-10.72142361614514,9.052058715303392,0.11222334323357952,144824.0,27.82164723525428,7.719111999865522,0.18407832411061031,152374.0,146.61943268350782,143.0864326835078,154.1694326835078
9,63,23,F,1,0,1.0,1,2,low,5 + 9 - 8 + 1 + 1,8,7,9,8,156.69987890002085,158.72761519998312,160.24257420003414,165.26188870001351,167.87332750001224,167.87333410000429,169.38997339998605,170.40736549999565,w,9.0,2.611438799998723,0,+0,0,-4.383190952457298,19.549741147651364,0.21489431475552268,154918.0,-6.22920402203904,-21.80548455393877,0.05366208232042169,158453.0,-5.10098450587808,-1.0235198301094357,0.4874375657765637,167598.0,160.24843268350781,156.71343268350782,169.39343268350783
10,63,23,F,1,0,2.0,2,2,high,8 + 1 + 9 + 1 - 4,15,14,16,15,171.9241985999979,173.95930350001436,175.47454189998098,180.49253970000427,184.22524130000969,184.2252468999941,185.7417673000018,186.7590544000268,e,15.0,3.732701600005385,1,+10,10,0.6980756323567405,0.19651639907612228,0.07073718576966659,170150.0,-0.1454247259162731,-0.6370040980850256,-0.22077300344332773,173683.0,2.6561852383345794,-1.4597506067360504,0.4363236598174094,298885.0,175.4784326835078,171.94543268350782,300.6804326835078
11,63,23,F,1,0,3.0,3,3,high,6 + 8 + 7 + 1 - 9,13,15,14,13,188.27603000000815,190.30899930000305,191.8247905999888,196.84337180003055,198.1052242000005,198.10523049999028,199.6218033999903,200.6391569999978,e,13.0,1.2618523999699391,1,+10,20,-11.004911714052987,0.32898623817154515,0.3777737618652375,186499.0,4.718986668330675,-0.11471611464401299,0.19808518274390696,190034.0,8.80511379918975,-1.7529080566911404,0.6288464328632908,398852.0,191.8294326835078,188.2944326835078,400.64743268350776
12,63,23,F,1,0,4.0,4,4,low,2 + 9 - 6 + 8 - 4,9,11,7,9,202.15588510001544,204.19032589998096,205.70519780000905,210.7241038000211,211.83319959999065,211.8332055999781,213.3500165999867,214.36697490001097,e,9.0,1.1090957999695092,1,+1,21,-18.56980606049307,0.6915090825987198,-0.07098001237819362,200380.0,-7.169517173869543,-0.9409440684208512,0.377148769473473,203914.0,11.917545513734073,-0.1818542411759969,0.6805050973176336,343108.0,205.7094326835078,202.1754326835078,344.9034326835078
13,63,23,F,1,0,5.0,5,3,low,7 - 5 + 9 + 1 - 4,8,7,9,8,215.88377309998032,217.9119888999849,219.42716900003143,224.4456431000144,225.61727789998983,225.6172834000317,227.1339871999808,228.15096669999184,e,8.0,1.1716347999754362,1,+1,22,-16.609797024299457,0.16559505516118556,0.12160194472237329,214102.0,-18.62500576532801,-0.6680523210576901,0.08414291569477772,217636.0,6.5307929985110285,0.4839773235202207,-0.1036764228881002,888347.0,219.4314326835078,215.89743268350782,890.1424326835078
14,63,23,F,1,0,6.0,6,2,low,5 - 8 + 7 + 1 + 1,6,6,7,8,229.66775490000143,231.6931229000329,233.20847680000588,238.2287959000096,239.2892110000248,239.2892170000123,240.80631790001644,241.8229810000048,q,6.0,1.0604151000152342,1,+1,23,1.8256634703878518,0.09267074548238075,-0.5430894303585334,227883.0,-9.895933431459824,0.68059100118702,0.032022437589739106,231419.0,-19.104233969372856,-0.9565420501293653,0.2066385295209081,1644398.0,233.21443268350782,229.67843268350782,1646.1934326835078
15,63,23,F,1,0,7.0,7,2,low,9 + 5 - 6 + 1 - 1,8,8,7,9,243.3397762000095,245.36315089999695,246.8772486000089,251.8956666000304,253.2891920999973,253.28919799998403,254.80657650000649,255.82346019998656,q,8.0,1.3935254999669269,1,+1,24,78.96089988503171,0.41577997490366414,0.05728099868675818,241553.0,13.141807042049246,0.19261742533636905,0.18955385557379456,245086.0,5.871725035663147,-0.10345319271504394,0.6649509363132817,2364843.0,246.88143268350782,243.3484326835078,2366.6384326835077
16,63,23,F,1,0,8.0,8,4,high,4 + 7 + 9 - 5 + 7,22,22,24,23,257.3402305000345,259.3784216000349,260.8934487000224,265.91199220001,270.9300192000228,270.9300216999836,272.44670169998426,273.4687370000174,,,,0,Too Slow!,24,34.870708760857525,-0.4032861155328433,-11.986269109408102,255568.0,-12.954710689937446,-0.3760888024731628,0.26880730877198866,259102.0,-2.395400690043626,-0.9264044650441345,0.31738017764182436,270659.0,260.89743268350776,257.3634326835078,272.4544326835078
17,63,23,F,1,0,9.0,9,1,high,7 + 1 + 6 + 1 + 1,16,17,18,16,274.9856008000206,277.0622056000284,278.57809279998764,283.59660160000203,284.8411464000237,284.8411526000127,286.35817229998065,287.3768860999844,e,16.0,1.2445448000216857,1,+10,34,-7.100865686840649,-1.019979629919594,0.17018426498777872,273252.0,7.173224030952794,-1.167774142862653,0.24957836211931017,276786.0,,,,,278.5814326835078,275.0474326835078,
18,63,23,F,1,0,10.0,10,2,low,8 + 1 + 1 + 9 - 4,15,16,15,14,288.8947419000324,290.9220615000231,292.4373642000137,297.4562080000178,299.1612199000083,299.161225799995,300.6782818000065,301.6955551999854,e,14.0,1.7050118999904953,0,+0,34,-19.873361086235633,-0.4702292947743212,0.34178690086567043,287112.0,14.641425580158254,0.144794833614581,0.3717099667559869,290646.0,,,,,292.4414326835078,288.9074326835078,
19,63,23,F,1,0,11.0,11,4,low,8 + 3 - 4 + 5 + 9,21,21,22,23,303.2124166000285,305.2350024000043,306.74995620001573,311.76847599999746,314.7051775000291,314.7051832000143,316.2216822000337,317.23875620000763,q,21.0,2.9367015000316314,1,+1,35,2.908664413703466,-10.65251799448146,0.09342861028604954,301425.0,11.316001848435969,2.9476459540434536,-0.2902857364435443,304958.0,,,,,306.7534326835078,303.2204326835078,
20,63,23,F,1,0,12.0,12,2,high,7 + 6 + 1 + 8 + 1,23,22,21,23,318.7555322999833,320.7816705000005,322.2969512999989,327.315443200001,328.249144100002,328.249150299991,329.7655199000146,330.7829609999899,e,23.0,0.9337009000009856,1,+10,45,15.05563380505017,-0.7781620598022121,0.2103267916326823,316971.0,-0.6097850705663204,-1.1573258038949863,-0.07957280245200993,320505.0,,,,,322.3004326835078,318.7664326835078,
21,63,23,F,1,0,13.0,13,4,high,4 + 8 + 9 - 3 + 7,25,25,24,26,332.29951620002976,334.3263466000208,335.8415455999784,340.86250370001653,343.3851366000017,343.3851422999869,344.90131980000297,345.9183442000067,w,24.0,2.522632899985183,0,+0,45,31.425489270366334,-0.9121210181436981,-0.0742800893490223,330516.0,8.826998970943835,-0.2692795755382553,0.702805538131273,334051.0,,,,,335.84643268350777,332.3114326835078,
22,63,23,F,1,0,14.0,14,3,high,4 + 8 - 9 + 1 + 7,11,13,9,11,347.4350700000068,349.45928310003364,350.9746016000281,355.99308320001,356.9611275999923,356.9611341999844,358.4777969000279,359.4951391000068,e,11.0,0.9680443999823184,1,+10,55,8.347970288287819,0.4516663304170665,0.03024509844339418,345649.0,-2.3644251691600466,4.557270796758118,-0.28826079464366217,349183.0,,,,,350.9784326835078,347.4444326835078,
23,63,23,F,1,0,15.0,15,3,low,4 + 8 - 3 + 5 - 1,13,12,14,13,361.01194060000125,363.0367407000158,364.5520351000014,369.5704477999825,370.5530583999935,370.55306409997866,372.0698361999821,373.0867168999976,e,13.0,0.9826106000109576,1,+1,56,4.759735874747623,0.2531820534368201,-0.003208778610924501,359226.0,-1.6045244926782782,-1.143008996004161,0.01468641331678322,362760.0,,,,,364.5554326835078,361.0214326835078,
24,63,23,F,1,0,16.0,16,3,high,5 - 1 - 4 + 6 + 7,13,15,14,13,374.60367899999255,376.63033479999285,378.1456177000073,383.16393969999626,384.12912090000464,384.1291265999898,385.64598490000935,386.6635202000034,e,13.0,0.9651812000083736,1,+10,66,1.7089697702784585,-0.7597086012562935,-9.192488249897298,372820.0,-5.035011869214959,0.0894696190408677,0.24927296715130032,376354.0,,,,,378.14943268350777,374.6154326835078,
25,63,23,F,1,0,17.0,17,3,low,6 - 1 + 7 - 8 + 9,13,13,12,11,388.18035179999424,390.207361000008,391.72317870002007,396.7418296000105,399.1289745999966,399.128980199981,400.64549100003205,401.6626511000213,w,12.0,2.387144999986049,0,+0,66,2.7980476311393723,-0.47010089595043736,-0.4487067362935786,386396.0,0.23893970480865212,1.7078489369905547,-0.1431498604359427,389931.0,,,,,391.72643268350777,388.1914326835078,
26,63,23,F,1,0,18.0,18,2,high,3 + 9 - 1 - 5 + 1,7,5,7,6,403.1796793999965,405.2052308000275,406.7203826000332,411.7386152999825,414.1930742000113,414.19308350002393,415.7096356999828,416.7270633000298,w,7.0,2.45445890002884,1,+10,76,-43.53066257809581,-2.8808368736414067,0.23179666168423907,401395.0,2.6624304735001667,-1.0024494791270433,0.3921319656551292,404928.0,,,,,406.7234326835078,403.19043268350777,
27,63,23,F,1,0,19.0,19,2,high,4 + 9 - 7 + 1 - 1,6,6,8,5,418.2437387999962,420.2656957000145,421.7810079000192,426.7997317999834,427.7450029000174,427.7450080999988,429.26170740003,430.2790521000279,q,6.0,0.945271100034006,1,+10,86,54.217114147981334,-2.0105213511075233,-0.13436509365291105,416455.0,-10.017095535287531,-0.2551523968952063,0.1743621578011325,419989.0,,,,,421.78443268350776,418.25043268350777,
28,63,23,F,1,0,20.0,20,2,high,2 + 1 + 9 - 4 + 1,9,8,9,11,431.7958523000125,433.8176610000082,435.33249140001135,440.35086070001125,441.2809318000218,441.280937100004,442.7976587000303,443.815282800002,w,9.0,0.9300711000105366,1,+10,96,-4.150958442824354,-1.5530172150320727,2.685400942867771,430007.0,-15.561432005428186,0.2927310872562412,-1.1271334681098844,433540.0,,,,,435.3354326835078,431.8024326835078,
29,63,23,F,1,0,21.0,21,1,low,8 + 1 + 1 + 1 - 4,7,5,8,7,445.3320165000041,447.3577559000114,448.8730143000139,453.89161160000367,454.8890312000294,454.88903710001614,456.4056303999969,457.4224268000107,e,7.0,0.9974196000257508,1,+1,97,-13.601777445994038,0.3374674670038136,-0.21572998167381874,443547.0,2.2686012740607886,-0.4797526973717039,0.30140750695782836,447080.0,,,,,448.87543268350777,445.3424326835078,
30,63,23,F,1,0,22.0,22,1,high,7 - 1 + 8 + 1 - 1,14,14,12,13,458.939245000016,460.9652893000166,462.4807691000169,467.50099680002313,469.4249412000063,469.424947099993,470.94109019998,471.958350800036,w,12.0,1.9239443999831565,0,+0,97,16.956242611112472,0.780552207729527,-0.20083376298802946,457154.0,-6.353801210253339,-1.2185675046425573,-0.09202238208731073,460690.0,,,,,462.4854326835078,458.9494326835078,
31,63,23,F,1,0,23.0,23,3,high,4 + 5 - 3 + 7 - 1,12,11,13,12,473.4751274000155,475.49942840001313,477.0141736000078,482.0331046000356,482.9529806000064,482.95298649999313,484.46926089999033,485.4864617999992,e,12.0,0.9198759999708273,1,+10,107,3.6082114302314103,-0.3143983796424239,0.15770634121170124,471688.0,5.895093122192154,3.4604374373756075,0.14631849557036558,475222.0,,,,,477.01743268350776,473.4834326835078,
32,63,23,F,1,0,24.0,24,2,high,5 + 8 + 1 - 1 + 9,22,22,21,23,487.0031221000245,489.0305180000141,490.5457694000215,495.5644304000307,496.4649941999815,496.4649999000249,497.98133739997866,498.9986094000051,q,22.0,0.9005637999507599,1,+10,117,-37.76583599482747,1.990782366046382,-0.10291664084687824,485219.0,12.62438722877838,1.0602995330283207,-0.04202682697092275,488753.0,,,,,490.54843268350777,487.0144326835078,
33,63,23,F,1,0,25.0,25,4,low,9 + 3 - 5 + 8 + 6,21,19,21,23,500.51526389998617,502.5397665000055,504.05518030002713,509.07368099997984,510.44899250002345,510.44899840001017,511.9659157000133,512.9831994000124,e,23.0,1.3753115000436082,0,+0,117,5.420757179707501,-12.40343855200689,-0.16517178284927825,498729.0,3.1725490594752515,-9.73448235935544,0.07757791751284637,502263.0,,,,,504.05843268350776,500.52443268350777,
34,63,23,F,1,0,26.0,26,3,high,6 + 7 + 8 + 1 - 9,13,13,14,15,514.4999359999783,516.5272984000039,518.0411875999998,523.0597269000136,523.9610043999855,523.9610102000297,525.4774161999812,526.4945818000124,q,13.0,0.9012774999719112,1,+10,127,-7.8353301827198045,-8.803697245647975,-0.270115952007858,512716.0,7.895036665376756,-1.0846750916128443,0.05630557715981821,516249.0,,,,,518.0444326835078,514.5114326835078,
35,63,23,F,1,0,27.0,27,2,low,3 - 1 + 9 - 5 + 1,7,7,5,6,528.0114909000113,530.0386970000109,531.5539553000126,536.5721196000231,537.4488912000088,537.4488966999925,538.9660233000177,539.9835128000122,q,7.0,0.8767715999856591,1,+1,128,70.3603279972883,-18.053664484628705,-3.6404491119178273,526228.0,-0.3125465096245108,1.4847896716749531,-0.22835407175345068,529761.0,,,,,531.5564326835078,528.0234326835077,
36,63,23,F,1,0,28.0,28,4,high,4 + 7 - 8 + 9 - 3,9,9,8,11,541.5004015000304,543.5277300000307,545.0427389999968,550.0612779000076,551.7208757000044,551.7208814999904,553.2376962000271,554.2550113000325,e,11.0,1.6595977999968454,0,+0,128,36.3037504500128,-3.521205281613746,0.0911638370879615,539717.0,21.43836716373134,-4.637919027352901,0.22927674424644362,543250.0,,,,,545.0454326835078,541.5124326835078,
37,63,23,F,1,0,29.0,29,3,low,7 - 6 + 8 + 1 + 7,17,16,15,17,555.7710942000267,557.7951265000156,559.3101486000232,564.3288705000305,566.3928637999925,566.3928699999815,567.9095692000119,568.9262611999875,e,17.0,2.0639932999620214,1,+1,129,13.838629801838639,-0.3685570144647743,-0.1930689240415675,553984.0,21.832622174176123,0.19474444461337903,0.09082100965884221,557517.0,,,,,559.3124326835078,555.7794326835078,
38,63,23,F,1,0,30.0,30,4,low,6 + 5 - 7 + 8 - 9,3,5,4,3,570.4428474000306,572.469328999985,573.9845755000133,579.0027752000024,581.2168632000103,581.2168688999955,582.7329377999995,583.7502980999998,q,5.0,2.214088000007905,0,+0,129,17.181742478220844,-0.21154181573705344,-0.0459861593791997,568658.0,-17.897580250901257,-0.9575436869722216,-0.6816920078101556,572192.0,,,,,573.9874326835078,570.4534326835078,
39,63,23,F,1,0,31.0,31,4,low,3 + 9 - 4 + 7 + 6,21,21,20,19,585.2671642000205,587.2909017000347,588.8060171999969,593.824506999983,595.3928642999963,595.3928704999853,596.9088648000034,597.9256706000306,q,21.0,1.5683573000133038,1,+1,130,7.875637774292484,0.15878595769325177,-0.029595533740772506,583480.0,2.460456275430193,0.7596065256319688,-0.15236511394369057,587013.0,,,,,588.8084326835078,585.2754326835078,
40,63,23,F,1,0,32.0,32,1,low,2 + 9 + 1 + 1 + 1,14,14,12,13,599.4429597000126,601.4798466999782,602.9952249000198,608.0137016000226,608.9608970999834,608.9609028000268,610.4775478999945,611.4941872000345,q,14.0,0.9471954999607988,1,+1,131,20.134724044405612,-0.43539323313173384,-0.009781030858162065,597669.0,-26.78717951851337,-1.7753738971256254,0.08033816974092689,601202.0,,,,,602.9974326835078,599.4644326835078,
41,63,23,F,1,0,33.0,33,4,high,4 + 9 - 7 + 8 + 5,19,19,20,21,613.0109379999922,615.0383621000219,616.5535645000055,621.572321899992,622.5527964999783,622.5528021000209,624.0693371000234,625.0864734000061,q,19.0,0.9804745999863372,1,+10,141,23.76385847301478,0.9396926555456457,0.16728139363480898,611226.0,-34.46256649599019,0.11349761937460912,0.06837340960882221,614761.0,,,,,616.5564326835078,613.0214326835078,
42,63,23,F,1,0,34.0,34,3,low,3 - 7 + 5 + 1 + 9,11,11,12,13,626.6031518999953,628.6277432999923,630.1426073000184,635.1608934000251,636.2247841000208,636.2247928000288,637.741250400024,638.7582054000231,q,11.0,1.0638906999956816,1,+1,142,-6.719350105639725,-0.06286096517214901,0.20795213137486623,624816.0,9.70397922465009,1.0043795961711464,-0.01085225429872505,628350.0,,,,,630.1454326835078,626.6114326835078,
43,63,23,F,1,0,35.0,35,3,high,3 + 8 - 7 - 1 + 9,12,13,12,14,640.275187399995,642.301423500001,643.8165251000319,648.8350824000081,649.7448131000274,649.7448229999864,651.2614152000169,652.2786937000346,w,12.0,0.9097307000192814,1,+10,152,10.431631399349815,2.003830266741037,-0.19596445031636778,638490.0,-16.359774776995664,0.002581107895244905,-0.05824462075989034,642024.0,,,,,643.8194326835078,640.2854326835078,
44,63,23,F,1,0,36.0,36,1,low,8 + 1 + 4 + 1 + 1,15,16,15,14,653.7955725000356,655.8229385000304,657.3381227999926,662.3563755000359,663.2488734000362,663.2488794000237,664.7655436000205,665.782399400021,w,15.0,0.8924979000003077,1,+1,153,-7.56535213452998,0.3083033211861217,0.1274872552181694,652011.0,11.113350598236147,-0.6387017135231199,0.09621661914413648,655544.0,,,,,657.3394326835078,653.8064326835078,
45,63,23,F,1,0,37.0,37,2,low,6 + 8 + 1 + 1 - 7,9,8,11,9,667.2994336999836,669.325302799989,670.8405563000124,675.8592774000135,677.4727997999871,677.4728059000336,678.9894408999826,680.0062800000305,e,9.0,1.61352239997359,1,+1,154,-1.7894942282767943,-2.695292958025548,-5.081556100645261,665514.0,6.108720805428058,-0.9449948134757982,-0.04073973737893111,669048.0,,,,,670.8434326835078,667.3094326835078,
46,63,23,F,1,1,38.0,0,4,high,3 + 8 - 4 + 9 + 6,22,23,22,21,698.5009564000065,700.5288597000181,702.0439055000315,707.0631346000009,708.4807775000227,708.4807834000094,709.9978194999858,711.0159544000053,e,21.0,1.4176429000217468,0,+0,154,8.257948828574369,-2.2216966689034052,-0.21853169745122747,696717.0,-28.073507901921932,-0.45284618840215707,-0.12743022055891196,700251.0,,,,,702.0464326835078,698.5124326835078,
47,63,23,F,1,1,39.0,1,2,low,6 + 1 + 1 + 7 - 9,6,4,6,8,712.5329913999885,714.56112139998,716.0762767000124,721.0962784999865,722.0486557999975,722.0486612999812,723.5653981000069,724.5823087000172,w,6.0,0.952377300010994,1,+1,155,5.0002836435410885,-0.27553382420305716,-0.010174648607101267,710749.0,17.16967724914282,-0.1619919970550816,0.21040693644376285,714285.0,,,,,716.0804326835078,712.5444326835078,
48,63,23,F,1,1,40.0,2,2,high,6 + 1 + 8 + 5 - 1,19,19,17,18,726.0995911000064,728.1264866000274,729.6417407999979,734.6599128000089,735.5607930999831,735.560799000028,737.0781691999873,738.0955162000027,q,19.0,0.9008802999742328,1,+10,165,-25.2606743280715,0.23215940289880876,0.08346023835623217,724315.0,-17.410115947747006,0.4112412804638943,0.23235650684001596,727848.0,,,,,729.6434326835077,726.1104326835078,
49,63,23,F,1,1,41.0,3,4,high,5 + 8 - 6 + 7 + 4,18,17,19,18,739.612582700036,741.6355317999842,743.1503773999866,748.1687437000219,749.8966535999789,749.8966593000223,751.4135104999878,752.4298370000324,q,17.0,1.7279098999570124,0,+0,165,-9.5419795204408,0.29449932011564073,-0.09151312487481955,737824.0,14.372856923358906,0.7575409900292547,0.17405760546590443,741357.0,,,,,743.1524326835078,739.6194326835077,
50,63,23,F,1,1,42.0,4,2,high,7 + 1 + 9 - 1 - 8,8,8,7,6,753.9466910000192,755.9720511999913,757.4873524000286,762.5066367000109,763.3927126000053,763.3927224000217,764.9095315000159,765.9265287999879,q,8.0,0.8860758999944665,1,+10,175,7.182440331749883,0.13242572456595436,-0.0255659163158779,752160.0,-19.47353895080051,-0.704521051782784,0.2032114041841082,755694.0,,,,,757.4894326835077,753.9554326835078,
51,63,23,F,1,1,43.0,5,3,high,5 + 6 + 7 - 1 - 9,8,9,8,7,767.4437432999839,769.4699452000204,770.9849436000222,776.0051610000082,778.528682300006,778.5286881999928,780.0454445999931,781.0629879999906,w,8.0,2.5235212999978103,1,+10,185,1.105637338704561,-1.2763452706083767,-7.585348954923677,765658.0,-21.2822112455173,-0.5153099721770236,-0.108812504694769,769193.0,,,,,770.9884326835078,767.4534326835078,
52,63,23,F,1,1,44.0,6,2,high,3 + 1 + 8 - 5 - 1,6,6,7,5,782.5801022999804,784.6069019000279,786.1226384000038,791.1406265000114,792.0166870999965,792.0166931999847,793.5333356999909,794.5505750000011,q,6.0,0.8760605999850668,1,+10,195,8.43300822586498,1.8603946205903599,-10.166070606739853,780795.0,-7.553514280077554,-0.22663542394634018,0.22522169290394034,784329.0,,,,,786.1244326835077,782.5904326835077,
53,63,23,F,1,1,45.0,7,1,high,7 - 1 + 9 + 1 - 1,15,14,13,15,796.0673325000098,798.0934127999935,799.6086988000316,804.6285170000046,806.4006712000119,806.4006774000009,807.9172982000164,808.934513300017,w,13.0,1.7721542000072077,0,+0,195,2.8640778792305195,0.5572656998800776,-0.07082838702254834,794281.0,-28.867007697957717,0.2958321719107202,-0.0876154775849014,797816.0,,,,,799.6114326835078,796.0764326835077,
54,63,23,F,1,1,46.0,8,1,low,3 + 1 + 9 + 1 + 1,15,14,17,15,810.4513249000302,812.4785844000289,813.9937169000041,819.0118068000302,820.4806711000274,820.4806772000156,821.9972732000169,823.0144396999967,q,14.0,1.4688642999972217,0,+0,195,6.064236991957692,0.5652220706728217,-0.15659358723867678,808666.0,-7.084996840438231,-0.048581251136155856,0.40562917454326586,812200.0,,,,,813.9954326835078,810.4614326835078,
55,63,23,F,1,1,47.0,9,2,low,6 + 1 + 7 - 8 - 1,5,7,4,5,824.5310305000166,826.5559730000095,828.0709963000263,833.0912098999834,834.0326835000305,834.0326892000157,835.5492466000142,836.566107199993,e,5.0,0.9414736000471748,1,+1,196,17.50946808346301,-0.31005253268332655,0.609115967205474,822745.0,5.695966236088632,0.14296212505405226,-0.15031501338320652,826279.0,,,,,828.0744326835078,824.5404326835078,
56,63,23,F,1,1,48.0,10,1,high,9 + 8 + 1 + 1 - 1,18,17,20,18,838.0828073000303,840.1109596000169,841.6263777000131,846.6440144000226,847.6406127000228,847.6406185000087,849.1572279999964,850.1748882000102,e,18.0,0.996598300000187,1,+10,206,6.2555822039310645,0.621310189706417,0.1265758568042703,836299.0,22.748497165599712,0.17965103887830214,0.0551932267993096,839832.0,,,,,841.6274326835078,838.0944326835078,
57,63,23,F,1,1,49.0,11,3,high,4 + 7 - 3 + 5 - 1,12,12,13,11,851.6920319999917,853.7140993000357,855.2293002000079,860.2477738999878,861.1605634000152,861.160569300002,862.6771619999781,863.6944771999842,q,12.0,0.9127895000274292,1,+10,216,4.053260723664963,0.6580887781360047,-0.025260692432782728,849902.0,6.448720551896663,-0.3972530797034093,0.20716409642255718,853436.0,,,,,855.2314326835078,851.6974326835078,
58,63,23,F,1,1,50.0,12,3,high,4 + 1 + 8 + 9 - 5,17,17,18,19,865.2112064000103,867.2329971999861,868.7482310000341,873.7663799999864,874.6885843999917,874.6885900000343,876.2052419999964,877.2216248000041,q,17.0,0.9222044000052848,1,+10,226,-25.338425092079582,0.1610879922326065,0.1336438756169378,863421.0,20.176828258065555,-0.802326939680829,0.2586288293052723,866954.0,,,,,868.7494326835077,865.2164326835078,
59,63,23,F,1,1,51.0,13,3,low,2 + 1 + 9 - 5 + 6,13,13,14,11,878.7382470000302,880.7639914000174,882.279352099984,887.297860199993,888.6245128000155,888.6245189000037,890.1420020000078,891.1593992999988,e,11.0,1.3266526000224983,0,+0,226,-0.010107782330933901,-0.12971673719615762,0.6956052492673823,876952.0,2.312850573429068,0.9452207103355539,0.252773999969804,880485.0,,,,,882.2804326835078,878.7474326835078,
60,63,23,F,1,1,52.0,14,3,high,2 + 9 + 1 - 5 + 7,14,12,14,15,892.6764996999991,894.7017226000316,896.2167092000018,901.2348222000292,902.640541700006,902.6405471999896,904.1573466000264,905.1745848000282,q,12.0,1.40571949997684,0,+0,226,-2.081286321834078,-0.0646039765180495,-0.3078258957635591,890889.0,-1.0498554689649757,-0.14896635544720294,0.14619351710481343,894423.0,,,,,896.2184326835078,892.6844326835078,
61,63,23,F,1,1,53.0,15,3,low,8 + 4 + 1 - 7 + 9,15,15,16,13,906.6914057999966,908.717824499996,910.23354310001,915.2521980000312,916.704510600015,916.7045161999996,918.2213630999904,919.238852599985,e,13.0,1.4523125999839976,0,+0,226,0.4259541952382122,-0.3468898283172832,0.11890889711102526,904905.0,13.24468263194493,0.040930864826359326,0.38465316985164,908440.0,,,,,910.2354326835078,906.7004326835078,
62,63,23,F,1,1,54.0,16,4,high,8 + 5 - 4 + 7 + 9,25,24,25,26,920.7552243000246,922.7813819000148,924.2963923999924,929.3150188000292,931.8405751999816,931.8405809000252,933.3571362000076,934.3750435999827,w,25.0,2.5255563999526203,1,+10,236,-23.86612809093345,1.0705120121174776,-0.041724290596075075,918969.0,23.144703612313606,0.07718473478236465,0.09549856244100985,922502.0,,,,,924.2974326835077,920.7644326835078,
63,63,23,F,1,1,55.0,17,1,low,9 + 8 + 1 + 1 - 1,18,17,18,19,935.8920313999988,937.9188114000136,939.4348418000154,944.4532967000268,945.3605403000256,945.3605466000154,946.8769705999875,947.8932726000204,w,18.0,0.9072435999987648,1,+1,237,1.8754695243735107,-0.9764577673207127,-0.17487685188093893,934106.0,15.422133058444558,0.28237037861760594,0.2526863287869263,937641.0,,,,,939.4364326835077,935.9014326835078,
64,63,23,F,1,1,56.0,18,1,low,6 + 9 + 1 + 1 - 1,16,14,15,16,949.4103425000212,951.4321062000236,952.9461917000008,957.9644151999964,959.120404699992,959.120410100033,960.63700290001,961.653962899989,e,16.0,1.155989499995485,1,+1,238,-9.449399104204492,-0.36772469673844643,0.009144869574182701,947619.0,-38.07958699786373,-0.4146060824117015,-2.2104653791176188,951152.0,,,,,952.9474326835078,949.4144326835078,
65,63,23,F,1,1,57.0,19,2,high,6 + 1 + 1 + 8 - 9,7,7,9,5,963.1709049000056,965.1941115999944,966.7091383999796,971.7273466000332,972.5525023000082,972.5525079999934,974.0690725999884,975.0862492999876,q,7.0,0.8251556999748573,1,+10,248,-10.296491533602222,-0.5713773768614292,0.005629072639698585,961381.0,-22.88696868810149,-0.13030568894077987,0.03761150867924057,964915.0,,,,,966.7104326835077,963.1764326835078,
66,63,23,F,1,1,58.0,20,1,high,6 + 1 + 1 + 7 - 1,14,12,14,13,976.6031146000024,978.630432999984,980.145747500006,985.164526699984,985.952412499988,985.9524179000292,987.4688724000008,988.4863446999808,w,14.0,0.7878858000040054,1,+10,258,40.29274237545121,-1.1569251053533867,-0.1040811082290638,974817.0,-4.128124871356691,-0.6557290154560684,0.23813143595491115,978352.0,,,,,980.1474326835078,976.6124326835078,
67,63,23,F,1,1,59.0,21,3,low,5 + 6 - 4 - 1 + 7,13,14,13,15,990.0032626999892,992.0276156000328,993.5424359000172,998.560996300017,999.42435809999,999.424363600032,1000.9409407000056,1001.9578170999883,w,13.0,0.8633617999730632,1,+1,259,8.622510826908439,-0.1664639875997027,0.06408071184535036,988215.0,-7.765409645894515,0.19944753404285986,0.005808144802259552,991748.0,,,,,993.5434326835078,990.0104326835078,
68,63,23,F,1,1,60.0,22,2,low,9 + 4 + 5 + 1 - 1,18,19,18,17,1003.4746770000202,1005.502478600014,1007.0176817000028,1012.0357339000328,1012.960330700036,1012.9603359000176,1014.4770329000312,1015.494097399991,w,18.0,0.9245968000032008,1,+1,260,-4.481408847278892,-0.6660365075276378,-0.1460354687655503,1001690.0,7.51461996320802,-0.6688686794445262,0.14683503540312692,1005223.0,,,,,1007.0184326835077,1003.4854326835078,
69,63,23,F,1,1,61.0,23,1,low,2 + 9 + 1 + 1 + 1,14,14,13,12,1017.0109669999802,1019.0374449000228,1020.552358100016,1025.570601399988,1026.4403727999888,1026.440378600033,1027.9570000999956,1028.9738254999977,q,14.0,0.8697714000009,1,+1,261,-38.95340297953136,0.06415564735843571,0.03098845131651551,1015224.0,33.76108469862212,0.3117521946448436,0.04619900609771177,1018758.0,,,,,1020.5534326835078,1017.0194326835078,
70,63,23,F,1,1,62.0,24,4,low,2 + 9 - 3 + 5 + 8,21,22,21,23,1030.493893900013,1032.5214075000258,1034.0363656000118,1039.0547528000316,1040.6404095999897,1040.6404155000346,1042.1573332999833,1043.1747152000316,e,23.0,1.5856567999580875,0,+0,261,-36.3419166638374,0.28040020964372747,4.336495817135885,1028709.0,12.253615418521374,-0.5299533898114426,-0.43376893326295196,1032242.0,,,,,1034.0374326835079,1030.504432683508,
71,63,23,F,1,1,63.0,25,3,high,5 + 7 + 1 - 4 + 6,15,15,17,13,1044.691693300032,1046.718672899995,1048.2339360000333,1053.2521107000066,1055.192315399996,1055.192321599985,1056.708820300002,1057.726105300011,w,17.0,1.9402046999894085,0,+0,261,15.374440006535789,-0.2321888918298134,0.06852570705470207,1042906.0,9.562128191629629,0.41951901820787363,0.0019376769598027366,1046439.0,,,,,1048.234432683508,1044.7014326835078,
72,63,23,F,1,1,64.0,26,3,low,8 + 3 + 1 - 7 + 9,14,12,15,14,1059.2429699000204,1061.2678252999904,1062.783106899995,1067.8018413999816,1069.4003509000177,1069.400356500002,1070.9170782000292,1071.934416799981,q,12.0,1.598509500036016,0,+0,261,-51.8352961766836,-0.2703092709852326,0.06625258039422155,1057455.0,20.702325449203833,-0.9612950453729967,0.1773504180779195,1060989.0,,,,,1062.784432683508,1059.2504326835078,
73,63,23,F,1,1,65.0,27,3,high,3 + 1 + 8 - 5 + 9,16,15,16,17,1073.451119699981,1075.4761593000148,1076.991362000001,1082.0095223999815,1083.20827990002,1083.2082854000037,1084.724909099983,1085.7422502000118,e,17.0,1.1987575000384822,0,+0,261,-6.881741957880113,1.3004752545358755,0.09195962100281618,1071663.0,49.375371361903206,-0.8594554386872213,0.14778865157242893,1075197.0,,,,,1076.9924326835078,1073.458432683508,
74,63,23,F,1,1,66.0,28,1,low,4 + 8 + 1 - 1 - 1,11,11,9,13,1087.259104900004,1089.3020449000178,1090.8178607000154,1095.8360332000302,1096.7363118000212,1096.7363174000056,1098.252758799994,1099.2707069999888,e,13.0,0.9002785999909975,0,+0,261,-5.787300872527291,-0.4149184989089676,-0.17895163554556714,1085489.0,-22.05972174442167,-0.12373508382947573,0.1798431240595939,1089023.0,,,,,1090.8184326835078,1087.284432683508,
75,63,23,F,1,1,67.0,29,2,low,2 + 9 - 4 + 1 + 1,9,8,11,9,1100.7873023999855,1102.8135497000185,1104.3284863000154,1109.3485207000049,1110.2083595999866,1110.20836530003,1111.7250540999812,1112.7419732999988,e,9.0,0.8598388999816962,1,+1,262,-31.96424234128069,-0.2524993482024813,0.19674337401991027,1099000.0,18.50728726817894,0.13552462295099765,0.18411174884191395,1102535.0,,,,,1104.330432683508,1100.795432683508,
76,63,23,F,1,1,68.0,30,4,low,7 + 8 - 4 + 6 + 5,22,21,23,22,1114.259310699999,1116.286130900029,1117.8018783000298,1122.8206247999915,1123.7923316999804,1123.792337700026,1125.3088652000297,1126.3257996999891,e,22.0,0.9717068999889308,1,+1,263,-41.20838267487629,0.3572858911035306,0.17593654797111524,1112473.0,4.688428660788448,0.6227292296128235,0.11234682689697961,1116007.0,,,,,1117.802432683508,1114.2684326835079,
77,63,23,F,1,1,69.0,31,3,high,9 - 1 + 5 - 6 + 8,15,14,15,17,1127.843173799978,1129.8692847000202,1131.38439989998,1136.403970799991,1138.1922993999906,1138.1923049000325,1139.7092066000332,1140.7265905999811,q,14.0,1.7883285999996588,0,+0,263,25.1642560024054,-0.38761463427851695,0.01941238555302749,1126056.0,15.843288261056724,-0.5967596627617722,0.08951264371662804,1129590.0,,,,,1131.3854326835078,1127.851432683508,
78,63,23,F,1,1,70.0,32,1,high,6 + 1 + 8 + 1 - 1,15,15,14,13,1142.243161500024,1144.2673573999782,1145.783252299996,1150.8010130000184,1151.7043785999997,1151.7043840999831,1153.22090200003,1154.2381688000169,q,15.0,0.9033655999810436,1,+10,273,11.64667706244631,-0.12839169807483675,-0.046421102399493375,1140454.0,-48.907302071995716,-0.5306912269338158,-0.10969624559925384,1143988.0,,,,,1145.783432683508,1142.2494326835078,
79,63,23,F,1,1,71.0,33,1,low,6 + 9 + 1 + 1 - 1,16,15,16,14,1155.754849400022,1157.7813931999844,1159.296694700024,1164.314995600027,1165.1682296000072,1165.1682352999924,1166.6847440000274,1167.7017048000123,w,16.0,0.8532339999801479,1,+1,274,37.39516520423808,-0.26253728107404317,-0.10040650135399143,1153968.0,13.662603020070737,-0.35409872386906294,0.1916317131779024,1157502.0,,,,,1159.2974326835079,1155.763432683508,
80,63,23,F,1,1,72.0,34,4,low,8 + 4 + 7 - 5 - 6,8,6,8,9,1169.218714000017,1171.244531799981,1172.7597378999926,1177.7791750000324,1178.896169900021,1178.89617610001,1180.4129142999882,1181.4300413000165,e,9.0,1.11699489998864,0,+0,274,12.597957621212378,0.18764839859485338,0.07268853102543238,1167431.0,-10.510971833503987,1.5003899400360776,0.2333706587626201,1170965.0,,,,,1172.7604326835078,1169.226432683508,
81,63,23,F,1,1,73.0,35,4,high,8 + 4 - 5 + 7 - 6,8,8,6,7,1182.9467614000314,1184.9733281999945,1186.4883502000012,1191.5075169000193,1192.416310200002,1192.4163160999888,1193.9323967000237,1194.9497753999894,q,8.0,0.90879329998279,1,+10,284,32.416835415070054,0.6924595866362107,0.21954031287989695,1181160.0,7.309405865830554,0.2720687721215729,0.2153938115886116,1184693.0,,,,,1186.4884326835079,1182.955432683508,
82,63,23,F,1,1,74.0,36,4,low,8 + 4 + 7 - 5 - 6,8,9,8,7,1196.4669710000162,1198.494021599996,1200.0092329999898,1205.0278742000228,1205.9121752000065,1205.9121809999924,1207.4288035000209,1208.44573029998,w,8.0,0.8843009999836795,1,+1,285,9.627322908242771,-0.4669943497217073,-0.0423336382593531,1194681.0,-22.901679629803027,-1.6233296152472176,0.24143526578258268,1198214.0,,,,,1200.0094326835078,1196.476432683508,
83,63,23,F,1,1,75.0,37,1,high,2 + 1 + 9 + 1 - 1,12,11,12,13,1209.9625469000312,1211.9893802999868,1213.5045321999933,1218.5227736000088,1219.3441892000264,1219.3441949000116,1220.860762700031,1221.8781005000346,w,12.0,0.8214156000176445,1,+10,295,1.9207329382753224,0.15128206760086726,0.0478783527891431,1208176.0,23.720000318338748,0.7693110614309946,0.038828802775781934,1211709.0,,,,,1213.504432683508,1209.9714326835078,
84,63,23,F,1,2,76.0,0,4,high,9 + 7 - 5 + 8 + 6,25,27,24,25,1249.9005287000327,1251.9271843000315,1253.4424956000294,1258.4626973000122,1259.5522154000355,1259.5522213000222,1261.0696698999964,1262.0874361000024,e,25.0,1.0895181000232697,1,+10,305,12.181329780192673,-0.44993476172203817,-0.10242733580077168,1248113.0,-12.548974767292219,0.7120357438151865,0.05183389069472044,1251649.0,,,,,1253.4444326835078,1249.908432683508,
85,63,23,F,1,2,77.0,1,2,low,6 + 1 + 8 + 7 - 1,21,19,21,23,1263.6041411000188,1265.6315224000136,1267.146758200019,1272.165368899994,1274.0001207999885,1274.000126600033,1275.5163815999986,1276.533322400006,w,21.0,1.834751899994444,1,+1,306,-34.79361799806472,1.0281463071372388,0.3676537669920732,1261818.0,9.458058933080627,0.7215435893374034,0.044132437385326906,1265352.0,,,,,1267.147432683508,1263.6134326835079,
86,63,23,F,1,2,78.0,2,1,high,6 + 1 + 8 + 1 + 1,17,15,16,17,1278.0499397999956,1280.0778075000271,1281.5930182000156,1286.6110225000302,1287.536212200008,1287.536217899993,1289.052881199983,1290.0702619000222,e,17.0,0.9251896999776364,1,+10,316,-27.457186169419725,-0.6361266525918907,0.06475617236391829,1276264.0,-6.3587607020087304,0.11308063714854555,0.04342316410199465,1279797.0,,,,,1281.592432683508,1278.0594326835078,
87,63,23,F,1,2,79.0,3,4,low,8 + 7 - 4 + 5 + 9,25,25,24,26,1291.5869864000124,1293.614139500016,1295.1298865000135,1300.1480826000334,1301.2080848999904,1301.2080906000338,1302.7247177999816,1303.7414703000104,q,25.0,1.0600022999569774,1,+1,317,-14.529377399212867,-0.8891648046064908,-0.02591777627752001,1289800.0,5.261759300731956,0.7465783318425769,0.11639047963141924,1293334.0,,,,,1295.129432683508,1291.5954326835079,
88,63,23,F,1,2,80.0,4,3,low,5 + 1 + 7 - 8 + 6,11,9,11,13,1305.258293699997,1307.2852830000338,1308.800328399986,1313.818895400036,1314.832082399982,1314.8320916999946,1316.3485275999992,1317.3654072000063,w,11.0,1.0131869999459011,1,+1,318,-64.0486862890224,0.1302524066130326,0.057415642163231695,1303471.0,9.286998379237353,2.1756085745605116,0.13030089675299905,1307005.0,,,,,1308.800432683508,1305.266432683508,
89,63,23,F,1,2,81.0,5,4,low,5 + 6 - 4 + 7 + 9,23,24,23,25,1318.8820966000203,1320.909226400021,1322.4243243000235,1327.4431803000043,1328.7281557000242,1328.7281613000089,1330.2447587000206,1331.2617480999909,w,23.0,1.2849754000199027,1,+1,319,-4.374203856414315,0.8370622158458483,0.09737929596027461,1317095.0,-3.614332673673818,0.43395187155844095,0.14568448052484428,1320629.0,,,,,1322.4244326835078,1318.890432683508,
90,63,23,F,1,2,82.0,6,4,low,5 + 8 - 4 - 6 + 9,12,13,14,12,1332.77848909999,1334.8028212999925,1336.3185938000097,1341.3367670000298,1342.7280671999906,1342.7280730000348,1344.2442399000283,1345.2611034000292,e,12.0,1.391300199960824,1,+1,320,-21.82835126562665,-0.007014068058334821,0.14303876655142034,1330989.0,51.28491555648257,-0.5842484857709245,0.14181359293876117,1334523.0,,,,,1336.3184326835078,1332.784432683508,
91,63,23,F,1,2,83.0,7,2,low,7 + 6 + 1 - 1 - 8,5,3,5,4,1346.777925500006,1348.8046184999985,1350.319411000004,1355.3377146000275,1356.200051199994,1356.2000568999792,1357.7168010000023,1358.7336955000064,w,5.0,0.8623365999665111,1,+1,321,24.222707259785846,-1.3132262993067902,0.22176875753206526,1344991.0,-3.1679416347141167,0.03715247422490098,0.22096569083573825,1348524.0,,,,,1350.3194326835078,1346.7864326835079,
92,63,23,F,1,2,84.0,8,3,low,7 + 1 + 9 + 5 - 6,16,16,14,15,1360.2502064,1362.2782001000014,1363.7934001000249,1368.8116202999954,1369.7520519000243,1369.7520574000082,1371.2686845000137,1372.285343000025,q,16.0,0.9404316000291146,1,+1,322,20.751389119127335,-0.07140825054300848,0.16796698377854158,1358464.0,16.719081510566586,-0.3061111884524248,0.18295335362514176,1361998.0,,,,,1363.793432683508,1360.2594326835078,
93,63,23,F,1,2,85.0,9,3,high,3 + 1 + 6 - 8 + 9,11,13,11,12,1373.8018560000346,1375.8261956000351,1377.3414642999996,1382.3594379000133,1383.776040000026,1383.776045400009,1385.2925352000166,1386.3101522999932,w,11.0,1.416602100012824,1,+10,332,4.91108945255167,0.03656644184189517,-0.23950715895874453,1372012.0,21.512582148094687,-0.552892807826427,0.01474276298100774,1375545.0,,,,,1377.340432683508,1373.8074326835078,
94,63,23,F,1,2,86.0,10,3,low,6 + 1 + 8 + 7 - 9,13,14,15,13,1387.8266410999931,1389.8521099000354,1391.3672185000032,1396.3857073999825,1397.3760598999795,1397.376065800025,1398.892740099982,1399.9097309000208,e,13.0,0.9903524999972432,1,+1,333,-6.664543182150693,0.5244038221769607,4.738901113306602,1386038.0,-8.76816371941549,-0.6798630097630864,-0.028223256878129988,1389571.0,,,,,1391.3664326835078,1387.833432683508,
95,63,23,F,1,2,87.0,11,2,high,4 + 8 + 1 + 1 - 6,8,8,9,7,1401.4263085999992,1403.4536642000312,1404.9699331999873,1409.9880721999798,1410.8560591000132,1410.8560648999992,1412.3727381000062,1413.389913799998,q,8.0,0.8679869000334293,1,+10,343,3.6325670450082126,0.17795455138333072,0.19632181913178792,1399639.0,-16.322791312031782,-1.4535938465780633,0.10523951983932389,1403174.0,,,,,1404.9694326835079,1401.4344326835078,
96,63,23,F,1,2,88.0,12,3,low,6 - 1 + 7 - 8 + 9,13,12,13,11,1414.9067527999869,1416.9325186000206,1418.4477682000145,1423.467637100024,1424.791970900027,1424.7919764000108,1426.3084960000124,1427.325746699993,w,13.0,1.3243338000029323,1,+1,344,-16.330959410783443,-1.0562413124463808,-0.12009875254093405,1413118.0,-11.213909352687958,0.7352030632521744,0.2092985540404355,1416654.0,,,,,1418.449432683508,1414.9134326835078,
97,63,23,F,1,2,89.0,13,2,high,8 + 1 + 7 + 1 - 4,13,14,12,13,1428.842577100033,1430.8707802999998,1432.386052099988,1437.4043985999888,1438.288016800012,1438.2880223999964,1439.8045278000063,1440.821927300014,e,13.0,0.8836182000231929,1,+10,354,1.2311256006437765,-0.45627300166899065,0.003694143900657032,1427056.0,-26.455085457373958,0.018150835423477396,0.1443890186380734,1430590.0,,,,,1432.3854326835078,1428.851432683508,
98,63,23,F,1,2,90.0,14,3,low,2 + 1 + 9 - 4 + 6,14,15,16,14,1442.3388893000083,1444.3668118999922,1445.8818946999963,1450.900665800029,1452.464009599993,1452.4640222000307,1453.9807949999813,1454.997824400023,e,14.0,1.5633437999640591,1,+1,355,-2.72369280266558,0.0899115198642706,0.27825239619365716,1440552.0,-32.421659805740866,0.6069037081780069,-0.01740763503180709,1444086.0,,,,,1445.881432683508,1442.3474326835078,
99,63,23,F,1,2,91.0,15,4,high,6 + 9 + 7 - 3 - 5,14,15,13,14,1456.5146905999864,1458.5389507000218,1460.054114700004,1465.072709500033,1465.9438900999958,1465.943896199984,1467.4603026999976,1468.4773779999814,e,14.0,0.8711805999628268,1,+10,365,-7.68411987811773,1.1443697990459114,0.06764040797118587,1454724.0,-38.63950702550266,-0.39368010593182756,-0.05651614672058547,1458258.0,,,,,1460.053432683508,1456.5194326835078,
100,63,23,F,1,2,92.0,16,1,low,5 + 8 - 1 + 1 + 1,14,16,12,14,1469.9942346999887,1472.0220836999945,1473.5373448000173,1478.555654500029,1479.583912400005,1479.5839184999932,1481.1002927999943,1482.117035800009,e,14.0,1.0282578999758698,1,+1,366,-4.332659900857742,1.3551376956061958,0.04053861756158006,1468208.0,-1.7315214958887415,-0.6887682533458905,0.07702531461806816,1471741.0,,,,,1473.5364326835079,1470.003432683508,
101,63,23,F,1,2,93.0,17,3,low,9 + 3 - 4 + 6 + 7,21,21,22,23,1483.633544499986,1485.661054400029,1487.1760398999904,1492.1948627000093,1493.543952499982,1493.5439586000284,1495.0605045999982,1496.0774629000225,q,21.0,1.3490897999727167,1,+1,367,-26.036098701559897,0.05657303264857738,0.07790787250162068,1481846.0,4.498909185833893,0.3234935007679818,-0.32984469656751747,1485380.0,,,,,1487.175432683508,1483.641432683508,
102,63,23,F,1,2,94.0,18,4,low,3 + 8 - 5 + 9 - 7,8,8,7,6,1497.594548700028,1499.6213507000357,1501.1365700000315,1506.1553279000218,1507.0719102000005,1507.071919400012,1508.5894272000296,1509.6068100000266,q,8.0,0.9165822999784724,1,+1,368,28.527224175368943,0.07654213656617337,0.30908942742404255,1495807.0,64.04453188610738,1.3264617323877683,0.1073052429057555,1499341.0,,,,,1501.1364326835078,1497.602432683508,
103,63,23,F,1,2,95.0,19,1,high,3 + 1 + 8 - 1 + 1,12,13,10,12,1511.1234484000015,1513.1503434000188,1514.665433200018,1519.6836231999914,1520.6400176000316,1520.6400234000175,1522.156414200028,1523.1736493000062,e,12.0,0.9563944000401534,1,+10,378,8.875326674046512,0.08870727264572764,0.2954017866923684,1509336.0,-17.42058051365815,0.018503088597552342,-0.31583272398359696,1512869.0,,,,,1514.6644326835078,1511.131432683508,
104,63,23,F,1,2,96.0,20,4,high,2 + 5 - 3 + 9 + 8,21,21,19,22,1524.6904500999954,1526.7145639000228,1528.2297090999782,1533.2483812000137,1534.4080148999928,1534.4080206000365,1535.9665266000084,1536.9839457999915,w,19.0,1.1596336999791674,0,+0,378,37.86569952016161,0.719664742242065,0.16297702717809637,1522900.0,2.881261814779965,-0.2723181342587031,0.09959747723077994,1526434.0,,,,,1528.2294326835079,1524.695432683508,
105,63,23,F,1,2,97.0,21,1,low,4 + 7 + 1 - 1 - 1,10,10,11,9,1538.501029999985,1540.5279215000337,1542.0428719000192,1547.0615614000126,1548.3998961999896,1548.399902300036,1549.9170760000125,1550.9342809999944,w,11.0,1.3383347999770194,0,+0,378,-12.271133328957347,0.32468764504296743,0.20821105669543916,1536713.0,-38.644434833670275,-0.7445406832039199,0.12777454784711173,1540246.0,,,,,1542.041432683508,1538.5084326835079,
106,63,23,F,1,2,98.0,22,1,high,5 + 1 + 1 + 9 + 1,17,17,19,16,1552.4507514000288,1554.4794297000044,1555.9946285000187,1561.0125478000264,1561.8798480000114,1561.8798531999928,1563.3964676000178,1564.4134833000137,q,17.0,0.8673001999850385,1,+10,388,7.909870928740991,0.4838943656450905,0.7184633118615387,1550664.0,8.04975451333266,0.7939819938965789,0.27162815116809846,1554198.0,,,,,1555.993432683508,1552.4594326835079,
107,63,23,F,1,2,99.0,23,1,high,5 + 6 + 1 + 1 + 1,14,15,14,16,1565.9300814000308,1567.954294700001,1569.4703989999834,1574.4878365999905,1575.3680019000312,1575.3680079000187,1576.8851489999795,1577.902333200036,w,14.0,0.8801653000409715,1,+10,398,-27.94222720429978,-0.45105577934255603,-0.03574579462291805,1564139.0,21.073115232154294,-1.0832727760389957,0.165227079383796,1567673.0,,,,,1569.468432683508,1565.9344326835078,
108,63,23,F,1,2,100.0,24,1,low,5 + 1 + 1 + 6 + 1,14,13,16,14,1579.4190070999905,1581.4448026000173,1582.9598731999868,1587.9773783999844,1588.8078530000057,1588.807858699991,1590.3243277000147,1591.3413026999915,e,14.0,0.8304746000212617,1,+1,399,-2.886720203518909,-0.3354509483171988,-9.79020361140861,1577630.0,-28.420830774993995,-0.7672255975207705,0.10265345819336713,1581163.0,,,,,1582.958432683508,1579.425432683508,
109,63,23,F,1,2,101.0,25,4,low,2 + 9 - 4 + 8 + 7,22,21,23,22,1592.858119899989,1594.885010100028,1596.400252600026,1601.4186234999795,1602.9678099000012,1602.9678198000183,1604.4843838000088,1605.501905800018,q,21.0,1.5491864000214264,0,+0,399,-38.230610665915044,0.8228870483163355,-0.0290679399739191,1591070.0,34.00265138474955,-0.23069171197637584,0.15356891738031253,1594604.0,,,,,1596.399432683508,1592.8654326835078,
110,63,23,F,1,2,102.0,26,4,low,4 + 7 + 8 - 3 + 9,25,24,26,25,1607.0186578999856,1609.043082899996,1610.558278099983,1615.576391700015,1617.0317788000102,1617.031784699997,1618.5482888999975,1619.564981899981,e,25.0,1.4553870999952778,1,+1,400,23.876493151424583,0.10141626203026366,-0.04002510461679876,1605228.0,-51.67698159906468,-0.7965174859827275,-0.002326945780090517,1608762.0,,,,,1610.5574326835078,1607.023432683508,
111,63,23,F,1,2,103.0,27,3,high,8 - 1 + 6 - 7 + 5,11,12,13,11,1621.0818445000332,1623.1101282000309,1624.6254406999797,1629.6443468999933,1630.487748500018,1630.4877546000062,1632.0037309000036,1633.020743800036,e,11.0,0.8434016000246629,1,+10,410,20.352482305556297,1.7256057059376353,0.060444933241350585,1619295.0,-29.625187607506277,0.397149875501678,0.18834708651058585,1622829.0,,,,,1624.6244326835078,1621.090432683508,
112,63,23,F,1,2,104.0,28,2,high,9 + 4 - 6 + 1 - 1,7,7,8,9,1634.5374605000252,1636.5644509000122,1638.0796620000035,1643.0977374999784,1644.679748800001,1644.67975499999,1646.1962644000305,1647.2132437999826,e,9.0,1.5820113000227138,0,+0,410,-4.23022970372719,0.08133239466747089,0.16689602466814302,1632749.0,6.235424230128059,1.0792518721421382,0.1851994947182547,1636283.0,,,,,1638.0784326835078,1634.544432683508,
113,63,23,F,1,2,105.0,29,3,low,5 + 6 - 4 - 1 + 8,14,14,15,16,1648.7299709999934,1650.757135700027,1652.2725064000117,1657.290924400033,1658.6157586000045,1658.6157642999897,1660.1323739999789,1661.1492724000127,q,14.0,1.3248341999715194,1,+1,411,-1.5443463134858826,0.3316203153610626,4.103694775543471,1646942.0,6.875072411784444,-0.8253134384243275,1.7424072095051741,1650476.0,,,,,1652.271432683508,1648.737432683508,
114,63,23,F,1,2,106.0,30,4,low,5 + 7 - 4 + 8 + 6,22,24,22,23,1662.666175100021,1664.6910729000228,1666.206397300004,1671.2249843000318,1672.1838050999795,1672.183811200026,1673.7007740000265,1674.7176494000014,w,22.0,0.9588207999477164,1,+1,412,14.85874658910948,-0.6356469191514336,0.22249998945747218,1660876.0,1.0047314145486261,0.5254885736407955,-0.3605058468965361,1664410.0,,,,,1666.205432683508,1662.6714326835079,
115,63,23,F,1,2,107.0,31,3,high,3 + 1 + 8 - 5 + 6,13,13,15,14,1676.2353845000034,1678.262830200023,1679.7780720000155,1684.7963983999798,1686.3037129000295,1686.3037182000116,1687.8202814999968,1688.8373758000089,q,13.0,1.507314500049688,1,+10,422,1.4061511512004832,-0.4037268932002078,-0.3526098163302902,1674447.0,2.8087219438887328,-0.8182394017191239,-0.3291088559585238,1677981.0,,,,,1679.776432683508,1676.2424326835078,
116,63,23,F,1,2,108.0,32,4,low,7 + 8 - 4 + 6 - 5,12,13,12,11,1690.3540568000171,1692.3788351999829,1693.8941937999916,1698.914419399982,1699.8556743999943,1699.8556799000362,1701.3724220999866,1702.3892956000054,w,12.0,0.9412550000124612,1,+1,423,-2.7429094976586477,0.4894978732278048,-0.00426685635418611,1688564.0,-12.261340688210865,0.031355958743891854,0.07354643815091055,1692099.0,,,,,1693.8944326835078,1690.359432683508,
117,63,23,F,1,2,109.0,33,3,high,7 - 1 + 8 - 6 + 4,12,12,11,13,1703.9060971,1705.9335891000228,1707.4493834000314,1712.468296899984,1713.3836352999788,1713.3836410000222,1714.9003045000136,1715.9174791999976,q,12.0,0.9153383999946528,1,+10,433,18.360186702263118,-0.5940120462843597,-0.2328821991326302,1702118.0,-16.08895479311812,0.5042437057877525,0.2133866184702884,1705653.0,,,,,1707.448432683508,1703.9134326835078,
118,63,23,F,1,2,110.0,34,3,low,2 - 4 + 9 + 7 + 1,15,15,16,13,1717.4344330999884,1719.4593271000194,1720.9747803999926,1725.993638999993,1727.0156721000094,1727.0156780999969,1728.5330121000295,1729.5499235999887,q,15.0,1.0220331000164151,1,+1,434,-22.62666790972026,8.96908969097603,13.518176524925206,1715644.0,-6.167436249550832,-1.6553268302301305,-1.2050667747123778,1719178.0,,,,,1720.973432683508,1717.439432683508,
119,63,23,F,1,2,111.0,35,2,high,6 + 1 + 7 + 5 - 1,18,16,17,18,1731.0667846000288,1733.0934280999936,1734.608548899996,1739.6274108000216,1740.6796275000088,1740.6796333999955,1742.196213099989,1743.2137322000344,e,18.0,1.0522166999871845,1,+10,444,-64.19336016076406,-0.10126520245390402,0.18966129062406245,1729278.0,-29.016465383023274,-0.19937846614477372,0.24703318209044545,1732811.0,,,,,1734.6064326835078,1731.073432683508,
120,63,23,F,1,2,112.0,36,4,high,7 + 6 - 9 + 8 - 3,9,9,8,7,1744.7312103000004,1746.7589253000333,1748.2742519000312,1753.2930272999802,1754.279631500016,1754.279637300002,1755.797138600028,1756.815322200011,q,9.0,0.9866042000357992,1,+10,454,1.3099682707544806,-0.07895757458294383,0.25068035686445134,1742943.0,17.672587611873723,-0.5465528634802261,0.10522394765186305,1746477.0,,,,,1748.272432683508,1744.7384326835079,
121,63,23,F,1,2,113.0,37,4,high,6 + 9 + 7 - 3 - 5,14,13,14,12,1758.3321680999943,1760.3561423000065,1761.8714613000047,1766.8901365000056,1767.863691299979,1767.863697200024,1769.3807680000318,1770.398149900022,w,14.0,0.973554799973499,1,+10,464,-5.179219110212454,0.5462836934079283,0.12094116386154274,1756541.0,19.515925694756806,0.36800946326987294,0.07796465289315035,1760074.0,,,,,1761.869432683508,1758.3364326835078,
122,63,23,F,1,3,114.0,0,1,high,3 + 1 + 8 + 1 + 1,14,14,13,16,1785.4520544999978,1787.4767920000013,1788.9916609000063,1794.0098455999978,1794.9276673999848,1794.9276741000358,1796.444686200004,1797.462080700032,q,14.0,0.9178217999869958,1,+10,474,-8.01734145944637,-1.5002372343129693,4.921330516717104,1783661.0,-14.236283907307158,-0.28328993942157776,-2.354549008779803,1787194.0,,,,,1788.9894326835079,1785.456432683508,
123,63,23,F,1,3,115.0,1,3,low,8 - 7 + 9 + 1 + 4,15,15,14,16,1798.9790746000365,1801.0053995000198,1802.5205611999845,1807.5396096000327,1808.895748800016,1808.8957545000007,1810.4124503000055,1811.429235299991,q,15.0,1.356139199982863,1,+1,475,-4.3908999505371895,0.6297589620208539,0.0977689349866413,1797189.0,0.6908297843073914,-0.05759742439442306,0.1531993259988793,1800723.0,,,,,1802.5184326835079,1798.984432683508,
124,63,23,F,1,3,116.0,2,2,low,9 + 6 + 1 + 7 + 1,24,25,24,23,1812.945930099988,1814.9729175000105,1816.487883499998,1821.5061722000248,1822.551519300032,1822.5515281999835,1824.0682087999885,1825.0856945000123,w,24.0,1.0453471000073478,1,+1,476,12.90163103832612,-1.2199553168370052,2.507578463844789,1811157.0,0.15620396764715316,-0.17640036548573157,0.04030803942039718,1814690.0,,,,,1816.485432683508,1812.9524326835078,
125,63,23,F,1,3,117.0,3,3,high,2 + 9 - 3 + 4 + 1,13,14,11,13,1826.603169400012,1828.6311946000203,1830.1458733000327,1835.1646353999968,1836.1515473999896,1836.151553200034,1837.6680761000025,1838.6851995000036,e,13.0,0.9869119999930264,1,+10,486,-32.305251947907536,0.01802244168048972,-0.10253525516388584,1824815.0,-22.469567011474297,-0.28470156869577057,0.11515377488398215,1828349.0,,,,,1830.1444326835078,1826.610432683508,
126,63,23,F,1,3,118.0,4,3,high,8 + 6 - 7 + 1 - 4,4,5,3,4,1840.2020899000345,1842.2273784999848,1843.74281169998,1848.761379599979,1850.1195796999964,1850.1195854999823,1851.6360353000343,1852.653281899984,q,5.0,1.3582001000177115,0,+0,486,6.46775524220757,-0.1441001768640131,0.0772507490934966,1838411.0,-11.607641690945325,-0.318989568753973,0.015713455660141484,1841945.0,,,,,1843.7404326835078,1840.206432683508,
127,63,23,F,1,3,119.0,5,2,low,8 + 1 + 4 - 7 + 1,7,7,5,6,1854.1701518000336,1856.197543199989,1857.7132581000333,1862.7318584999884,1864.0635454999865,1864.0635514000317,1865.580025500036,1866.596872300026,q,7.0,1.3316869999980554,1,+1,487,36.607401789828145,0.7622603089029036,0.0856261417291293,1852381.0,-24.567038494118606,0.7050823985457955,0.09708275725134485,1855916.0,,,,,1857.7114326835078,1854.176432683508,
128,63,23,F,1,3,120.0,6,4,high,3 + 8 - 7 + 9 - 5,8,7,8,9,1868.1138677999843,1870.1411208999923,1871.6564553999924,1876.6753784000173,1877.8874730999812,1877.8874789000256,1879.4042857000024,1880.4217152000056,q,7.0,1.2120946999639273,0,+0,487,14.765794511522952,1.2680841960125093,0.13696868265444917,1866325.0,13.366378672169374,-0.33507006346450297,0.18119385349618566,1869859.0,,,,,1871.6544326835078,1868.120432683508,
129,63,23,F,1,3,121.0,7,1,high,4 + 9 + 1 - 1 - 1,12,11,13,12,1881.9382640999972,1883.9621472000144,1885.477244400012,1890.4951708000156,1891.919457799988,1891.9194633000295,1893.436138399993,1894.4532218999807,w,13.0,1.4242869999725372,0,+0,487,-45.9805183421436,0.4165176412976592,0.12205130367547712,1880146.0,-32.8045079059825,-0.21904583552571388,0.27725718109682074,1883679.0,,,,,1885.474432683508,1881.9414326835079,
130,63,23,F,1,3,122.0,8,1,low,3 + 1 + 1 + 9 - 1,13,12,13,14,1895.9699605000203,1897.9957935999848,1899.511281199986,1904.530274700024,1905.5595889000103,1905.5595946999963,1907.07628139999,1908.0931116000284,w,13.0,1.029314199986402,1,+1,488,23.566225827510067,0.6428494940238982,-0.47231870743334525,1894180.0,-21.163605087177835,0.37380572965058523,0.07641734914288723,1897713.0,,,,,1899.5084326835079,1895.975432683508,
131,63,23,F,1,3,123.0,9,3,high,2 + 1 + 9 - 7 + 6,11,13,11,12,1909.6098880000063,1911.637387500028,1913.1529080999896,1918.1714027000123,1919.135468700028,1919.135474300012,1920.651912899979,1921.6691260000223,w,11.0,0.9640660000150092,1,+10,498,-87.7701592918425,0.2064470683915749,0.43077674396629817,1907821.0,-5.292391024400828,-0.3654094068707492,-0.10164234092928082,1911355.0,,,,,1913.150432683508,1909.6164326835078,
132,63,23,F,1,3,124.0,10,1,high,9 + 1 + 1 + 7 - 1,17,16,17,19,1923.1861582000276,1925.2074709000296,1926.7226935999931,1931.7410364000243,1932.7434642000007,1932.743469599984,1934.26000900002,1935.277324500028,w,17.0,1.0024277999764308,1,+10,508,-15.322347388060743,-0.45796998449635495,0.03538233565395843,1921391.0,20.601309423335916,-0.14027676530590671,0.25574544327351867,1924925.0,,,,,1926.7204326835079,1923.186432683508,
133,63,23,F,1,3,125.0,11,4,low,9 + 4 - 6 + 8 + 7,22,24,21,22,1936.807485199999,1938.832017800014,1940.34726270003,1945.3657237000295,1946.783476600016,1946.7834821,1948.3004030000304,1949.317482499988,w,21.0,1.417752899986226,0,+0,508,-19.81773828470503,-0.06826257624746024,0.07875146684060441,1935016.0,12.129802954498441,0.060058849594883945,0.09241770350328382,1938549.0,,,,,1940.3444326835079,1936.811432683508,
134,63,23,F,1,3,126.0,12,2,high,2 + 9 + 1 + 1 - 5,8,6,8,7,1950.833966700011,1952.8595342999904,1954.375247500022,1959.3936222000048,1960.279517500021,1960.2795232000065,1961.7961705999917,1962.813350600016,w,8.0,0.8858953000162728,1,+10,518,31.124811615163402,0.4817814294767073,1.014020202947239,1949044.0,-26.883807979455266,0.6263064633431261,-0.29908735485906535,1952577.0,,,,,1954.372432683508,1950.839432683508,
135,63,23,F,1,3,127.0,13,2,low,8 + 1 + 9 + 1 - 5,14,13,14,15,1964.330317899992,1966.356180400005,1967.8714607,1972.890394599992,1973.7914199000224,1973.7914257000084,1975.3077868000253,1976.324708,w,14.0,0.9010253000305966,1,+1,519,-27.870986576999627,0.002602241235805103,0.0798442444932117,1962540.0,-15.334591417457837,0.21208092417960156,0.14841939335104515,1966074.0,,,,,1967.869432683508,1964.3354326835079,
136,63,23,F,1,3,128.0,14,1,high,2 + 1 + 9 + 1 - 1,12,12,11,13,1977.841634100012,1979.8676767,1981.3828260999871,1986.4012151000209,1987.2954141999944,1987.295420199982,1988.812107999984,1989.829402000003,q,12.0,0.8941990999737754,1,+10,529,-20.95978216631353,-0.21864173922858576,0.8718667927145132,1976051.0,-38.43045930011925,-1.5495976811364898,-1.6589370497598277,1979585.0,,,,,1981.380432683508,1977.8464326835078,
137,63,23,F,1,3,129.0,15,2,low,4 + 7 + 1 + 1 - 8,5,4,5,7,1991.346045400016,1993.3735062000344,1994.8887910000049,1999.9074774000328,2000.8554231000016,2000.8554287999868,2002.3720758000272,2003.388837300008,w,5.0,0.9479456999688408,1,+1,530,-30.429239539973885,-0.6172096313231776,0.08006093221198984,1989557.0,2.045109773640938,0.5524434305891779,0.07957333675502842,1993091.0,,,,,1994.8864326835078,1991.352432683508,
138,63,23,F,1,3,130.0,16,3,high,3 + 8 - 7 + 1 + 9,14,13,14,12,2004.9058892999888,2006.9332243999816,2008.448952000006,2013.46790779999,2014.7033877000213,2014.7033934000065,2016.220055999991,2017.237412300019,q,13.0,1.2354799000313506,0,+0,530,-42.902279474803464,0.4258177779473513,0.08686779416375856,2003117.0,-26.687059147476457,1.3195991311599,0.1552590170107493,2006651.0,,,,,2008.446432683508,2004.9124326835079,
139,63,23,F,1,3,131.0,17,1,low,7 - 1 + 1 + 9 - 1,15,15,14,13,2018.7540537000168,2020.7820303000044,2022.296343700029,2027.314510199998,2028.3194212000235,2028.3194326999944,2029.8359509999864,2030.852841600019,q,15.0,1.0049110000254586,1,+1,531,-66.42139416374671,-0.020137282090402664,-0.3345135108770849,2016965.0,56.3994729354738,0.8390881839477,-3.9535234376831214,2020498.0,,,,,2022.293432683508,2018.7604326835078,
140,63,23,F,1,3,132.0,18,2,high,4 + 9 + 1 - 7 - 1,6,6,5,8,2032.3696344000052,2034.3975581999985,2035.9127522000344,2040.931238899997,2041.8473385000248,2041.847344400012,2043.3638368999816,2044.3815357999997,q,6.0,0.9160996000282466,1,+10,541,0.8269943488279949,-0.4391128644929134,0.0043166792954836275,2030580.0,-7.501771761689307,0.39051081915720376,0.1935323274058396,2034114.0,,,,,2035.909432683508,2032.3754326835078,
141,63,23,F,1,3,133.0,19,1,high,8 + 1 + 1 - 1 - 4,5,3,5,6,2045.8982515999812,2047.9262783000013,2049.441505900002,2054.459204300016,2055.3113366999896,2055.311342500034,2056.8281049000216,2057.8454103000117,w,5.0,0.8521323999739252,1,+10,551,11.567017504149335,0.06703058614777735,-0.17088531618739422,2044109.0,6.950619224445958,-0.2775137386836084,-0.2891262823385099,2047643.0,,,,,2049.438432683508,2045.9044326835078,
142,63,23,F,1,3,134.0,20,3,high,8 + 5 + 1 - 7 + 9,16,17,14,16,2059.362175700022,2061.386624100036,2062.9018990999903,2067.92056649999,2069.279408100003,2069.2794140999904,2070.7953598999884,2071.8126440999918,q,17.0,1.3588416000129655,0,+0,551,19.870885307580295,0.006078497178798159,0.15249882751687416,2057570.0,-20.92741056283711,-0.22407597309232496,0.16144568918580782,2061104.0,,,,,2062.8994326835077,2059.365432683508,
143,63,23,F,1,3,135.0,21,1,low,7 + 1 + 5 + 1 - 1,13,12,13,14,2073.3299045999884,2075.356807700009,2076.872146799986,2081.890542400012,2082.895333399996,2082.895339199982,2084.4120165000204,2085.4291166000185,w,13.0,1.0047909999848343,1,+1,552,17.64199791745358,0.09855541315442995,-1.1450907088907858,2071540.0,-4.022280113991812,0.7490577340367164,0.012845982739051909,2075073.0,,,,,2076.8684326835078,2073.335432683508,
144,63,23,F,1,3,136.0,22,2,high,9 + 6 + 1 + 7 + 1,24,23,25,24,2086.946567600011,2088.973874700023,2090.488851799979,2095.506757299998,2096.519363600004,2096.519369699992,2098.0359738999978,2099.05323640001,e,24.0,1.012606300006155,1,+10,562,1.1303751747181288,0.007922578228506616,0.1113961111522328,2085157.0,-5.800727240881628,0.925550131502408,0.24126259651898296,2088690.0,,,,,2090.485432683508,2086.952432683508,
145,63,23,F,1,3,137.0,23,4,high,7 + 6 - 9 + 8 - 3,9,7,9,8,2100.570740700001,2102.5982605000027,2104.113294199982,2109.132004700019,2110.463336799992,2110.463342500036,2111.979876200028,2112.997005200013,q,7.0,1.331332099973224,0,+0,562,-8.378375955512297,-0.1956814919186849,0.020054009805304585,2098781.0,7.291301303660177,0.7144498956457808,0.9248544814226125,2102315.0,,,,,2104.110432683508,2100.576432683508,
146,63,23,F,1,3,138.0,24,2,low,7 + 5 + 1 - 1 - 8,4,4,2,3,2114.514045400021,2116.540390899987,2118.0554055999964,2123.0739220000105,2123.999274700007,2123.999282500008,2125.5159482000163,2126.5327248999965,q,4.0,0.925352699996438,1,+1,563,1.8596745690456504,0.43334962597172,0.32648651727224465,2112723.0,4.8814879041158985,-0.03126493651502926,-0.5861445583931895,2116257.0,,,,,2118.052432683508,2114.518432683508,
147,63,23,F,1,3,139.0,25,4,low,9 + 8 - 5 - 7 + 6,11,11,10,13,2128.049908599991,2130.078635199985,2131.593805200013,2136.6124827000317,2138.543241000036,2138.5432465000194,2140.0596593000228,2141.07669680001,w,10.0,1.930758300004527,0,+0,563,57.997021163599605,-0.2979808310664982,-0.0737395193653061,2126261.0,1.2638774444353,-0.6352060674455964,0.058723747491943534,2129795.0,,,,,2131.590432683508,2128.056432683508,
148,63,23,F,1,3,140.0,26,1,low,8 + 1 + 5 + 1 + 1,16,16,17,15,2142.5935993000166,2144.620711800002,2146.1352395000285,2151.152590600017,2152.2232837000047,2152.2232904999983,2153.7397754000267,2154.7567249999847,q,16.0,1.0706930999876931,1,+1,564,0.8655918354408616,0.19477535341998076,-0.13451284703732203,2140804.0,-48.56399338025406,0.09062827862870915,-0.026852818039579507,2144336.0,,,,,2146.1314326835077,2142.599432683508,
149,63,23,F,1,3,141.0,27,2,low,6 + 1 + 1 + 7 - 9,6,6,4,8,2156.273321799992,2158.3009237999795,2159.816223700007,2164.8358419000288,2165.855202100007,2165.8552079999936,2167.371699900017,2168.388644699997,q,6.0,1.0193601999781094,1,+1,565,-9.320545504539805,-0.6840501898412965,0.07645276225617881,2154483.0,27.57618589734013,-0.3050145715019008,-1.8692829040221932,2158018.0,,,,,2159.813432683508,2156.278432683508,
150,63,23,F,1,3,142.0,28,1,low,3 + 1 + 9 + 1 - 1,13,13,14,12,2169.9051685000304,2171.931122899987,2173.446438300016,2178.4646050999872,2179.4552931999788,2179.455299000023,2180.971950099978,2181.98853849998,q,13.0,0.9906880999915302,1,+1,566,-40.75447787109799,0.38650483250257617,-0.040243663743664726,2168114.0,5.619992505600671,0.13556686217573866,0.02166837598707083,2171647.0,,,,,2173.442432683508,2169.909432683508,
151,63,23,F,1,3,143.0,29,3,high,9 - 5 - 1 - 6 + 8,5,4,7,5,2183.5056827000226,2185.533725699992,2187.048996000027,2192.067500200006,2193.3433325000224,2193.343338400009,2194.859796500008,2195.877320999978,w,7.0,1.2758323000161909,0,+0,566,-23.091946693892048,-0.6434102915596678,0.07136020767948725,2181716.0,37.67227871953012,0.6387299138546236,0.44739251607837716,2185250.0,,,,,2187.045432683508,2183.511432683508,
152,63,23,F,1,3,144.0,30,4,low,3 + 8 - 4 + 9 + 7,23,23,24,22,2197.3942029000027,2199.420709600032,2200.936220200034,2205.9563277999987,2206.9511215999955,2206.951130500005,2208.4677992999787,2209.484655599983,q,23.0,0.9947937999968416,1,+1,567,-3.7120543439168046,-0.09371230381687834,-0.20464597350126823,2195603.0,-2.323928596153859,0.009592002636894748,0.0988819906482834,2199138.0,,,,,2200.933432683508,2197.398432683508,
153,63,23,F,1,3,145.0,31,3,high,4 + 7 + 1 + 9 - 5,16,17,18,16,2211.00159,2213.027627500007,2214.54282219999,2219.561544900004,2220.6151265000226,2220.615132200008,2222.1315509999986,2223.148546600016,e,16.0,1.0535816000192426,1,+10,577,-1.0590950638139933,-0.8592612806365842,0.07550020622284759,2209210.0,5.229921239873895,-0.3995075238025274,0.18896320307320003,2212744.0,,,,,2214.539432683508,2211.005432683508,
154,63,23,F,1,3,146.0,32,4,low,4 + 7 - 8 + 9 - 4,8,9,7,8,2224.6655146999983,2226.6937381000025,2228.208976600028,2233.2276167999958,2235.1276373,2235.1276429999853,2236.6441705999896,2237.661653999996,e,8.0,1.9000205000047568,1,+1,578,40.32004604545749,0.4349556420657086,0.1161175340507059,2222876.0,-41.634844962447936,0.033633074754221504,0.13019027324100274,2226410.0,,,,,2228.2054326835078,2224.671432683508,
155,63,23,F,1,3,147.0,33,1,low,5 + 9 - 1 + 1 + 1,15,15,17,13,2239.178878400009,2241.207218000025,2242.7225575000048,2247.740543199994,2248.6472045999835,2248.647210200026,2250.163771899999,2251.18063170003,q,15.0,0.9066613999893888,1,+1,579,-12.523250262730706,-0.5347194365657231,-0.06932903088179332,2237389.0,23.57819846441302,0.3352804371341813,0.12058006891018236,2240923.0,,,,,2242.7184326835077,2239.184432683508,
156,63,23,F,1,3,148.0,34,1,low,9 + 7 + 1 + 1 + 1,19,19,20,18,2252.6976200999925,2254.7221540000173,2256.2374428000185,2261.2553125999984,2262.2071915999986,2262.207196999981,2263.7235856000334,2264.7405407000333,q,19.0,0.95187900000019,1,+1,580,10.494842464730903,-0.30101924637674937,-0.4494142416130016,2250904.0,10.969522250333956,0.3577632751104103,-0.025254228441181414,2254438.0,,,,,2256.233432683508,2252.699432683508,
157,63,23,F,1,3,149.0,35,4,high,5 + 7 - 4 - 6 + 9,11,13,12,11,2266.257350600033,2268.2855052999803,2269.8006800999865,2274.819313600019,2275.7031403,2275.7031459999853,2277.2197225000127,2278.236471400014,e,11.0,0.8838266999810003,1,+10,590,47.63829502225124,1.4349866876372315,2.038556883481575,2264467.0,30.019121282374297,0.004335566302365201,0.3428425515854885,2268001.0,,,,,2269.796432683508,2266.262432683508,
158,63,23,F,1,3,150.0,36,3,low,3 + 8 + 1 + 5 - 9,8,7,8,9,2279.7531769000343,2281.7775961000007,2283.292748600012,2288.3109037000104,2289.159115199989,2289.1591210000333,2290.675617700035,2291.692782700004,w,8.0,0.8482114999787882,1,+1,591,-35.44333909549225,-0.15899805469354256,-0.07835438780781323,2277960.0,11.391124734548924,-0.15906449867514905,0.014227787389925917,2281493.0,,,,,2283.288432683508,2279.755432683508,
159,63,23,F,1,3,151.0,37,2,low,5 + 7 - 8 + 1 + 1,6,7,6,8,2293.209484299994,2295.237366400019,2296.752494400018,2301.77087030001,2302.863048600033,2302.863054000016,2304.379527000012,2305.396741900011,w,6.0,1.092178300023079,1,+1,592,12.516392517584798,0.9614888571894902,4.7493354802336984,2291419.0,-15.58702409027238,-0.11182285529550384,-0.16015868532318356,2294953.0,,,,,2296.748432683508,2293.2144326835078,
160,63,23,F,1,4,152.0,0,4,high,7 + 6 + 8 - 4 + 5,22,22,21,23,2327.0111554000177,2329.0392542000045,2330.5542624000227,2335.574207100028,2337.487046400027,2337.4870519000106,2339.0036862000125,2340.02077990002,w,21.0,1.9128392999991772,0,+0,592,-4.777385321257828,-1.890863843751399,0.9726982344421113,2325221.0,34.870696502839735,2.247253741802001,0.6052536752834023,2328756.0,,,,,2330.5514326835078,2327.016432683508,
161,63,23,F,1,4,153.0,1,1,high,7 + 1 + 4 + 1 - 1,12,11,13,12,2341.537661999988,2343.5626010000124,2345.077816200035,2350.0962919000303,2350.991010800004,2350.9910163999884,2352.5606350000016,2353.5778259999934,e,12.0,0.8947188999736682,1,+10,602,5.521170852245387,-1.7576362514901618,-5.736498328923478,2339744.0,-38.70253066698567,-0.03378933582754673,-0.6840141551863845,2343278.0,,,,,2345.0734326835077,2341.539432683508,
162,63,23,F,1,4,154.0,2,2,high,7 + 8 + 1 + 9 + 1,26,26,25,24,2355.094525600027,2357.121652300004,2358.6374612000072,2363.655428500031,2365.127023799985,2365.127029300027,2366.6438631000347,2367.661370599992,w,25.0,1.4715952999540605,0,+0,602,18.616130353517395,0.5018307731975407,1.2663233209638198,2353303.0,-2.1646435199108662,0.24519104754413235,-0.5450604271395565,2356838.0,,,,,2358.633432683508,2355.098432683508,
163,63,23,F,1,4,155.0,3,4,low,5 + 9 - 4 + 7 + 6,23,25,24,23,2369.1782705999794,2371.203204600024,2372.718328399991,2377.736685600016,2379.599039299996,2379.599045299983,2381.1155058000004,2382.1326635000296,e,23.0,1.862353699980304,1,+1,603,50.87641787529689,-0.41229364266133084,0.20032875950936768,2367385.0,24.993641512964263,-0.21041484780575548,-0.010151422911187868,2370918.0,,,,,2372.713432683508,2369.180432683508,
164,63,23,F,1,4,156.0,4,1,high,3 + 1 + 1 + 8 - 1,12,12,13,14,2383.6495367999887,2385.6769963999977,2387.1918928999803,2392.2099267999874,2393.0790347,2393.0790402999846,2394.595667099988,2395.612968100002,q,12.0,0.8691079000127502,1,+10,613,-10.390145902766527,0.5185884739157687,0.15322978557839884,2381859.0,2.3076934203287554,-0.04558454241240817,-0.3392942101806953,2385392.0,,,,,2387.1874326835077,2383.654432683508,
165,63,23,F,1,4,157.0,5,4,high,7 + 6 - 4 + 9 - 5,13,14,13,12,2397.1302782000275,2399.15400759998,2400.6688912999816,2405.689665200014,2406.5749659999856,2406.574971600028,2408.092240900034,2409.10935709998,w,13.0,0.8853007999714464,1,+10,623,-29.522967517673784,0.6415144450855319,0.06427717530302535,2395335.0,-17.89742001490207,-0.421443710858723,0.17652986272272675,2398871.0,,,,,2400.666432683508,2397.130432683508,
166,63,23,F,1,4,158.0,6,2,low,4 + 8 + 1 + 1 - 5,9,11,9,8,2410.626011100016,2412.6532611,2414.1683840000187,2419.186688599992,2420.0389528999804,2420.038958300021,2421.555401600024,2422.572294900019,w,9.0,0.8522642999887466,1,+1,624,51.96318213332766,-0.722743330260216,-0.02677941624384128,2408835.0,5.558267843642938,-0.3219378238445145,0.30259989330077053,2412368.0,,,,,2414.163432683508,2410.630432683508,
167,63,23,F,1,4,159.0,7,4,high,3 + 9 - 5 + 8 - 7,8,8,7,9,2424.088986199989,2426.116444099985,2427.631796800008,2432.6504177000024,2433.6549450000166,2433.6549509000038,2435.171782899997,2436.189196799998,q,8.0,1.0045273000141606,1,+10,634,-22.61343593015515,0.021881615246640784,0.24612189608134138,2422298.0,16.21402450288203,-0.49457505939350943,-0.6702171170545062,2425832.0,,,,,2427.627432683508,2424.0934326835077,
168,63,23,F,1,4,160.0,8,2,low,5 - 1 + 1 + 8 + 9,22,23,22,21,2437.706383500016,2439.734014099988,2441.249137900013,2446.2671098000137,2447.966994900024,2447.9670006000088,2449.483507700032,2450.500119000033,w,22.0,1.6998851000098512,1,+1,635,-9.458419702460588,-0.04765230110211238,0.10995666023815742,2435915.0,-15.515075022487924,-0.24764917405992293,0.046167949643910244,2439449.0,,,,,2441.244432683508,2437.710432683508,
169,63,23,F,1,4,161.0,9,4,low,4 + 7 + 8 - 3 + 9,25,25,24,26,2452.0162282999954,2454.0421522000106,2455.5582291000173,2460.5766207000124,2461.494970300002,2461.4949763999903,2463.0116085000336,2464.02807260002,q,25.0,0.9183495999895968,1,+1,636,-53.29736481225564,0.5474470025954057,-0.13610346193033696,2450224.0,-0.3380906394296028,-0.3633164381379279,-0.07437660873311613,2453758.0,,,,,2455.5534326835077,2452.019432683508,
170,63,23,F,1,4,162.0,10,4,high,3 + 9 - 5 + 6 + 8,21,22,21,23,2465.544697800011,2467.572558299988,2469.0883165000123,2474.1062981000287,2475.366974900011,2475.366980599996,2476.883720599988,2477.901155100029,q,22.0,1.2606767999823203,0,+0,636,3.172702700538588,0.3922991414462045,0.14186252476730576,2463754.0,-18.850507278812135,0.47169962526079257,0.2185968670591385,2467288.0,,,,,2469.083432683508,2465.549432683508,
171,63,23,F,1,4,163.0,11,1,low,6 + 1 + 1 + 9 - 1,16,14,16,15,2479.4185862999875,2481.4456916000345,2482.9614470999804,2487.9801028000074,2488.8468376999954,2488.846843699983,2490.3633385000285,2491.3806561999954,w,16.0,0.8667348999879323,1,+1,637,-19.17872296326124,-1.5221150960225858,2.5167853548454904,2477627.0,-4.439979823657488,-0.1722366752626061,-1.42591277244827,2481161.0,,,,,2482.956432683508,2479.422432683508,
172,63,23,F,1,4,164.0,12,1,high,4 + 1 + 1 + 7 - 1,12,12,14,13,2492.8969797000173,2494.925188400026,2496.4404666000046,2501.458900100028,2502.36734170001,2502.367347699997,2503.883483099984,2504.9007630000124,q,12.0,0.908441599982325,1,+10,647,-2.187933626674411,2.5681217843848807,9.825792218781112,2491106.0,-64.3546091504543,-0.18033137854692427,-0.625463999325305,2494640.0,,,,,2496.4354326835078,2492.901432683508,
173,63,23,F,1,4,165.0,13,4,high,6 + 7 + 9 - 3 + 5,24,23,22,24,2506.4179720000247,2508.442631200014,2509.957556199981,2514.976097800012,2516.030816000013,2516.0308212999958,2517.547202499991,2518.5655085000326,q,23.0,1.0547182000009343,0,+0,647,-9.656091568127657,-0.06040978643384065,0.09464014852994129,2504624.0,-6.461337879871321,-0.49298331777279447,-3.053374538852876,2508157.0,,,,,2509.952432683508,2506.4194326835077,
174,63,23,F,1,4,166.0,14,4,low,8 + 4 + 7 - 5 - 6,8,6,9,8,2520.0820416000206,2522.1099558999995,2523.6251622000127,2528.6439374000183,2529.574844399991,2529.57485059998,2531.091528800025,2532.1085329999914,e,8.0,0.9309069999726488,1,+1,648,-18.036320394270163,-0.13515500223873067,0.14295302551631384,2518291.0,9.889833790020656,-0.3359374886019575,0.004088473798201209,2521825.0,,,,,2523.6204326835077,2520.086432683508,
175,63,23,F,1,4,167.0,15,1,high,6 + 9 + 1 + 1 - 1,16,14,16,15,2533.625997400028,2535.6539039000054,2537.1691056999844,2542.187272500014,2543.1508799000294,2543.1508861000184,2544.667398700025,2545.6847970000235,w,16.0,0.9636074000154622,1,+10,658,4.724736641715509,-0.2866412587813345,0.11221036449086341,2531835.0,-4.946713214603703,0.08983013573887444,-0.11534428543247865,2535368.0,,,,,2537.163432683508,2533.630432683508,
176,63,23,F,1,4,168.0,16,4,high,6 + 9 - 7 + 8 - 5,11,13,12,11,2547.2015460000257,2549.227231700032,2550.7424981999798,2555.7611170000164,2557.206901800004,2557.2069081999944,2558.723386300029,2559.7407362000085,e,11.0,1.4457847999874502,1,+10,668,-2.367745061709977,0.06446247058547083,0.10212795498672667,2545408.0,1.3298936098488383,0.49861090130221175,0.24487533774178138,2548942.0,,,,,2550.737432683508,2547.203432683508,
177,63,23,F,1,4,169.0,17,3,low,7 - 1 + 8 - 6 + 4,12,13,11,12,2561.257617300027,2563.2844711000216,2564.799744900025,2569.818292399985,2571.174886599998,2571.1748921999824,2572.6922888000263,2573.7093134000315,e,12.0,1.3565942000132054,1,+1,669,-27.429968194710533,1.4748495085730946,5.452341418599024,2559465.0,-18.97050845680539,-0.19177639555188541,0.19513338136967628,2562999.0,,,,,2564.7944326835077,2561.260432683508,
178,63,23,F,1,4,170.0,18,4,high,5 + 7 - 4 + 6 + 9,23,25,24,23,2575.226853700005,2577.252336000034,2578.767327599984,2583.787564700004,2584.6307879000087,2584.630793299992,2586.147255400021,2587.164324700017,e,23.0,0.8432232000050135,1,+10,679,23.79901605371426,-2.877208345726987,-0.6882144729819477,2573433.0,6.352750607060881,0.1259327086184392,0.003793569727508439,2576969.0,,,,,2578.764432683508,2575.228432683508,
179,63,23,F,1,4,171.0,19,1,low,2 + 1 + 9 + 1 + 1,14,14,12,13,2588.681103400013,2590.707522700017,2592.2230019000126,2597.240984999982,2598.070773500018,2598.0707788,2599.587286400026,2600.604173800035,q,14.0,0.8297885000356473,1,+1,680,-55.90808938917061,-0.03674750448679909,0.28018850043411647,2586888.0,-2.529778332721209,0.1669843205583179,0.049914469057527944,2590422.0,,,,,2592.217432683508,2588.683432683508,
180,63,23,F,1,4,172.0,20,2,low,7 + 5 + 1 + 9 + 1,23,23,21,22,2602.121621700004,2604.148360899999,2605.6643259000266,2610.6826334000216,2611.6387803999824,2611.638786000025,2613.155557400023,2614.172523299989,q,23.0,0.9561469999607652,1,+1,681,-11.046277369434584,0.2058604418438552,-0.05636231947619641,2600329.0,-39.34427342804397,-1.2092144439332495,0.16635018838785798,2603864.0,,,,,2605.659432683508,2602.124432683508,
181,63,23,F,1,4,173.0,21,4,high,5 + 7 - 4 - 6 + 9,11,11,12,13,2615.6892808999983,2617.716708299995,2619.232848200016,2624.2511707000085,2625.550763699983,2625.5507697000285,2627.0673563000164,2628.084199499979,q,11.0,1.2995929999742657,1,+10,691,-0.4391609332795845,1.4601924400343975,0.06457608634968337,2613897.0,-0.5024391105112311,-0.7396631976147834,0.16944073958196593,2617432.0,,,,,2619.2274326835077,2615.692432683508,
182,63,23,F,1,4,174.0,22,1,low,8 + 1 + 1 + 1 - 3,8,6,9,8,2629.6010236000293,2631.62742959999,2633.142633999989,2638.162028699997,2639.150806199992,2639.15081219998,2640.667481000012,2641.6851269000326,e,8.0,0.9887774999951944,1,+1,692,15.378398033828544,-0.8546350330049783,0.11221887638208794,2627808.0,13.128447448709471,-0.1417497142268056,0.21657678301171823,2631342.0,,,,,2633.137432683508,2629.603432683508,
183,63,23,F,1,4,175.0,23,2,high,4 + 9 - 7 + 1 - 1,6,8,6,5,2643.202381899988,2645.22984689998,2646.7450737000327,2651.763875100005,2653.1347583000315,2653.1347646000213,2654.6522551000235,2655.6696848000283,w,6.0,1.370883200026583,1,+10,702,7.217525124190383,0.42667886365919916,0.049533747330824385,2641410.0,12.351741912180838,0.13561802587548843,0.0975458970759504,2644944.0,,,,,2646.739432683508,2643.2054326835078,
184,63,23,F,1,4,176.0,24,1,high,7 + 1 + 4 + 1 - 1,12,14,13,12,2657.18631249998,2659.2130731000216,2660.728238900017,2665.7484173999983,2666.8467363999807,2666.8467427000287,2668.365927900013,2669.382933699992,e,12.0,1.098318999982439,1,+10,712,19.25389817463195,0.2085841473757828,0.2934400952078531,2655393.0,-46.23734524733237,-0.6948246419638675,0.12147246061534056,2658929.0,,,,,2660.724432683508,2657.188432683508,
185,63,23,F,1,4,177.0,25,1,low,8 - 1 + 1 + 6 + 1,15,15,16,14,2670.899368999992,2672.926910899987,2674.4420768999844,2679.4599408999784,2680.4707890999853,2680.4707953000325,2681.98806220002,2683.0048063999857,q,15.0,1.010848200006876,1,+1,713,-30.95462028430606,0.11541885169403798,1.2838537166078041,2669107.0,-11.646955395510783,-0.2630329558738085,-0.11939169901686575,2672641.0,,,,,2674.436432683508,2670.902432683508,
186,63,23,F,1,4,178.0,26,3,low,7 - 1 + 9 - 5 + 4,14,14,15,13,2684.521611300006,2686.547669099993,2688.0628061000025,2693.082791600027,2694.046675999998,2694.046681499982,2695.563334800012,2696.580119499995,q,14.0,0.9638843999709934,1,+1,714,42.569551437627325,0.71031864417977,0.18387032636989997,2682728.0,10.732166214670581,-0.3869124626149514,-0.009495892790256422,2686263.0,,,,,2688.058432683508,2684.523432683508,
187,63,23,F,1,4,179.0,27,3,low,6 - 1 + 7 - 8 + 9,13,11,12,13,2698.097080699983,2700.1214191000327,2701.636500700028,2706.655056699994,2707.726663000009,2707.726669099997,2709.243350400008,2710.260055300023,e,13.0,1.0716063000145368,1,+1,715,1.96624079997393,-0.049380733502384366,0.20380377211423517,2696302.0,18.785696291876796,0.8572567390500847,0.09277886591306239,2699835.0,,,,,2701.630432683508,2698.097432683508,
188,63,23,F,1,4,180.0,28,2,high,4 + 1 + 9 + 1 - 6,9,9,8,7,2711.776570599992,2713.803756100009,2715.3187973999884,2720.336789200024,2721.3107529000263,2721.3107590000145,2722.827566699998,2723.844915500027,q,9.0,0.9739637000020592,1,+10,725,8.216989979764868,1.0953544014079668,-5.086878299254721,2709984.0,-5.604989362590311,-0.10178205920639183,0.06928841407452224,2713517.0,,,,,2715.3124326835077,2711.779432683508,
189,63,23,F,1,4,181.0,29,1,high,5 + 6 + 1 + 1 + 1,14,14,16,13,2725.361080400005,2727.38918280002,2728.904089000018,2733.921997199999,2734.9986535999924,2734.998659300036,2736.5152608000208,2737.532484000025,q,14.0,1.076656399993226,1,+10,735,24.45096020438516,0.29084265375462515,-0.234754258388024,2723569.0,18.192369938998006,-0.7146659117709371,-0.7079289208346506,2727102.0,,,,,2728.8974326835078,2725.364432683508,
190,63,23,F,1,4,182.0,30,2,high,3 + 8 - 5 + 1 + 1,8,9,6,8,2739.049668300024,2741.075489300012,2742.5911662,2747.608984999999,2748.6866940000327,2748.6867002000217,2750.2038513000007,2751.22111079999,e,8.0,1.077709000033792,1,+10,745,4.0478869742420365,-0.22934052176054287,0.023873947432163645,2737256.0,20.461250389148063,0.76585445164701,0.21739847135260404,2740789.0,,,,,2742.584432683508,2739.0514326835078,
191,63,23,F,1,4,183.0,31,2,low,5 + 1 + 7 - 6 + 1,8,7,8,6,2752.737430599984,2754.7643241999904,2756.2794788000174,2761.2981975,2762.206548099988,2762.2065542000346,2763.723052699992,2764.7399934999994,w,8.0,0.908350599987898,1,+1,746,38.02660153410394,-0.12028776410808018,0.1547194293685985,2750945.0,18.48391814505051,-0.33480568086658824,0.11083112255099103,2754478.0,,,,,2756.273432683508,2752.740432683508,
192,63,23,F,1,4,184.0,32,2,high,3 + 8 + 1 - 5 + 1,8,6,9,8,2766.2575628000195,2768.284898200014,2769.8003137999917,2774.8181701999856,2776.3590097000124,2776.3590163000044,2777.875393200025,2778.893027300015,e,8.0,1.5408395000267774,1,+10,756,21.001609235609557,-0.38120168846189006,1.2427668079571257,2764465.0,23.271382587881888,0.48617320459010305,0.07937572959120542,2767999.0,,,,,2769.7944326835077,2766.260432683508,
193,63,23,F,1,4,185.0,33,3,low,4 + 1 + 8 + 9 - 5,17,17,18,19,2780.4097483999794,2782.4372468999936,2783.952470500022,2788.971044900012,2789.9105358999805,2789.910541900026,2791.427314200031,2792.44415320002,q,17.0,0.9394909999682568,1,+1,757,-5.792599384276141,-0.04448830999366837,0.03602138492363394,2778617.0,-0.26958165817485735,-1.609534429514805,-3.624966667119643,2782151.0,,,,,2783.9464326835077,2780.412432683508,
194,63,23,F,1,4,186.0,34,1,high,7 + 1 + 4 + 1 - 1,12,12,13,11,2793.961018700036,2795.9852419000235,2797.50027150003,2802.5186931000208,2803.526579800004,2803.5265864999965,2805.042909900017,2806.0600203999784,q,12.0,1.0078866999829188,1,+10,767,14.672623793664332,2.425231424655724,1.5484625708596584,2792165.0,-0.18166267784794954,-0.05416778026508595,2.1479169102373596,2795699.0,,,,,2797.494432683508,2793.960432683508,
195,63,23,F,1,4,187.0,35,3,low,7 + 5 + 9 + 1 - 6,16,14,15,16,2807.5763511999976,2809.602492200036,2811.117243400018,2816.135521100019,2817.110503999982,2817.1105101000285,2818.6271431000205,2819.6438261999865,e,16.0,0.9749828999629244,1,+1,768,20.799214040596688,-0.3567428356717892,4.060432555523496,2805782.0,15.867511465609496,0.6260711135254349,0.19095789030886978,2809315.0,,,,,2811.110432683508,2807.577432683508,
196,63,23,F,1,4,188.0,36,2,high,2 + 1 + 9 - 4 + 1,9,8,9,11,2821.1606299999985,2823.1882003000355,2824.7034518999862,2829.7221241000225,2830.7185526000103,2830.7185582999955,2832.2351917999918,2833.2522578000207,w,9.0,0.9964284999878146,1,+10,778,-25.533413420394275,0.7353670256279283,0.3421623288518163,2819368.0,-14.890294130044838,0.6552256032310488,0.11688385477354046,2822902.0,,,,,2824.697432683508,2821.163432683508,
197,63,23,F,1,4,189.0,37,2,high,3 + 9 + 1 - 5 + 1,9,9,8,7,2834.7690649,2836.790819899994,2838.3061088999966,2843.324014600017,2844.30245800002,2844.3024637000053,2845.8190162000246,2846.8364522000197,q,9.0,0.978443400003016,1,+10,788,2.225252729249437,-0.10883885226483159,0.1259218171162937,2832971.0,-7.94331237589957,-0.42477688344921827,0.08068576583594789,2836504.0,,,,,2838.299432683508,2834.766432683508,
198,63,23,F,1,5,190.0,0,1,high,2 + 1 + 1 + 9 - 1,12,12,11,13,2866.066767600016,2868.095122700033,2869.610591100005,2874.630605800019,2875.662465000001,2875.6624709999887,2877.179093600018,2878.196548499982,q,12.0,1.0318591999821365,1,+10,798,-20.101477479847166,-0.8465166160716269,-0.5269146336809916,2864275.0,16.182569288111242,0.6223805430928149,0.04906113846513538,2867810.0,,,,,2869.605432683508,2866.070432683508,
199,63,23,F,1,5,191.0,1,2,low,9 + 1 + 6 + 7 + 1,24,24,25,23,2879.7134689000086,2881.73889779998,2883.2552559000324,2888.2743319,2889.470526300021,2889.470532300009,2890.987183500023,2892.003397200024,q,24.0,1.1961944000213407,1,+1,799,-10.95752097738261,0.5219225404482204,0.30054094244765883,2877918.0,-10.303434173238205,-0.01596943909146642,-0.057834055243380256,2881454.0,,,,,2883.249432683508,2879.713432683508,
