,id,age,sex,cued,block,trial,trialinblock,efflev,rewlev,calc,corAns,option1,option2,option3,tstart,ITI1Time,probTime,respTime,selectTime,ITI2Time,fbTime,ITI3Time,key_press,chosenAns,RT,acc,feedback,total_points,cuescr,cuecor,cuezyg,cuetime,probscr,probcor,probzyg,probtime,fbscr,fbcor,fbzyg,fbtime,probtime_c,cuetime_c,fbtime_c
0,64,23,F,0,Practice,,0,1,0,4 + 1 + 9 + 1 + 1,16,14,15,16,83.8355030999519,,83.83550529996864,88.97547750000376,90.77514439995866,90.77515050000513,92.29224759992212,93.3130821000086,e,16,1.7996668999549,1,Correct,0,,,,,23.69129025646221,-1.875496354325195,-0.2089777270967632,63146.0,-15.088346334733522,-0.648055443564699,-0.11191371694566232,71484.0,83.96080841847305,,92.29880841847304
1,64,23,F,0,Practice,,1,1,0,3 + 1 + 1 + 8 - 1,12,12,11,10,94.82980820001104,,94.82981129991822,99.85082379996312,100.7831035000272,100.7831091999542,102.30004369991366,103.31791729992256,q,12,0.9322797000641004,1,Correct,0,,,,,7.0400565051801545,-0.12543929497979756,0.1483397853332118,74022.0,-7.692757735149584,0.6623778783898095,0.03183741080466218,81489.0,94.83680841847305,,102.30380841847305
2,64,23,F,0,Practice,,2,2,0,8 + 1 + 6 + 1 - 4,12,10,12,11,104.83555910002906,,104.83556479995605,109.8555734999245,110.6471132999286,110.64711919997352,112.16467780002858,113.1829614000162,w,12,0.7915398000041023,1,Correct,0,,,,,-28.649049295420195,0.10869767410918829,0.5564745121961212,84026.0,-26.410462333068992,1.2864609533878353,0.05240037074940984,91354.0,104.84080841847305,,112.16880841847305
3,64,23,F,0,Practice,,3,2,0,9 + 4 - 6 + 1 - 1,7,7,6,5,114.70022989995778,,114.70023299998138,119.7203167999396,120.46290559996852,120.46291180001572,121.97937810001896,122.99653190001844,q,7,0.7425888000288978,1,Correct,0,,,,,-57.59757811628104,-0.040798611054058576,-0.949171627879037,93890.0,10.004476321888596,0.7560178337543948,-0.6815613418485076,101167.0,114.70480841847305,,121.98180841847305
4,64,23,F,0,Practice,,4,3,0,9 + 3 - 5 + 6 + 7,20,21,20,22,124.51332989998627,,124.51333340001293,129.53287699993234,130.25488619995303,130.25489219999872,131.7855455999961,132.80246309994254,w,20,0.7220092000206932,1,Correct,0,,,,,-60.290955309440854,0.14638265442254683,-0.39195515596578767,103703.0,10.026258801683914,-1.7792766144529208,-3.2938593315618774,110973.0,124.51780841847305,,131.78780841847305
5,64,23,F,0,Practice,,5,3,0,2 + 1 + 9 - 7 + 6,11,10,9,11,134.3195600999752,,134.31956340000033,139.33809420000762,140.0148791000247,140.01488519995473,141.53155880002305,142.5495628999779,e,11,0.6767849000170827,1,Correct,0,,,,,14.360105741229567,-0.6294314175085747,-2.3200274475010163,113509.0,3.8767814701307604,0.7261467966657813,-0.378928230551705,120720.0,134.32380841847305,,141.53480841847306
6,64,23,F,0,Practice,,6,4,0,4 + 8 + 5 - 3 + 7,21,23,22,21,144.06678390002344,,144.06678699993063,149.08815700002015,149.79904089996126,149.79904680000618,151.31592119997367,152.33418869995512,e,21,0.7108838999411091,1,Correct,0,,,,,14.844129909129933,-0.23446581732025118,0.10391307628729862,123258.0,5.7422886017647095,0.3427578415008701,0.1991926113540332,130505.0,144.07280841847304,,151.31980841847303
7,64,23,F,0,Practice,,7,4,0,5 + 8 - 4 + 6 + 9,24,24,23,22,153.85161339992192,,153.851616299944,158.87153499992564,159.5750394000206,159.5750450999476,161.09202719992027,162.10991549992468,q,24,0.7035044000949711,1,Correct,0,,,,,14.07899984460349,-0.16259031968308557,0.2657611234556647,133042.0,18.773318194008503,0.20621596789454522,0.5083774499315736,140280.0,153.85680841847307,,161.09480841847306
8,64,23,F,1,0,0.0,0,2,high,6 + 8 + 1 + 1 - 7,9,9,8,11,253.9405829999596,255.9867950999178,257.5021415000083,262.521477399976,263.2125126000028,263.2125179999275,264.7288516999688,265.7462568000192,q,9,0.6910352000268176,1,+10,10,1.2610828090958752,1.3798230743109299,-1.8438742063524054,233157.0,-5.757056630167981,0.2733867192659245,0.08273710579100868,236691.0,8.609137698047874,0.13320897376180474,-0.00487537977989394,243916.0,257.50580841847307,253.97180841847307,264.73080841847303
9,64,23,F,1,0,1.0,1,4,high,3 + 8 - 7 + 9 - 5,8,7,8,9,267.2628390999744,269.31185619998723,270.8270752999233,275.8456098999595,276.42052269994747,276.4205275999848,277.9371260999469,278.95451109996065,w,8,0.574912799987942,1,+10,20,-27.37174639717712,0.03892732266818788,0.012659199913388708,246482.0,-15.786046425768806,-0.4707106292537597,-0.05955447098926214,250016.0,3.4286095187826255,0.7437273150601875,0.44339878246147446,257124.0,270.83080841847305,267.29680841847306,277.93880841847306
10,64,23,F,1,0,2.0,2,4,high,5 + 7 - 4 + 8 + 6,22,23,22,24,280.4712766999146,282.4955410999246,284.01094319997355,289.029941399931,289.7085454999469,289.7085506999865,291.2252161999932,292.24252680002246,w,22,0.6786041000159457,1,+10,30,35.53279816727503,-0.9547681703677777,-2.681218203823266,259665.0,16.22084440001684,-0.3373393636885975,0.16118982641156565,263200.0,-1.2347038981767966,-0.4858869191933195,0.04309433466344936,270412.0,284.014808418473,280.47980841847306,291.226808418473
11,64,23,F,1,0,3.0,3,2,low,7 + 6 + 1 - 1 - 8,5,5,3,4,293.75927259994205,295.79624119994696,297.31152989994735,302.32958999997936,303.90850030002184,303.9085055999458,305.4252495999681,306.44216989993583,q,5,1.5789103000424802,1,+1,31,-11.032639889051175,-0.21993082671615394,0.00998643281643874,272966.0,1.5280437868968568,0.004991156110493833,0.12755448543942238,276500.0,4.797348129853731,0.9148380381083299,0.010544804338701308,284612.0,297.31480841847304,293.78080841847304,305.42680841847306
12,64,23,F,1,0,4.0,4,4,high,8 + 4 + 7 - 5 - 6,8,6,8,9,307.9588475999189,309.98425169999246,311.4995034999447,316.5182791999541,317.7484261000063,317.74843139993027,319.2650989999529,320.28234839998186,w,8,1.2301469000522047,1,+10,41,19.000983730938593,0.8838380707717923,0.13063662890020344,287154.0,-21.17942374756793,-0.2195110059267642,0.052624989496155905,290688.0,37.70105083100075,0.04732767039047037,0.14499781041743987,298452.0,311.502808418473,307.96880841847303,319.26680841847303
13,64,23,F,1,0,5.0,5,2,high,9 + 4 - 6 + 1 - 1,7,7,9,8,321.7990826999303,323.8249176000245,325.3397860999685,330.35893380001653,330.876434899983,330.87643970001955,332.3931942000054,333.41047539992724,q,7,0.5175010999664664,1,+10,51,-3.093973584190735,-0.21679462156643847,0.11667214381744984,300995.0,-6.160444151237538,0.12801184836092272,-0.005710404934637925,304529.0,-27.109961740536143,0.8769694206508896,-0.0867055507567649,311580.0,325.34380841847303,321.80980841847304,332.394808418473
14,64,23,F,1,0,6.0,6,4,high,4 + 9 - 7 + 8 + 5,19,19,20,21,334.9270787999267,336.9524102000287,338.4676435999572,343.4875832999824,344.04446919995826,344.0444744999986,345.5610466999933,346.57846559991594,q,19,0.5568858999758959,1,+10,61,-9.551299851488722,0.04666157474593158,0.03635071748347052,314122.0,8.092016447417302,0.32425099643467004,-0.026390438735614197,317658.0,10.474058257474663,-0.02159791012383705,-0.27307227575593407,324748.0,338.47280841847305,334.93680841847305,345.562808418473
15,64,23,F,1,0,7.0,7,4,high,6 + 5 - 7 + 8 - 9,3,4,3,5,348.09590429998934,350.11761319998186,351.63287319999654,356.6514790999936,357.1643589999294,357.16436399996746,358.6806126999436,359.6979653999442,w,3,0.5128798999357969,1,+10,71,3.2329829464279953,-0.38751079963294677,-0.1392425870015752,327287.0,31.46841857634792,0.7445559570941884,0.23712760947162792,330821.0,26.914503897230343,0.2805952142887831,-0.09048872247440087,337868.0,351.63580841847306,348.101808418473,358.68280841847303
16,64,23,F,1,0,8.0,8,4,high,8 + 3 - 4 + 5 + 9,21,23,21,22,361.215469299932,363.23880399996415,364.7539163000183,369.7723305999534,370.3403841999825,370.3403892000206,371.8567132999888,372.8734559000004,w,21,0.5680536000290886,1,+10,81,-1.9065112845443029,0.2606075932281944,0.2736561339314916,340408.0,-15.441470442594385,0.2567989213753812,0.16123890133990093,343942.0,40.3939313635388,0.1845833019113683,-0.044500489884296,351044.0,364.75680841847304,361.22280841847305,371.858808418473
17,64,23,F,1,0,9.0,9,2,high,9 + 4 + 5 + 1 - 1,18,18,17,19,374.39025950001087,376.4178130999208,377.93305049999617,382.950817200006,383.5644523999654,383.56445760000497,385.0811349999858,386.0986907000188,q,18,0.6136351999593899,1,+10,91,-23.157965024682618,3.924480305638694,1.3557147571020627,353587.0,-28.10454185776843,-0.7144206569645482,0.003579685770092933,357121.0,15.92718283257669,-0.48222551424643534,-0.06880640857956122,364268.0,377.935808418473,374.401808418473,385.082808418473
18,64,23,F,1,0,10.0,10,2,low,7 + 1 + 9 - 1 - 8,8,8,6,7,387.6158269000007,389.6437061999459,391.1589066999732,396.1774484999478,396.73236269992776,396.7323675999651,398.2490886999294,399.265862399945,q,8,0.5549141999799758,1,+1,92,4.3626767518172915,0.1563034251356905,-0.13237478946401682,366813.0,16.412743996889574,0.048842307320215106,0.04569108479406481,370347.0,-1.3482120298101847,-0.44746492633953006,0.07044002651742787,377435.0,391.161808418473,387.627808418473,398.24980841847304
19,64,23,F,1,0,11.0,11,1,high,7 + 1 + 4 + 1 - 1,12,11,12,13,400.7824283000082,402.8224520999938,404.3375840999652,409.3556542999577,409.8843086999841,409.88431400002446,411.4005992999301,412.4177003999939,w,12,0.5286544000264257,1,+10,102,-7.922202236090042,0.3819601228397902,0.05016243593436931,379992.0,-24.8734579287225,0.2170559367882312,0.1140668419612414,383525.0,-17.36371017089025,0.3687577435622629,-0.2605898154206838,390587.0,404.339808418473,400.80680841847305,411.401808418473
20,64,23,F,1,0,12.0,12,2,high,5 + 8 + 1 - 1 + 9,22,21,23,22,413.9340923000127,415.9616831999738,417.4770028999774,422.4952083999524,423.4043475999497,423.40435259998776,424.9204958999762,425.9367353999987,e,22,0.9091391999972984,1,+10,112,8.483637265130367,0.7496953640217634,0.05014610842739309,393131.0,-12.132120284983753,-0.03818437210025216,-0.17137166687647998,396665.0,-11.290493066414044,0.781217094022379,0.08697130265738462,404107.0,417.47980841847306,413.945808418473,424.92180841847306
21,64,23,F,1,0,13.0,13,4,high,8 + 4 + 7 - 5 - 6,8,8,9,6,427.4533277999144,429.480194899952,430.995551400003,436.0162116999272,436.4923356999643,436.4923407000024,438.0090533000184,439.0260484999744,q,8,0.476124000037089,1,+10,122,9.124267046351063,-0.23976697531442337,0.14895450632914642,406650.0,-20.13972001954051,0.7955953034817593,0.05189869558927418,410186.0,-14.292887789996234,0.896887427802743,0.2323039074325428,417196.0,431.000808418473,427.464808418473,438.01080841847306
22,64,23,F,1,0,14.0,14,2,high,4 + 1 + 9 + 1 - 6,9,7,9,8,440.5428685999941,442.5703925000271,444.08652619994245,449.1047714999877,449.7724286000012,449.77243399992585,451.28908249991946,452.3063323999522,w,9,0.6676571000134572,1,+10,132,3.9964619054668766,2.0959723687357963,1.2996583900166705,419740.0,9.050621930193996,-0.5696817461960242,0.07067281841459128,423274.0,9.201800499650979,0.6147410236571327,0.1431783369963684,430476.0,444.08880841847304,440.55480841847304,451.29080841847303
23,64,23,F,1,0,15.0,15,3,high,6 - 1 + 7 - 8 + 9,13,12,13,11,453.82316689996514,455.92041000002064,457.4355814999435,462.4540389999747,462.932371999952,462.9323768999893,464.44905199995264,465.4663111999398,w,13,0.4783329999772832,1,+10,142,15.652341455227518,0.007510112866286001,-0.01708737662690396,433090.0,28.323899230239178,-0.003488140735668388,0.06583358316665677,436624.0,-14.63728316830261,-0.023218347150646856,0.08234430892825895,443636.0,457.43880841847306,453.904808418473,464.45080841847306
24,64,23,F,1,0,16.0,16,4,high,5 + 6 - 4 + 7 + 9,23,24,25,23,466.9830619000131,469.00870729994494,470.5240712999366,475.5425557999406,476.3482715999708,476.3482768000104,477.86428929993417,478.8806613999186,e,23,0.805715800030157,1,+10,152,-11.139240620746321,-0.12523974785475467,0.16183576344923511,446178.0,-11.986009740206248,-0.09802103719135946,0.2741223198152509,449712.0,3.6680695217445205,-0.6444399379373014,-0.18944181205162502,457051.0,470.526808418473,466.99280841847303,477.865808418473
25,64,23,F,1,0,17.0,17,2,low,6 + 1 + 8 + 7 - 1,21,19,23,21,480.3975630999776,482.4252810999751,483.940514100017,488.9593947000103,489.4763129999628,489.4763174999971,490.9927058999892,492.00980509992223,e,21,0.5169182999525219,1,+1,153,15.067062210327222,0.0875237127504418,0.17897616847577047,459594.0,23.541014593311232,1.0702010266776392,0.19781200523429976,463128.0,15.139745240456826,-0.5795109454523839,-0.17991127224926684,470179.0,483.942808418473,480.40880841847303,490.993808418473
26,64,23,F,1,0,18.0,18,4,high,3 + 9 - 5 + 8 - 7,8,7,9,8,493.52642689994536,495.5545793999918,497.0699341999134,502.0891112999525,502.6202153000049,502.62022039992735,504.1364784999751,505.1542460999917,e,8,0.5311040000524372,1,+10,163,11.381606032504983,0.5388929900406785,0.08020597611442315,472724.0,22.219187462589925,0.43663884662188934,0.06956109266771682,476258.0,3.989124894522231,0.8710774721761916,0.38980285576088036,483323.0,497.072808418473,493.538808418473,504.137808418473
27,64,23,F,1,0,19.0,19,1,high,8 - 1 + 1 + 6 + 1,15,16,15,14,506.6710136999609,508.6959612999344,510.2111027999781,515.2291288999841,515.8922481000191,515.8922530999407,517.4087651999434,518.4247611999745,w,15,0.6631192000349984,1,+10,173,-6.342955897808573,0.198842645304377,-0.07131137908751306,485865.0,10.095042499910447,0.43268315549046577,0.17550152829576637,489398.0,-5.721463079839971,-0.9273962702437162,-0.11955883536135037,496595.0,510.21280841847306,506.67980841847304,517.4098084184731
28,64,23,F,1,0,20.0,20,3,low,4 + 7 - 3 + 5 - 1,12,12,11,13,519.9416327999206,522.0290859999368,523.5440562999574,528.5628536000149,529.044175799936,529.0441806999734,530.5606008999748,531.5776401999174,q,12,0.4813221999211237,1,+1,174,0.33045391688519743,0.2893047479021025,0.07402389699292478,499198.0,27.055865644724854,0.7081074799764364,0.010648326708239342,502732.0,-34.828037254484784,-0.18765977542122858,-0.35805587415189866,509747.0,523.5468084184731,520.012808418473,530.5618084184731
29,64,23,F,1,0,21.0,21,1,low,8 + 1 + 1 + 1 - 3,8,9,6,8,533.0945222999435,535.122646600008,536.6377968000015,541.6559925000183,542.3882300999248,542.3882349999622,543.9047858000267,544.9217587999301,e,8,0.7322375999065116,1,+1,175,20.29391163733769,1.3410710642257362,0.5878559296647059,512292.0,-9.693897122693205,0.1599993134501343,0.07905626604042437,515825.0,-12.747545308273818,-1.0010516679973307,0.11136211269298535,523091.0,536.6398084184731,533.1068084184731,543.905808418473
30,64,23,F,1,0,22.0,22,2,high,4 + 9 + 1 - 7 - 1,6,8,5,6,546.438624399947,548.4646428999258,549.979640699923,554.9998349000234,555.5161896999925,555.5161945999134,557.0323630999774,558.0495404999238,e,6,0.5163547999691218,1,+10,185,17.620151787200577,0.272872209955362,0.0391894089833964,525633.0,21.1168445714973,0.24957206930971942,0.14289064431894838,529169.0,12.167211119224469,0.35540767442893983,-0.21144096472569585,536218.0,549.983808418473,546.4478084184731,557.032808418473
31,64,23,F,1,0,23.0,23,1,high,6 + 9 + 1 + 1 - 1,16,14,15,16,559.5665186999831,561.5910565999802,563.1060707999859,568.1248117999639,568.7801827000221,568.7801876999438,570.296875,571.313975899946,e,16,0.6553709000581875,1,+10,195,-1.6283355175438645,-0.0010448658359640817,-0.0033816098424672703,538761.0,-21.250690836971188,1.005979860571566,0.19614829321330607,542294.0,-16.922654024193584,1.1460081338616166,-0.00847624577530981,549483.0,563.108808418473,559.575808418473,570.297808418473
32,64,23,F,1,0,24.0,24,4,low,7 + 6 - 9 + 8 - 3,9,8,7,9,572.8307366999798,574.8679442999419,576.3832224999787,581.4174562999979,582.1241386999609,582.124144100002,583.6404538999777,584.6575667000143,e,9,0.7066823999630287,1,+1,196,-13.302431632087474,-0.32119318090838433,0.256716511694965,552037.0,3.978135465261815,0.539987783264638,0.047296650694830245,555586.0,28.142865555469644,-0.3665776016562301,-0.08034248776885367,562826.0,576.400808418473,572.8518084184731,583.6408084184731
33,64,23,F,1,0,25.0,25,2,high,5 + 1 + 7 - 6 + 1,8,7,6,8,586.174898599973,588.1991542999167,589.7144118999131,594.7330511999317,595.5321820999961,595.5321874999208,597.0484148999676,598.0659087999957,e,8,0.7991309000644833,1,+10,206,5.586378349104605,-0.06525105018177513,-0.0073979800966799125,565368.0,-4.165493456363626,-0.28603194551269295,0.11868090706090317,568902.0,-6.053039249216704,-0.50738483879472,-0.09815937156077359,576235.0,589.7168084184731,586.1828084184731,597.049808418473
34,64,23,F,1,0,26.0,26,3,high,6 + 7 + 8 + 1 - 9,13,14,13,15,599.5828206000151,601.6101722000167,603.125634499942,608.1441313999239,608.8202046999941,608.8202105999226,610.3377300000284,611.354714200017,w,13,0.6760733000701293,1,+10,216,11.005574466589717,-0.27397051682194684,0.1984637745804141,578779.0,71.89676338358687,1.2807129645330408,0.059245441053460635,582313.0,11.414714857719549,0.29095582745783144,0.23589697691030942,589524.0,603.127808418473,599.593808418473,610.338808418473
35,64,23,F,1,0,27.0,27,3,low,4 + 1 + 8 + 9 - 5,17,17,19,18,612.8713003000012,614.8955133999698,616.4104476999491,621.4296633999329,622.0040832000086,622.0040889999364,623.5206842999905,624.537411199999,q,17,0.5744198000757024,1,+1,217,-51.16148810153771,0.13641822817581506,0.3015406918345991,592064.0,-29.08760504628671,0.2910302998179759,0.10228646692070154,595598.0,27.800208370345757,-0.3239810157059262,-0.17016128105984585,602706.0,616.412808418473,612.878808418473,623.520808418473
36,64,23,F,1,0,28.0,28,4,high,8 + 5 - 4 + 7 + 9,25,26,25,24,626.0549723999575,628.0828394999262,629.5981152999448,634.6164835999953,635.1561202999437,635.1561249999795,636.6724851999898,637.689872100018,w,25,0.5396366999484599,1,+10,227,-7.834415906846493,0.9340573070046032,0.025114313030884183,605251.0,14.558492902100742,-0.07937153670767394,-0.014728435097211001,608785.0,5.061098811522179,-0.45795728854130946,-0.15348545846966122,615858.0,629.599808418473,626.065808418473,636.672808418473
37,64,23,F,1,0,29.0,29,2,high,5 + 9 - 8 + 1 + 1,8,8,7,9,639.2073747999966,641.2347105999943,642.7500644000247,647.7681815000251,648.2440856000176,648.2440905999392,649.7606999999844,650.7786527000135,q,8,0.4759040999924764,1,+10,237,-60.95121541838099,-0.0009627688781082,0.24143630931628768,618403.0,-0.20664748708050595,0.09884225043450634,0.9288910341145664,621937.0,-17.23067259744286,1.4178882283427328,1.9817682897586444,628947.0,642.751808418473,639.217808418473,649.761808418473
38,64,23,F,1,0,30.0,30,3,high,4 + 1 + 8 + 9 - 5,17,18,17,19,652.2953231999418,654.3213663999923,655.836608099984,660.8559884999413,661.3240697999718,661.3240745000076,662.8402592999628,663.8571476999205,w,17,0.4680813000304624,1,+10,247,0.4626255313385599,-0.1415162833534156,0.16426580236798882,631490.0,14.32912775399334,-0.448762492583052,0.13070094059698745,635025.0,-18.454873973274424,-1.0363796782043906,-0.3063340434605264,642026.0,655.839808418473,652.304808418473,662.840808418473
39,64,23,F,1,0,31.0,31,2,low,7 + 8 + 1 + 9 + 1,26,26,24,25,665.3734803999541,667.4001136999577,668.9144001000095,673.9345118999481,674.4440337999258,674.4440383999608,675.9603930999292,676.978450799943,q,26,0.5095218999776989,1,+1,248,25.418071268705187,0.5904641140914073,0.12378905170307997,644569.0,27.475688199321233,-0.5079820435390219,-0.008975176495433557,648103.0,-0.07344484192276823,-1.195311643532146,-0.5524517206416759,655146.0,668.917808418473,665.383808418473,675.960808418473
40,64,23,F,1,0,32.0,32,1,low,2 + 1 + 9 + 1 - 1,12,13,12,11,678.4952372999396,680.5207041000249,682.0358719999203,687.0538931000046,687.5961216000142,687.5961271999404,689.1128034000285,690.1296737999655,w,12,0.5422285000095144,1,+1,249,-6.210278277999428,-0.07302580446198181,-0.057820629887422204,657690.0,-25.711528346417307,-0.15393476659691752,0.05910370837629175,661223.0,4.701733953243204,0.4185874634996445,-0.01890253129880648,668298.0,682.037808418473,678.5048084184731,689.112808418473
41,64,23,F,1,0,33.0,33,1,high,9 + 1 + 1 + 7 - 1,17,16,17,19,691.6466133999638,693.6738936000038,695.1881737000076,700.2068810999626,700.7720678999322,700.772073399974,702.2887107999995,703.3058633999899,w,17,0.5651867999695241,1,+10,259,12.400907598277007,0.873712581385468,0.26753099407098446,670842.0,8.171014573152162,0.20339345725152214,0.20067986188458709,674375.0,1.8567702717250354,-0.3247092918377197,0.12848138136450915,681474.0,695.189808418473,691.656808418473,702.2888084184731
42,64,23,F,1,0,34.0,34,3,low,7 - 1 + 8 - 6 + 4,12,11,13,12,704.8226520000026,706.8472646999871,708.3625378999859,713.396470699925,714.1001217999728,714.100127200014,715.627423799946,716.6453181999968,e,12,0.703651100047864,1,+1,260,-47.649863864441876,-1.120753611006772,-0.07302809235324137,684016.0,-11.706506020350997,-0.2394187059127404,0.05266757929052335,687565.0,14.999394492734822,0.8623705342247034,0.24153432732244595,694813.0,708.3798084184731,704.830808418473,715.627808418473
43,64,23,F,1,0,35.0,35,1,low,7 + 1 + 5 + 1 - 1,13,12,13,14,718.161940400023,720.1897030000109,721.7048611999489,726.7235042999964,727.228021799936,727.2280315000098,728.7442401999142,729.7611185000278,w,13,0.5045174999395385,1,+1,261,13.95864232902612,-0.45904585101788964,-0.03802249847641681,697358.0,9.163818079475615,0.006311180648307602,0.07077297410290084,700892.0,-16.00496707261022,0.9661651659964141,0.2874749149020226,707930.0,721.7068084184731,718.172808418473,728.744808418473
44,64,23,F,1,0,36.0,36,2,low,6 + 1 + 8 + 5 - 1,19,18,17,19,731.2779633000027,733.3059545999859,734.821002200013,739.8388608000241,740.420093899942,740.4200989999808,741.9367785999784,742.9536653999239,e,19,0.5812330999178812,1,+1,262,-15.541671858950075,0.5377695644946496,-0.1954824880924182,710475.0,-30.356159363882732,-0.3205097723244612,-0.00801042905224536,714007.0,2.337848470551778,-0.10969487488345031,-0.04266929980255396,721122.0,734.821808418473,731.2898084184731,741.936808418473
45,64,23,F,1,0,37.0,37,3,high,2 + 1 + 9 - 4 + 6,14,14,15,16,744.4702215999132,746.4975500999717,748.013444299926,753.0326744000195,753.6119658999378,753.6119711999781,755.1280343999388,756.1454760999186,q,14,0.5792914999183267,1,+10,272,-17.36003487601326,-0.3928746690775071,0.02923753793631989,723666.0,7.785470473065651,0.44195262697852433,1.7899605666934222,727201.0,-18.18372752875017,0.9793404030028072,1.7589788844873602,734314.0,748.0158084184731,744.4808084184731,755.128808418473
46,64,23,F,1,1,38.0,0,3,low,7 - 1 + 9 - 5 + 4,14,13,14,15,771.1125039999606,773.1374933000188,774.6525628999807,779.6729482000228,780.2280247999588,780.2280303000007,781.7449263000162,782.7631644000066,w,14,0.555076599936001,1,+1,273,3.9402169974021106,-1.8537759789250172,-0.32372731858020654,750306.0,1.8476701646418086,-0.2431543068761215,-0.11903498706071258,753841.0,-5.535394270832178,0.4452211817461067,-0.01606774045918491,760930.0,774.655808418473,771.1208084184731,781.744808418473
47,64,23,F,1,1,39.0,1,4,high,2 + 5 - 3 + 9 + 8,21,19,21,22,784.2802085999865,786.3021781999851,787.81736310001,792.8358614000026,793.3079612000147,793.3079662999371,794.8247609999962,795.842850200017,w,21,0.4720998000120744,1,+10,283,-2.8257635161597285,0.3424842068713936,0.19529980216576193,763470.0,2.9487086703024232,-0.18386801581288337,0.07734338820587938,767004.0,19.867118802645088,-1.577776791830527,-0.15676274632513265,774011.0,787.818808418473,784.2848084184731,794.825808418473
48,64,23,F,1,1,40.0,2,4,high,6 + 7 + 9 - 3 + 5,24,22,24,23,797.3596857999219,799.3812009999529,800.8962212000042,805.9152984999819,806.6359410999576,806.635949700023,808.1524674999528,809.1697770999745,w,24,0.7206425999756902,1,+10,293,-8.013335880726705,-0.38863661922136616,0.12552219583420787,776550.0,-7.331607191583997,0.570450030890012,0.0999037514349328,780083.0,-23.064968743167665,-0.3817180871301491,0.15118994758636561,787338.0,800.897808418473,797.364808418473,808.152808418473
49,64,23,F,1,1,41.0,3,1,low,6 + 9 + 1 + 1 - 1,16,16,14,15,810.6864904999966,812.7115388999227,814.2267298999941,819.2452228999464,821.0279540999327,821.02795899997,822.5440137999831,823.5609628999373,q,16,1.7827311999863014,1,+1,294,0.9221746234029808,-0.40262143596755795,0.04585472925600009,789880.0,23.68880993798547,0.7345237171472143,0.3117600541786816,793413.0,-25.681035287930108,-0.12373125554908793,0.082000934343047,801729.0,814.227808418473,810.694808418473,822.5438084184731
50,64,23,F,1,1,42.0,4,4,low,9 + 7 - 5 + 8 + 6,25,27,24,25,825.0776451999554,827.1051037999569,828.620307300007,833.6389020999195,834.1879249999765,834.1879300000146,835.7052046000026,836.7359751999611,e,25,0.5490229000570253,1,+1,295,16.007146317226027,0.334685947340577,-0.038421934883553055,804273.0,22.653756594561916,-0.10218261562578324,0.06231000389435026,807807.0,-5.049818062706581,0.2635987937445008,0.18728871358746169,814904.0,828.621808418473,825.0878084184731,835.718808418473
51,64,23,F,1,1,43.0,5,2,high,8 + 1 + 9 + 1 - 4,15,14,15,16,838.2529294999549,840.2785590999993,841.7938168999972,846.8125870999647,847.2119033000199,847.2119079999393,848.7287828000262,849.7617954999441,w,15,0.399316200055182,1,+10,305,15.735502923358482,-0.5947007749455504,0.05412082885849667,817447.0,15.117084945940046,0.40918837927913687,0.13239745044437035,820980.0,16.134366339129418,-0.5738397595398337,-0.3224580618488053,827930.0,841.794808418473,838.261808418473,848.744808418473
52,64,23,F,1,1,44.0,6,3,high,8 + 5 + 1 - 7 + 9,16,14,17,16,851.2785525999498,853.3054994000122,854.8206101999385,859.8390201999573,860.3958893999225,860.3958948999643,861.9119714000262,862.9294203999452,e,16,0.5568691999651492,1,+10,315,-2.130850953398973,0.27001253039409034,-0.07654706270353917,830474.0,-18.138819751826468,0.26905254838576154,0.3094618422753326,834007.0,25.46575790171699,0.12487849469149737,0.17831131794224375,841097.0,854.821808418473,851.2888084184731,861.911808418473
53,64,23,F,1,1,45.0,7,4,high,5 + 8 - 4 - 6 + 9,12,13,12,14,864.4467460999731,866.4714347999543,867.9869003000204,873.0067779999226,873.5079856999218,873.5079907999607,875.0246318000136,876.041865499923,w,12,0.5012076999992132,1,+10,325,-31.21194279087024,-0.5253669902848963,0.02732916286189324,843639.0,-14.54842665656371,-0.09780701072658315,-0.10142717877436014,847175.0,8.585240998548738,0.03785492194561124,-0.2081733520740774,854210.0,867.989808418473,864.453808418473,875.0248084184731
54,64,23,F,1,1,46.0,8,3,low,2 + 9 - 3 + 4 + 1,13,11,14,13,877.5597493000096,879.5843093999429,881.0997641999274,886.1179387000157,886.9398206999758,886.9398258000147,888.4571531999391,889.4744140999392,w,14,0.8218819999601692,0,+0,325,21.950244044645817,0.8809767153798624,0.21233403816839624,856751.0,-32.783693735822226,0.3130894052250155,-0.6394815474497768,860286.0,-5.954994789136431,0.7937323250461161,0.10649500674762047,893857.0,881.100808418473,877.565808418473,914.671808418473
55,64,23,F,1,1,47.0,9,1,high,2 + 9 + 1 + 1 + 1,14,12,13,14,890.9910343999509,893.0130685999757,894.5282728999155,899.5461225999752,900.0759394000052,900.0759447999299,901.5925198999466,902.6101843999932,e,14,0.5298168000299484,1,+10,335,-0.5190575318883752,0.5587696891555503,0.3028843480321368,870181.0,-6.604295933708277,-0.3625814883277356,0.1072762921677699,873714.0,26.696028445837754,-1.1442121598976107,0.059326015442999536,880778.0,894.5288084184731,890.9958084184731,901.592808418473
56,64,23,F,1,1,48.0,10,3,low,7 - 6 + 8 + 1 + 7,17,15,17,16,904.131358499988,906.1535275999922,907.6676721000111,912.6862208999228,913.1558882999234,913.1558933999622,914.6723227999172,915.6891673000064,w,17,0.4696674000006169,1,+1,336,-21.93588179493714,1.3400911178082495,0.12723354239496976,883321.0,35.66959961585519,0.09557342484120834,0.07931901352079906,886854.0,3.382475960604445,-0.04260457824108199,-0.022649008160624984,920040.0,907.6688084184731,904.1358084184731,940.854808418473
57,64,23,F,1,1,49.0,11,1,high,6 + 1 + 8 + 1 + 1,17,16,15,17,917.2059592999284,919.2289605999832,920.7438402000116,925.762071599951,926.299814100028,926.2998194999528,927.8167643999914,928.8340248999884,e,17,0.5377425000770018,1,+10,346,13.537455553333459,0.22221514845579504,0.1532626357644582,896396.0,5.9418668604648675,0.8436829626547402,0.3150439991188714,899930.0,-9.47534040504657,-0.9320224722817678,-0.5320594291306326,907002.0,920.744808418473,917.210808418473,927.816808418473
58,64,23,F,1,1,50.0,12,3,low,5 + 1 + 7 - 8 + 6,11,9,11,13,930.3507325999672,932.373042399995,933.8880115000064,938.9060456999578,939.3398068000096,939.339811499929,940.855859000003,941.8734825999708,w,11,0.4337611000519246,1,+1,347,-32.553778390256596,0.38767164634207685,0.3258425340672777,909541.0,54.198378396909824,-0.4890071630259487,-0.1994138327311712,913074.0,36.04605409566838,-1.1460655065919396,0.027776875660473266,946369.0,933.888808418473,930.3558084184731,967.1838084184731
59,64,23,F,1,1,51.0,13,4,low,3 + 8 - 5 + 9 - 7,8,7,6,8,943.3896804000252,945.4138726999518,946.9295811000048,951.9476537000156,952.5238220000174,952.5238270999398,954.0404511999805,955.057269699988,e,8,0.576168300001882,1,+1,348,1.8253466078104417,0.10909712411927153,-0.04531009841793954,922582.0,6.653457349999821,0.5581101089476048,0.171810590854091,926116.0,7.596552686452897,0.8816062709769255,-0.27586404058460356,933225.0,946.930808418473,943.396808418473,954.0398084184731
60,64,23,F,1,1,52.0,14,3,high,8 - 1 + 6 - 7 + 5,11,11,12,13,956.57402369997,958.6016985999886,960.1170610999689,965.1358004999348,965.6678153999384,965.6678204999772,967.1844287000132,968.2019281999674,q,11,0.5320149000035599,1,+10,358,23.916676591170194,-0.520942470741196,-0.020659920421942868,935769.0,-7.850630879562642,-0.3662845402403332,-0.11137831889801042,939304.0,5.932482959295024,-0.11949457572293598,-0.18947345505006408,985629.0,960.118808418473,956.583808418473,1006.443808418473
61,64,23,F,1,1,53.0,15,4,low,7 + 8 - 4 + 6 - 5,12,13,12,11,969.7187027999898,971.7461498000192,973.2612529000036,978.279820399941,978.8277492999332,978.8277544999728,980.3439167999896,981.3611390999286,w,12,0.5479288999922574,1,+1,359,20.936155024857367,-0.23881812130012836,-0.29509040129284436,948914.0,35.22964518276783,0.11796677768646946,-0.026567067044513726,952447.0,12.580937082089887,1.2011633438130795,0.6353686965845355,959528.0,973.261808418473,969.728808418473,980.342808418473
62,64,23,F,1,1,54.0,16,4,high,8 + 7 - 4 + 5 + 9,25,26,25,24,982.877486399957,984.9030374999855,986.418410299928,991.4384371999186,991.8357941999566,991.8357993999962,993.3531239000148,994.3703795999754,w,25,0.3973570000380277,1,+10,369,-19.71790549039737,0.040228194523064253,-2.73614695000705,962071.0,-8.320957373142097,0.4102011084690549,0.1351484761503441,965606.0,3.8592006527728024,-0.2140212695542898,0.14624876751229965,972538.0,986.420808418473,982.8858084184731,993.352808418473
63,64,23,F,1,1,55.0,17,3,high,2 + 1 + 9 - 5 + 6,13,13,11,14,995.8873588999268,997.9110637999838,999.4262680999236,1004.4453285000054,1004.9158054,1004.915810699924,1006.432400599937,1007.4619145999897,q,13,0.4704768999945372,1,+10,379,-22.762800514119537,0.3617422629966134,0.2893393505898225,975078.0,-19.150605274452847,0.2616654646461418,0.07730934802819278,978613.0,14.516270832644516,-1.1186736372629595,-0.06985812156167759,998698.0,999.4278084184731,995.892808418473,1019.512808418473
64,64,23,F,1,1,56.0,18,3,high,3 + 1 + 6 - 8 + 9,11,11,12,13,1008.9789595999756,1011.001005499973,1012.5170343000208,1017.5352813999634,1017.9957922999748,1017.9958143000258,1019.5129131999564,1020.5300448000198,q,11,0.4605109000112861,1,+10,389,-8.739089432192408,0.25194258716843576,-0.09468422247090036,988168.0,1.8400207984414294,0.33283651152244076,0.21109931534191806,991703.0,-19.433584854271707,-1.513390707074168,-0.06400878516413222,1025273.0,1012.517808418473,1008.982808418473,1046.087808418473
65,64,23,F,1,1,57.0,19,2,low,9 + 6 + 1 + 7 + 1,24,24,23,25,1022.0472141000208,1024.0747653999133,1025.589891099953,1030.6191107999766,1031.4596800999716,1031.4596851000097,1032.976113699959,1033.9929795999778,q,24,0.8405692999949679,1,+1,390,-9.0043270501218,-0.052111415845495834,-0.07336341232522647,1001242.0,-26.766729684812788,0.3108570527063361,0.1865002035522758,1004786.0,16.02194829627978,0.5571429770700478,0.2516232661412756,1012160.0,1025.600808418473,1022.056808418473,1032.974808418473
66,64,23,F,1,1,58.0,20,3,high,4 + 5 - 3 + 7 - 1,12,13,11,12,1035.5097905999282,1037.5361959999427,1039.0514170000097,1044.0717770999763,1044.5717159999767,1044.5717215000186,1046.0884680999443,1047.105915699969,e,12,0.4999389000004157,1,+10,400,2.050023719721535,-1.0677153130031285,-0.05962666462739019,1014704.0,25.388818192842507,0.0310361633555849,0.11454429157757606,1018239.0,-30.166957334622975,0.69887088991393,0.4943700703500191,1051841.0,1039.0538084184732,1035.518808418473,1072.655808418473
67,64,23,F,1,1,59.0,21,1,low,6 + 9 + 1 + 1 - 1,16,16,14,15,1048.623773899977,1050.6491687999803,1052.164407699951,1057.183316499926,1057.6996736999135,1057.6996785999509,1059.2160527999513,1060.2336521999678,q,16,0.5163571999873966,1,+1,401,11.740607555872556,-0.06175977701158253,-0.3303686199267133,1027816.0,28.77747913165308,0.15884643297601153,0.10761118729492924,1031351.0,17.133042248416572,0.06617555490852345,0.019169552627219755,1038400.0,1052.1658084184733,1048.6308084184732,1059.2148084184732
68,64,23,F,1,1,60.0,22,3,low,9 + 3 - 4 + 6 + 7,21,22,21,23,1061.7505846000277,1063.7763102999888,1065.2912815000163,1070.3119254999328,1071.139761199942,1071.13976619998,1072.656586700003,1073.672783899936,w,21,0.8278357000090182,1,+1,402,-1.9096693586595102,-0.47918630371398585,-5.19001962961673,1040944.0,-27.940163187751857,-0.09140352914349048,0.09203589124971745,1044479.0,-8.979045617391677,1.1518015974661546,0.08777767347022358,1065434.0,1065.2938084184732,1061.758808418473,1086.2488084184731
69,64,23,F,1,1,61.0,23,3,high,5 + 6 - 4 - 1 + 8,14,16,15,14,1075.189181499998,1077.213577699964,1078.7286006999202,1083.7478334999178,1084.7237343000015,1084.723739399924,1086.2400652000215,1087.267029199982,e,14,0.975900800083764,1,+10,412,-12.789068431126312,0.6441405475323299,0.25007449250333735,1054381.0,-28.743950518743063,-1.0422368535465427,-0.1206686666879726,1057914.0,5.2569466750284874,0.27060526053849454,-0.03492349157042751,1104968.0,1078.7288084184731,1075.1958084184732,1125.7828084184732
70,64,23,F,1,1,62.0,24,1,high,8 + 1 + 1 + 1 - 4,7,7,8,5,1088.7838979000226,1090.8092738999983,1092.3244096999988,1097.3577147999313,1097.8356204999145,1097.835625299951,1099.3518623999553,1100.3690685000038,q,7,0.4779056999832392,1,+10,422,3.2648995076624168,-0.37062315217449093,-0.12430641504479722,1067976.0,-61.20680041201496,-0.5599809142375705,0.08557596027384107,1071525.0,-15.19689837109981,0.705124390796283,0.27168570533252256,1078536.0,1092.3398084184732,1088.7908084184733,1099.3508084184732
71,64,23,F,1,1,63.0,25,2,high,8 + 1 + 9 + 1 - 5,14,15,13,14,1101.8858099000065,1103.9138069999171,1105.4288121999707,1110.4468031999422,1110.9958255999954,1110.995830699918,1112.5124555999646,1113.5297675000038,e,14,0.549022400053218,1,+10,432,19.71651853486852,-0.5470096030704221,-0.04204007043558211,1081081.0,-9.537342492675656,-1.0547962801716277,-0.6087177572425428,1084614.0,-18.236564997469326,0.15517824380915535,-0.6153073283486714,1091697.0,1105.4288084184732,1101.895808418473,1112.511808418473
72,64,23,F,1,1,64.0,26,3,high,6 + 8 + 7 + 1 - 9,13,13,15,14,1115.0468139000004,1117.0737692000112,1118.5890233999817,1123.6088885000208,1124.2676365999505,1124.2676421999931,1125.783962799935,1126.8008135999553,q,13,0.6587480999296531,1,+10,442,65.05188968422173,1.2152651468668565,0.13267079297071227,1094241.0,4.093090773057151,0.12365478416987674,0.1529013107784567,1097776.0,4.458980247449087,1.0026439084610113,0.5724970772982017,1171144.0,1118.5908084184732,1115.0558084184731,1191.9588084184732
73,64,23,F,1,1,65.0,27,1,high,4 + 8 + 1 - 1 - 1,11,11,9,13,1128.3171182000078,1130.341129599954,1131.8563468999928,1136.8743998999707,1137.347595899948,1137.3476006999845,1138.863674800028,1139.8808969999664,q,11,0.4731959999771788,1,+10,452,16.7817008985488,0.6719616126844263,0.1788718465414747,1107508.0,10.291190637299879,-0.06858988317740211,0.21456990170431367,1111041.0,-20.65144196445804,-0.6116631864787649,-0.22717042668349485,1118048.0,1131.855808418473,1128.3228084184732,1138.8628084184732
74,64,23,F,1,1,66.0,28,2,high,5 + 7 - 8 + 1 + 1,6,7,8,6,1141.3974366999464,1143.424699999974,1144.940211799927,1149.9588392999722,1150.6676771999337,1150.6676822999725,1152.1841444999443,1153.2012980999425,e,6,0.7088378999615088,1,+10,462,-34.002685484312686,0.056282290460730966,0.22523384489622367,1120591.0,-4.638339367445178,0.5283173959252552,0.20363461296170549,1124126.0,-6.422728660411,1.060183372721164,0.3124053775566309,1131368.0,1144.9408084184731,1141.405808418473,1152.182808418473
75,64,23,F,1,1,67.0,29,1,low,4 + 9 + 1 - 1 - 1,12,11,13,12,1154.7188668999588,1156.7468397999182,1158.2621603999287,1163.2801229999168,1163.971658000024,1163.9716637999518,1165.4883324999828,1166.5053072000155,e,12,0.6915350001072511,1,+1,463,47.23496773866653,0.022598925126017466,0.03631428673332149,1133913.0,25.953518050776772,0.5205030916557196,0.03215364930060205,1137447.0,0.016778799000910283,-1.1516868575075736,-0.061273824911778796,1144672.0,1158.261808418473,1154.7278084184732,1165.4868084184732
76,64,23,F,1,1,68.0,30,1,low,2 + 1 + 9 + 1 + 1,14,12,13,14,1168.0226733000018,1170.0463082999922,1171.5612725999672,1176.5791810000082,1177.315569599974,1177.3155745000113,1178.832012699917,1179.8488509999588,e,14,0.7363885999657214,1,+1,464,-19.674771929779364,0.48888697579935503,-0.0435266613701224,1147213.0,-6.402272211709077,0.05056879370321088,0.059110070764073486,1150746.0,17.082491082147953,-0.19341257028149128,0.005820856915631056,1158016.0,1171.5608084184732,1168.0278084184731,1178.8308084184732
77,64,23,F,1,1,69.0,31,3,high,8 + 3 + 1 - 7 + 9,14,14,15,12,1181.365707400022,1183.392963099992,1184.908529200009,1189.9272988999728,1190.443551399978,1190.4435562000144,1191.9596723000286,1192.9776572999544,q,14,0.5162525000050664,1,+10,474,-15.204861091584357,1.0663898942399936,0.23884421808290157,1160560.0,-18.24507188876152,-2.4276454504825504,-0.022224834238589564,1164094.0,-16.49199047275611,-0.009777811715030893,0.010613366794822499,1327967.0,1184.9088084184732,1181.374808418473,1348.7818084184732
78,64,23,F,1,1,70.0,32,4,low,3 + 8 - 4 + 9 + 6,22,21,23,22,1194.494274299941,1196.5194760999875,1198.0346167000243,1203.0542587999953,1203.6034750000108,1203.603479799931,1205.1199526999844,1206.1367731000064,e,22,0.5492162000155076,1,+1,475,-22.879121007291484,-1.2922735777145449,-0.4856442222770754,1173686.0,36.8517803746297,-0.28045899525667517,0.08522249638866453,1177221.0,4.673897124229881,0.017727285983565544,0.10920976454427578,1184304.0,1198.0358084184732,1194.500808418473,1205.1188084184732
79,64,23,F,1,1,71.0,33,1,high,7 - 1 + 1 + 9 - 1,15,13,15,14,1207.6544233999448,1209.682010599994,1211.197195100016,1216.2157230000012,1216.8515613999916,1216.8515666999156,1218.3682066999609,1219.385564199998,w,15,0.6358383999904618,1,+10,485,1.0435182664284675,0.3210338106743209,0.24283169685532036,1186849.0,6.738111424240288,-0.07154792636493168,-0.03809309722304288,1190383.0,10.87119259114079,-0.4834441905602205,0.20270799084676616,1197552.0,1211.1978084184732,1207.663808418473,1218.366808418473
80,64,23,F,1,1,72.0,34,4,low,5 + 7 - 4 + 6 + 9,23,25,23,24,1220.9021923999535,1222.9282867999282,1224.4438774000157,1229.4635882999282,1230.0115085999714,1230.0115137000105,1231.5277076999191,1232.5446031999309,w,23,0.547920300043188,1,+1,486,-16.487649646057356,0.11783405298630045,-0.20223578022802013,1200095.0,-23.092804076614787,-0.27680483516251053,0.1430526382212265,1203631.0,-10.529198169670604,0.6082622639197193,0.13754712580178952,1210711.0,1224.4458084184732,1220.9098084184732,1231.5258084184732
81,64,23,F,1,1,73.0,35,2,low,3 - 1 + 9 - 5 + 1,7,6,7,5,1234.061434299918,1236.0843371999215,1237.5996724999277,1242.618202399928,1243.011587099987,1243.0115921000252,1244.5276538999751,1245.5445126999402,w,7,0.3933847000589594,1,+1,487,1.5906078458900916,0.011903677710246363,-0.04309388185869345,1213251.0,-5.128474698404736,0.20432026092449096,-0.06656715862668405,1216785.0,44.33497321882068,1.2227324830507156,1.347820838235343,1223711.0,1237.5998084184732,1234.0658084184731,1244.5258084184732
82,64,23,F,1,1,74.0,36,2,low,2 + 9 - 4 + 1 + 1,9,11,8,9,1247.0611621999417,1249.0859968999866,1250.6011324999854,1255.6193063999526,1256.2994455000153,1256.2994502999354,1257.8156763999723,1258.8327962999465,e,9,0.6801391000626609,1,+1,488,0.03789727074505578,0.4582468097102175,-2.186660663348395,1226252.0,8.298517976812514,-0.5437230158568487,0.005498173017732144,1229786.0,-26.73877701768555,1.0701294884477686,0.018506994447343716,1236999.0,1250.6008084184732,1247.066808418473,1257.8138084184732
83,64,23,F,1,1,75.0,37,1,high,6 + 1 + 8 + 1 - 1,15,13,15,14,1260.3495501999278,1262.3764962999849,1263.8916523000223,1268.9118048999226,1269.379462699988,1269.379468100029,1270.896161600016,1271.9139339999529,w,15,0.4676578000653535,1,+10,498,-9.220381332431767,-0.09499308076631241,0.08165980315254884,1239543.0,2.476238281039105,0.7152837848023599,0.03236606641337736,1243078.0,-7.154864055555294,-0.1575552720385187,0.025641883494828877,1250080.0,1263.8928084184731,1260.357808418473,1270.894808418473
84,64,23,F,1,2,76.0,0,2,low,9 + 5 - 6 + 1 - 1,8,8,7,9,1298.151507099974,1300.1786538999297,1301.693737099995,1306.7129031999502,1307.3154198999982,1307.3154249999209,1308.8315722999396,1309.848591599963,q,8,0.6025167000479996,1,+1,499,-17.63205270538112,-0.7032348119603782,-0.19634703693409783,1277345.0,-5.930957452690494,-0.3809515553154452,0.03752303544882052,1280879.0,18.900410133241365,0.9432233918156974,1.2103510375871402,1288015.0,1301.693808418473,1298.1598084184732,1308.8298084184732
85,64,23,F,1,2,77.0,1,1,high,2 + 9 + 1 + 1 + 1,14,13,12,14,1311.3652028000215,1313.3921159999445,1314.9071297999471,1319.9250729000196,1320.7314868000103,1320.7314956999617,1322.248526499956,1323.2657645000145,e,14,0.80641389999073,1,+10,509,10.607471723026414,-2.1614759500905403,-3.4729944548795255,1290558.0,4.620506537470339,0.12658768064595227,-0.04859727418636184,1294091.0,23.621336488274544,0.28645099747611646,0.13280703079854206,1301432.0,1314.905808418473,1311.3728084184731,1322.2468084184732
86,64,23,F,1,2,78.0,2,4,low,4 + 7 + 9 - 5 + 7,22,23,24,22,1324.782965100021,1326.8098086999962,1328.3251170999138,1333.3433731999248,1334.0754360000135,1334.0754414999392,1335.591640300001,1336.608419399941,e,22,0.7320628000888973,1,+1,510,-5.707511777081688,0.09036634011862477,0.1426612216913492,1303976.0,4.410447790742232,0.04672433149521682,0.08088991547793611,1307510.0,-4.783122757004536,0.34648667318447424,0.14931642514535026,1314775.0,1328.3248084184731,1324.7908084184733,1335.5898084184732
87,64,23,F,1,2,79.0,3,3,high,3 + 8 - 7 + 1 + 9,14,14,12,13,1338.12522799999,1340.1514881999465,1341.6666214999275,1346.684644000023,1347.267450299929,1347.26745569997,1348.784097500029,1349.8011875000084,q,14,0.582806299906224,1,+10,520,-10.799482620381823,-1.3811094722593769,-0.008389324582989577,1317318.0,-16.732901438053947,0.04336115301154697,0.0035484667057390507,1320851.0,-25.229885016906877,-2.0845842250583577,-0.42872408781859384,1420231.0,1341.6658084184733,1338.1328084184731,1441.0458084184731
88,64,23,F,1,2,80.0,4,4,high,8 + 4 + 7 - 5 - 6,8,7,8,9,1351.3178612999618,1353.342091999948,1354.8573729000054,1359.8760036999593,1360.3314052999483,1360.3314106999896,1361.8485199999996,1362.8660775999306,w,8,0.4554015999892726,1,+10,530,16.686516835432464,0.2449388065373994,0.1780272252081101,1330508.0,-0.8258022895942254,0.15860481894820078,0.031038798072940743,1334042.0,-21.034225792584234,0.0389394000490384,0.12627720398417996,1341032.0,1354.856808418473,1351.3228084184732,1361.846808418473
89,64,23,F,1,2,81.0,5,2,high,6 + 1 + 7 + 5 - 1,18,18,17,16,1364.383380300016,1366.4093772999477,1367.924676799914,1372.9945889000082,1373.6354140000185,1373.6354192999424,1375.1527217000255,1376.1699218000283,q,18,0.6408251000102609,1,+10,540,16.26744356106403,0.7203276425158949,0.14680506294747842,1343576.0,-8.279870381065129,-0.6867650440172857,0.016004995060494798,1347161.0,-21.2717207624153,-0.30319168262277074,-0.2007989898340239,1354336.0,1367.9758084184732,1364.3908084184732,1375.1508084184732
90,64,23,F,1,2,82.0,6,4,low,4 + 8 + 9 - 3 + 7,25,25,24,26,1377.690952999983,1379.7264653999591,1381.2416769999545,1386.2600152000086,1386.8193042000055,1386.8193090999266,1388.3361195999896,1389.3530073999427,q,25,0.5592889999970794,1,+1,541,-6.477266782223339,0.16943619977771895,0.06312634132828499,1356893.0,10.051606263797307,0.3802328176846461,0.001586748680538097,1360426.0,4.846805766374647,0.24540042163544928,0.060026951397741835,1367519.0,1381.240808418473,1377.7078084184732,1388.3338084184732
91,64,23,F,1,2,83.0,7,4,low,2 + 9 - 6 + 8 - 4,9,11,9,7,1390.8700185000198,1392.896916299942,1394.4122224999592,1399.430244599935,1400.0113329999149,1400.0113381999545,1401.5276197999483,1402.544373899931,w,9,0.5810883999802172,1,+1,542,-26.034426420794652,0.27335674323704495,-0.009425849936308017,1370063.0,13.619628044208207,0.31974591684683906,0.04842807973637653,1373596.0,24.98230645546635,0.2784796427446292,0.14686246894537636,1380710.0,1394.4108084184732,1390.8778084184733,1401.5248084184732
92,64,23,F,1,2,84.0,8,2,high,3 + 8 + 1 - 5 + 1,8,8,9,6,1404.0610047000227,1406.0879126000218,1407.602928899927,1412.622210099944,1413.1633230999578,1413.163328499999,1414.6799743999727,1415.6975876999786,q,8,0.5411130000138655,1,+10,552,-10.887761943662031,0.41773478866240077,0.2865830904861686,1383253.0,-24.662507036448112,4.691767415508648,1.7103216475661722,1386787.0,16.872126374286506,0.59427233549432,0.1763351427694353,1393863.0,1407.6018084184732,1404.067808418473,1414.6778084184732
93,64,23,F,1,2,85.0,9,1,low,6 + 1 + 1 + 7 - 1,14,12,14,13,1417.2144077999983,1419.2417350999312,1420.7569803999504,1425.7752754000248,1426.3153785999166,1426.3153837999562,1427.831528199953,1428.848552200012,w,14,0.540103199891746,1,+1,553,-32.66786797505333,0.07762299105593584,-0.0032617266842180914,1396408.0,14.329240176926984,0.08261325558114363,0.051488865371349224,1399941.0,-20.774114097260913,0.5058680945703382,0.06057362270433542,1407014.0,1420.7558084184732,1417.222808418473,1427.828808418473
94,64,23,F,1,2,86.0,10,3,high,2 + 1 + 9 - 7 + 6,11,11,13,12,1430.3648974000243,1432.3924259999767,1433.906657399959,1438.9245496999938,1439.531306599965,1439.5313120000064,1441.0476298999274,1442.0649417999666,q,11,0.6067568999715149,1,+10,563,-10.614744484743973,0.2515403051600673,0.050645733543907,1409558.0,4.784418324166128,-0.08244067332216742,0.12052162969966607,1413091.0,7.744586363608473,-0.1564490018257656,-0.05303616649077414,1499927.0,1433.905808418473,1430.3728084184731,1520.741808418473
95,64,23,F,1,2,87.0,11,4,high,7 + 6 + 8 - 4 + 5,22,21,23,22,1443.581856200006,1445.6066089000087,1447.1219440000132,1452.1402379999636,1452.8993800999597,1452.8993852999993,1454.4160782999825,1455.4334735999582,e,22,0.7591420999960974,1,+10,573,-5.479750981042194,0.4710041371290452,0.14651271694433676,1422772.0,22.57638343858585,0.0009444405567604619,-0.015391951842291807,1426306.0,10.681055329707496,-0.2901206656496842,0.021461651133306336,1433599.0,1447.1208084184732,1443.586808418473,1454.413808418473
96,64,23,F,1,2,88.0,12,4,low,4 + 7 + 8 - 3 + 9,25,24,26,25,1457.0727147000143,1459.1043484000256,1460.6196718999415,1465.6383417999605,1466.323291699984,1466.323297200026,1467.8401525999652,1468.857300799922,e,25,0.6849499000236392,1,+1,574,-29.620095782548802,-0.7451757020472369,-0.004587483262498138,1436271.0,7.263550869646334,0.26991861199784495,0.0966359299197086,1439804.0,4.843550881219199,-0.3541908510891165,0.0430728785547001,1447023.0,1460.6188084184732,1457.085808418473,1467.837808418473
97,64,23,F,1,2,89.0,13,1,high,7 + 1 + 4 + 1 - 1,12,13,14,12,1470.374013899942,1472.4011890999973,1473.916472599958,1478.9347046000184,1479.4592174999416,1479.459222399979,1480.9756134999916,1482.0154241999844,e,12,0.5245128999231383,1,+10,584,3.103075984474291,0.015614306376358744,-0.0638481080232367,1449567.0,10.14817530419629,-0.25585071571143203,0.03456386041783466,1453101.0,-2.265092254017649,0.37052962673847434,0.1465648453871966,1460181.0,1473.9158084184733,1470.3818084184732,1480.9958084184732
98,64,23,F,1,2,90.0,14,4,high,9 + 3 - 5 + 8 + 6,21,19,21,23,1483.5320246999618,1485.5544778999174,1487.0697203999152,1492.087620300008,1492.7472765999846,1492.7472816000227,1494.2635120999769,1495.2807109999703,w,21,0.659656299976632,1,+10,594,19.31138815051595,-2.353485449462034,-2.360216901758184,1462720.0,5.000688129577451,-0.16289297457925578,-0.03851309196131192,1466254.0,-20.710022936504064,0.21891794865182446,0.3138543369712967,1473446.0,1487.068808418473,1483.5348084184732,1494.260808418473
99,64,23,F,1,2,91.0,15,4,low,4 + 7 - 8 + 9 - 3,9,9,11,8,1496.7974106000038,1498.820809399942,1500.3359821999911,1505.3544498999836,1505.987249800004,1505.987255499931,1507.524344699923,1508.5408693000209,q,9,0.6327999000204727,1,+1,595,26.882278975404237,1.1339061659571859,0.2550174974879551,1475986.0,-4.125625533371359,-0.5329775161362602,0.1261422428795742,1479520.0,-0.18921196976718324,-0.8466434846783293,-0.23666679664755286,1486707.0,1500.3348084184731,1496.8008084184733,1507.5218084184733
100,64,23,F,1,2,92.0,16,3,high,5 + 6 - 4 - 1 + 7,13,14,13,15,1510.0576605999377,1512.0846142999362,1513.599865199998,1518.6185956000118,1519.2272921999684,1519.2272977000102,1520.744041299913,1521.761196599924,w,13,0.6086965999566019,1,+10,605,-37.156421956699944,-0.3321150499476073,0.14607210259905412,1489250.0,12.638782658542528,-0.009432905544374481,0.05688213850571877,1492784.0,-2.9071832839711207,-0.4064391441846178,0.23966543231746007,1552662.0,1513.5988084184733,1510.0648084184731,1573.4768084184732
101,64,23,F,1,2,93.0,17,2,high,9 + 6 + 1 + 7 + 1,24,23,24,25,1523.2781689999392,1525.3032318999758,1526.8183493999531,1531.837774900021,1532.4112591999583,1532.411264800001,1533.9279001000104,1534.9450584999286,w,24,0.5734842999372631,1,+10,615,-8.641543903542058,1.6425986587282853,0.18101826265841803,1502469.0,20.42085821080932,0.26306968598376645,0.09828708996709867,1506003.0,-8.393523012757374,0.7130547677967813,0.3968150776333592,1513111.0,1526.817808418473,1523.2838084184732,1533.9258084184733
102,64,23,F,1,2,94.0,18,1,high,8 + 1 + 5 + 1 + 1,16,17,15,16,1536.461875799927,1538.48990159994,1540.0051022999687,1545.0231278999709,1545.619240299915,1545.619245599955,1547.1358324999455,1548.1537346999394,e,16,0.5961123999441043,1,+10,625,-5.731100438553278,1.2389879290636951,0.25938732862707603,1515655.0,-5.4484934868810395,-0.7146215080779483,-0.052737197298054594,1519188.0,-22.120045725732634,-0.8002683698972408,0.21125657850936141,1526319.0,1540.0028084184733,1536.4698084184731,1547.133808418473
103,64,23,F,1,2,95.0,19,2,low,6 + 1 + 1 + 8 - 9,7,5,7,9,1549.6709355999485,1551.6986557999626,1553.2139168999856,1558.2330242999597,1558.7712024999782,1558.7712075000163,1560.2875981000252,1561.30447610002,w,7,0.5381782000185922,1,+1,626,0.5511380451227694,0.9611441601677235,0.15247399460936384,1528864.0,-0.3930790046436181,0.5602125642209543,0.2955063563512299,1532398.0,22.49601844313473,-0.20144914685252946,0.1323128967138194,1539470.0,1553.212808418473,1549.6788084184732,1560.2848084184732
104,64,23,F,1,2,96.0,20,3,low,7 - 1 + 8 - 6 + 4,12,13,11,12,1562.821305999998,1564.8486589000097,1566.3640615999466,1571.3825671999948,1571.9631844999967,1571.9631895999191,1573.4795751000056,1574.4964036999736,e,12,0.5806173000019044,1,+1,627,-10.52862859467768,2.39902093955647,1.6354684459968603,1542014.0,-9.05901864622377,-1.3764745316981797,-0.9406945002552587,1545548.0,-9.64791802157789,0.37064481988142184,-0.3213999953658997,1592109.0,1566.3628084184732,1562.828808418473,1612.923808418473
105,64,23,F,1,2,97.0,21,1,high,7 + 1 + 4 + 1 - 1,12,12,13,11,1576.0135495000286,1578.0369423999218,1579.5530921999598,1584.5711734999204,1585.0671790000051,1585.0671839999268,1586.5831489999546,1587.6004651000258,q,12,0.4960055000847205,1,+10,637,-26.174300546100028,0.059412070396836825,-0.21778890858614797,1555202.0,-34.621248855681905,-0.7463102688391121,-0.10278868174169187,1558737.0,5.10868505192829,-0.5896514283688452,-0.044994712198764164,1565766.0,1579.5518084184732,1576.0168084184731,1586.5808084184732
106,64,23,F,1,2,98.0,22,4,low,5 + 9 - 4 + 7 + 6,23,23,24,25,1589.117276999983,1591.1414845000254,1592.6567422000226,1597.6751999999397,1598.2592062000183,1598.259210999939,1599.7758374999976,1600.7923270999454,q,23,0.5840062000788748,1,+1,638,-15.497798275009075,0.4459661410978142,0.08271636894981893,1568307.0,24.566187234452592,0.10884679190503377,-0.06800383265485688,1571840.0,-17.689794074402016,-0.4447388783599884,0.007674252408617743,1578958.0,1592.654808418473,1589.1218084184732,1599.7728084184732
107,64,23,F,1,2,99.0,23,3,low,7 + 1 + 9 + 5 - 6,16,16,14,15,1602.3089248000178,1604.336519000004,1605.851691299933,1610.870492300019,1611.4111462000292,1611.4111520999577,1612.9272517999634,1613.944016000023,q,16,0.5406539000105113,1,+1,639,-4.531488787969909,0.4011149798056337,0.2237920823250814,1581502.0,-7.147660409641396,-0.024004153587118715,0.026073032483786784,1585035.0,19.126298995561402,-0.16730416114396718,0.1295922066048394,1632054.0,1605.8498084184732,1602.316808418473,1652.8688084184732
108,64,23,F,1,2,100.0,24,1,high,9 + 7 + 1 + 1 + 1,19,18,20,19,1615.460889399983,1617.487279199995,1619.0023588999177,1624.021031399956,1624.7071371999336,1624.7071423999732,1626.223834299948,1627.241240000003,e,19,0.6861057999776676,1,+10,649,-3.0724317524037765,0.6287481639715375,0.2089433465129238,1594652.0,4.582411994160735,0.2991907181621487,0.013467882135089315,1598186.0,-2.20660661062702,-0.3328999361354841,0.19675799550865314,1605406.0,1619.000808418473,1615.4668084184732,1626.220808418473
109,64,23,F,1,2,101.0,25,4,low,3 + 9 - 4 + 7 + 6,21,21,19,20,1628.758095899946,1630.7852315999337,1632.3007343999343,1637.319106400013,1638.0111123999814,1638.011117300019,1639.5272418999812,1640.544136499986,q,21,0.6920059999683872,1,+1,650,52.1122563701191,0.7638302512730544,0.17612423952262346,1607950.0,-6.330758723974274,-0.22310594660195981,0.1357545539176226,1611484.0,5.507653490039093,-0.3738813537713268,-0.26749250812369985,1618709.0,1632.298808418473,1628.7648084184732,1639.5238084184732
110,64,23,F,1,2,102.0,26,3,low,8 + 6 - 7 + 1 - 4,4,3,5,4,1642.060496799997,1644.0880630000029,1645.6025640999433,1650.6210543999914,1651.3551635999463,1651.3551689999877,1652.8725195999723,1653.8893607999198,e,4,0.7341091999551281,1,+1,651,24.663785134491114,1.0677210723886694,0.39031066422894556,1621253.0,13.410396584232265,0.015782985883055822,0.03852138741804434,1624786.0,7.0600077670581065,-0.016168175194844814,0.23433493240139236,1685205.0,1645.6008084184732,1642.067808418473,1706.019808418473
111,64,23,F,1,2,103.0,27,1,low,6 + 1 + 1 + 9 - 1,16,15,14,16,1655.4061076999642,1657.434407099965,1658.948535899981,1663.9667500000214,1664.4751155999256,1664.4751207999652,1665.9914743999252,1667.0083556999452,e,16,0.5083655999042094,1,+1,652,-4.418420497040923,1.2585236178761465,0.09147422993895749,1634599.0,-16.83663952846979,-0.5968383339961165,0.1437383392114544,1638132.0,34.474328465399076,-0.5900318023263731,0.09752312011868658,1645173.0,1658.9468084184732,1655.413808418473,1665.9878084184732
112,64,23,F,1,2,104.0,28,2,high,6 + 1 + 1 + 7 - 9,6,6,8,4,1668.5250808999408,1670.5533356999513,1672.0683581000194,1677.0865314999828,1677.6831098999828,1677.6831150000216,1679.199617199949,1680.2176571999444,q,6,0.5965783999999985,1,+10,662,9.019517933361506,0.5408307387327653,1.7791796581130588,1647718.0,-16.27098675715768,0.1258942499717799,0.07659830030568626,1651252.0,-6.185621596768563,-1.3533165066856183,-0.21258919591704184,1658382.0,1672.066808418473,1668.5328084184732,1679.1968084184732
113,64,23,F,1,2,105.0,29,4,high,2 + 9 - 3 + 5 + 8,21,22,21,23,1681.7343897999965,1683.762258199975,1685.2774760000175,1690.295160699985,1691.331068099942,1691.3310734999832,1692.8478482000064,1693.8653442999348,w,21,1.0359073999570685,1,+10,672,-33.99486560875162,0.6870569962186299,0.14978768910665186,1660927.0,-12.85111075919335,-0.4104104058472986,0.09224568850782822,1664460.0,-2.414434846094389,0.4995723774085019,0.14559521416276922,1672030.0,1685.2748084184732,1681.741808418473,1692.8448084184731
114,64,23,F,1,2,106.0,30,3,low,4 + 8 - 9 + 1 + 7,11,13,9,11,1695.3821831999812,1697.406765599968,1698.922136600013,1703.9406108999392,1704.5071502999635,1704.507155600004,1706.0233998999463,1707.0405709999611,e,11,0.5665394000243396,1,+1,673,-6.334882111077103,-0.16866363804700857,0.18418931420818052,1674571.0,14.059437319579093,0.34802440163483306,0.15195144268111838,1678105.0,2.7579404296395857,0.06729544751895666,0.03844585720553395,1853420.0,1698.9198084184732,1695.385808418473,1874.2348084184732
115,64,23,F,1,2,107.0,31,1,low,3 + 1 + 9 + 1 + 1,15,17,15,14,1708.557310199947,1710.5849068999523,1712.1003331999527,1717.118424699991,1717.5151075000176,1717.5151128999423,1719.03135569999,1720.0479249999626,w,15,0.3966828000266105,1,+1,674,64.73067414555655,0.3481545592907458,0.19774965005403855,1687750.0,-9.644666747912428,0.1965060515984618,0.057050874634004156,1691283.0,-0.7030701901229914,-0.12211116540707412,0.16976888066240603,1698213.0,1712.097808418473,1708.5648084184731,1719.0278084184731
116,64,23,F,1,2,108.0,32,2,high,4 + 7 + 1 + 1 - 8,5,7,5,4,1721.565123999957,1723.5930489000166,1725.108274099999,1730.1267451000167,1730.6030667999294,1730.603071999969,1732.1193130000029,1733.1364630999742,w,5,0.4763216999126598,1,+10,684,-16.436190378485843,0.2787823455122638,0.13480999835126561,1700758.0,-43.79168451976518,0.010065225346760354,0.049147985532015825,1704291.0,-22.40425900653279,-0.4907484725434328,0.09864494898513798,1711301.0,1725.105808418473,1721.5728084184732,1732.115808418473
117,64,23,F,1,2,109.0,33,4,low,6 + 9 - 7 + 8 - 5,11,12,13,11,1734.6532526999945,1736.677063299925,1738.1926908999449,1743.2126128999516,1743.9549477000255,1743.954952799948,1745.4712645999389,1746.4880915000103,e,11,0.742334800073877,1,+1,685,-18.955169978744912,1.3502111597770936,0.8672030464375304,1713842.0,5.282332340132582,-1.4732682532772499,-0.4166957931061943,1717376.0,19.698500162503027,0.08147978743047712,0.17278646554856314,1724653.0,1738.1908084184731,1734.6568084184732,1745.4678084184732
118,64,23,F,1,2,110.0,34,1,high,5 + 8 - 1 + 1 + 1,14,12,14,16,1748.0047278000277,1750.0314047000138,1751.5467228000052,1756.5650697000092,1757.0110949999653,1757.0111000000034,1758.5276280000107,1759.5451574999606,w,14,0.4460252999560907,1,+10,695,-0.7574594953776312,0.040822479486151586,0.14477400333603851,1727196.0,-6.9028460524890365,0.30745065345637634,0.05894024822635302,1730730.0,8.284764046535933,0.4226130294913939,0.011150098506441886,1737710.0,1751.5448084184732,1748.010808418473,1758.5248084184732
119,64,23,F,1,2,111.0,35,2,low,8 + 1 + 4 - 7 + 1,7,5,7,6,1761.061994299991,1763.0902351000111,1764.6052509000292,1769.623815699946,1770.0509531999703,1770.05095840001,1771.5672922999363,1772.58397659997,w,7,0.4271375000244006,1,+1,696,3.8720816356232284,0.8331961633796703,-0.03121846595633282,1740255.0,5.618372229901386,0.0928129500161341,-0.02936014243067908,1743788.0,22.422861303711507,2.713566183120304,3.626983694693773,1750749.0,1764.6028084184732,1761.0698084184733,1771.5638084184732
120,64,23,F,1,2,112.0,36,1,high,3 + 1 + 1 + 9 - 1,13,13,12,14,1774.1006875999738,1776.1292291999562,1777.6444638000105,1782.662524299929,1783.1869162999792,1783.1869212000165,1784.7034346000291,1785.720783900004,q,13,0.524392000050284,1,+10,706,-34.48149772248029,-0.5164146785313255,0.04047089135555293,1753293.0,5.757348398186416,-0.6015653519852431,0.14417618352456119,1756827.0,19.92099972924229,0.2797317842486864,0.08735200268270527,1763885.0,1777.6418084184731,1774.107808418473,1784.6998084184731
121,64,23,F,1,2,113.0,37,2,high,3 + 1 + 8 - 5 - 1,6,6,7,5,1787.2376217999265,1789.266265299986,1790.7815133000258,1795.799641999998,1796.2749301999577,1796.2749350999948,1797.7919985000044,1798.8093279999448,q,6,0.4752881999593228,1,+10,716,-3.2553854612397544,-0.8538360026030807,-0.013000873647253552,1766431.0,3.1774374375329018,0.10067390094295581,-0.05987994965544963,1769964.0,1.5515162816418968,-1.6337797912025351,-0.22969806809081583,1776974.0,1790.778808418473,1787.2458084184732,1797.788808418473
122,64,23,F,1,3,114.0,0,2,low,3 + 8 - 5 + 1 + 1,8,8,6,9,1837.0554061000005,1839.0824413999217,1840.5977498999564,1845.617167099961,1846.2909567999889,1846.2909623999149,1847.8079618000197,1848.8241615999725,q,8,0.6737897000275552,1,+1,717,17.178611967210152,0.781247028175811,0.8157727272700259,1816246.0,3.0288376674831516,-0.6358881507463496,0.39442371501266393,1819781.0,-28.715612941442238,-1.4674164843361877,0.4789914237849082,1826989.0,1840.595808418473,1837.0608084184732,1847.8038084184732
123,64,23,F,1,3,115.0,1,2,low,2 + 1 + 9 - 4 + 1,9,8,11,9,1850.340891900007,1852.367543399916,1853.882750799996,1858.9008913999423,1859.49088529998,1859.49089060002,1861.0081295999696,1862.024872799986,e,9,0.5899939000373706,1,+1,718,19.83287741784392,0.6718094761172342,-1.9559433983709908,1829532.0,5.8744065446320235,-0.14678531011337093,-0.8876123878370135,1833065.0,1.8746741626513814,0.009667165490220953,0.055161625360865774,1840189.0,1853.8798084184732,1850.346808418473,1861.0038084184732
124,64,23,F,1,3,116.0,2,3,low,9 - 1 + 5 - 6 + 8,15,14,17,15,1863.5415972999765,1865.5676329999696,1867.0828806000063,1872.1022245999195,1872.722885099938,1872.7228902999775,1874.2393150000132,1875.2560913999328,e,15,0.6206605000188574,1,+1,719,54.43053402558295,0.7017651489482932,0.006913924858284126,1842732.0,-14.573597797928016,-0.07530243519302404,0.5281687539661943,1846266.0,10.434531157999025,-0.09522480492325913,0.18815048999878003,1893068.0,1867.0808084184732,1863.5468084184731,1913.8828084184731
125,64,23,F,1,3,117.0,3,4,low,3 + 9 - 5 + 6 + 8,21,21,22,23,1876.7729444999716,1878.79983569996,1880.315065299976,1885.333239199943,1885.8588679999807,1885.8588730000192,1887.374915099936,1888.3930341999512,q,21,0.5256288000382483,1,+1,720,14.362984940147813,0.31747792865466384,0.6089189670947639,1855964.0,-4.882592341858661,0.11423683134581708,-0.16204513030975454,1859497.0,19.328739929811814,1.191303423221054,0.5672397555432322,1866556.0,1880.3118084184732,1876.778808418473,1887.3708084184732
126,64,23,F,1,3,118.0,4,1,high,8 + 1 + 1 - 1 - 4,5,3,6,5,1889.9098758000184,1891.9374006999424,1893.4526996000204,1898.470938500017,1898.9948062999172,1898.994812299963,1900.5113295000049,1901.528774800012,e,5,0.5238677999004722,1,+10,730,-23.732003973500778,0.10806985233877331,0.021313457858105345,1869101.0,5.7379533938627345,-0.02266974439820979,0.3842517053430683,1872635.0,-10.653526258168625,0.625875571633649,0.4390210554040026,1879693.0,1893.4498084184731,1889.9158084184733,1900.5078084184731
127,64,23,F,1,3,119.0,5,3,low,3 + 1 + 8 - 5 + 6,13,15,13,14,1903.0456132999389,1905.0695892999647,1906.5848987000063,1911.6030874999703,1912.370881599956,1912.370886799996,1913.8875949999783,1914.90437559993,w,13,0.7677940999856219,1,+1,731,2.430288307093308,0.09453664795648709,0.2888558638288612,1882234.0,-5.373097352948125,0.14744793840673376,0.138548854950316,1885767.0,-4.0420271773886975,-0.35658650987849505,-0.48914719584187516,1919412.0,1906.5818084184732,1903.048808418473,1940.2268084184732
128,64,23,F,1,3,120.0,6,3,high,6 + 1 + 8 + 7 - 9,13,14,15,13,1916.4212333000032,1918.4475622000173,1919.9622827999992,1924.980653499952,1925.40292969998,1925.4029351000208,1926.919639699976,1927.936755899922,w,15,0.4222762000281364,0,+0,731,21.79432842054955,0.10019892821533993,0.38835672594053516,1895612.0,-39.23165840031949,0.1634923943320099,-0.23215451918755114,1899145.0,4.39135441567611,1.8243817986831203,2.779735979156044,2091260.0,1919.9598084184731,1916.4268084184732,2112.0748084184734
129,64,23,F,1,3,121.0,7,3,low,2 + 9 + 1 - 5 + 7,14,15,12,14,1929.45333379996,1931.479874099954,1932.9941938000263,1938.0132100000048,1938.714734799927,1938.7147399999667,1940.2310883000027,1941.2480133000065,e,14,0.7015247999224812,1,+1,732,14.529888574890354,0.35861667194540026,0.013714749636373202,1908644.0,15.34318261496546,1.5485482168623665,-0.2536320812240733,1912177.0,33.19575941089073,1.1874647950024604,0.3618129991232548,2143691.0,1932.991808418473,1929.4588084184732,2164.505808418473
130,64,23,F,1,3,122.0,8,1,low,3 + 1 + 8 + 1 + 1,14,14,12,13,1942.7647269999145,1944.7913390999893,1946.3067903999472,1951.3250607999507,1952.0428062999852,1952.0428120000288,1953.5589184999696,1954.5756649000105,q,14,0.7177455000346527,1,+1,733,-15.174481506966181,0.5233743591312923,0.0052662627885244895,1921955.0,22.46445303288842,0.03487069230487938,0.2516352501799388,1925489.0,29.2198808590251,1.3548828687552033,-0.350725658575056,1932739.0,1946.3038084184732,1942.769808418473,1953.5538084184732
131,64,23,F,1,3,123.0,9,1,low,5 + 1 + 1 + 9 + 1,17,16,19,17,1956.092431499972,1958.1158283000116,1959.6310190999648,1964.6486138999464,1965.2027649999363,1965.2027698999736,1966.7192167999456,1967.7359914999688,e,17,0.554151099990122,1,+1,734,32.45481160062978,-2.4664533954849803,-5.987256039913225,1935280.0,-1.3716319670260368,0.4259043898498396,1.071972746058829,1938812.0,13.879246522809618,-0.6332411313158199,-0.7483683588593597,1945900.0,1959.626808418473,1956.0948084184731,1966.7148084184732
132,64,23,F,1,3,124.0,10,2,low,4 + 9 - 7 + 1 - 1,6,5,8,6,1969.252711399924,1971.2809507999336,1972.796257299953,1977.815817499999,1978.338828100008,1978.3388331999304,1979.855374799925,1980.8722520999145,e,6,0.5230106000090018,1,+1,735,-15.280292968241326,-0.05550270083317432,-1.6536154501520905,1948445.0,41.36661480701978,0.2315694861872415,0.08708030060007599,1951979.0,19.916274409299273,-1.2208621035822689,0.295535888877243,1959036.0,1972.7938084184732,1969.259808418473,1979.8508084184732
133,64,23,F,1,3,125.0,11,2,high,2 + 9 + 1 + 1 - 5,8,8,7,6,1982.3885911999969,1984.414298799937,1985.929486399982,1990.9488248999696,1991.7228366999188,1991.722841599956,1993.2390713000204,1994.2566459999653,q,8,0.7740117999492213,1,+10,745,18.018204419409702,0.16221437868985067,0.19195212650470594,1961578.0,-3.336372379194848,0.13552445606509544,-0.10546051644691978,1965112.0,-20.460710461963494,-0.958156541786801,0.10969923977022189,1972420.0,1985.9268084184732,1982.3928084184731,1993.2348084184732
134,64,23,F,1,3,126.0,12,4,low,9 + 8 - 5 - 7 + 6,11,10,11,13,1995.7735101999715,1997.7961513999617,1999.311449299916,2004.3305750999132,2005.034729999956,2005.0347346999915,2006.5509545999807,2007.567964399932,w,11,0.7041549000423402,1,+1,746,-29.085498461215547,0.06762167273920539,0.0010947080295742317,1974960.0,10.857095963515082,-0.4870484347713018,0.32081571470046555,1978494.0,30.353736197382545,-0.4058801555957343,0.48808864457762136,1985732.0,1999.308808418473,1995.7748084184732,2006.5468084184731
135,64,23,F,1,3,127.0,13,1,low,3 + 1 + 1 + 8 - 1,12,13,14,12,2009.0849271999905,2011.108954199939,2012.6238805999749,2017.6432165999431,2018.346728099976,2018.346733400016,2019.864091699943,2020.881706199958,e,12,0.7035115000326186,1,+1,747,18.195384126572847,0.9096781853736846,0.957036958391372,1988273.0,25.353241077711964,-0.09978059421996588,-0.3668796432263597,1991807.0,-21.870662973493655,0.6798970265539857,-0.14408018153989222,1999045.0,2012.6218084184732,2009.087808418473,2019.8598084184732
136,64,23,F,1,3,128.0,14,1,low,3 + 1 + 8 - 1 + 1,12,13,12,10,2022.3995001999428,2024.426107599982,2025.9412928000093,2030.9595803000263,2031.4427373999497,2031.4427425999893,2032.9594339999603,2033.9761353000067,w,12,0.4831570999231189,1,+1,748,14.913717289494556,-0.5089457782353417,-0.007220245862576746,2001590.0,9.013738229807753,0.5534812932300444,-0.05800132283948711,2005123.0,-15.770212459562593,-0.6221202611459211,-0.27348167556642444,2012140.0,2025.9378084184732,2022.404808418473,2032.9548084184732
137,64,23,F,1,3,129.0,15,2,low,5 - 1 + 1 + 8 + 9,22,22,23,21,2035.492778999964,2037.5185507999267,2039.0337391999783,2044.051780499984,2044.714688999928,2044.7146939999657,2046.232135999948,2047.2492290999508,q,22,0.6629084999440238,1,+1,749,-3.7764615919673474,0.5508253008110939,-0.27205354044061414,2014682.0,-5.45715057437058,-0.05500744074068775,0.05374732809336136,2018215.0,44.77615001740052,-0.4004322195832781,0.3630363496382536,2025412.0,2039.029808418473,2035.4968084184732,2046.2268084184732
138,64,23,F,1,3,130.0,16,4,low,4 + 7 + 8 - 3 + 9,25,26,25,24,2048.7657370999223,2050.792771499953,2052.3080843000207,2057.326595999999,2057.986764399917,2057.9867699999595,2059.5033527999185,2060.5199208999984,w,25,0.6601683999178931,1,+1,750,-7.658778573137354,0.7905071648667663,-0.08558297426065575,2027956.0,31.943945605293642,0.6902999345894698,-0.1294109969275783,2031490.0,9.659396015639405,0.23045354892576908,-0.013832298064686555,2038684.0,2052.304808418473,2048.770808418473,2059.498808418473
139,64,23,F,1,3,131.0,17,1,high,5 + 6 + 1 + 1 + 1,14,16,15,14,2062.0370979999425,2064.062472600024,2065.5773729999783,2070.5951391999843,2071.2347096999874,2071.2347148000263,2072.751949599944,2073.769069199916,e,14,0.639570500003174,1,+10,760,-6.544941047727188,0.6138174614583236,0.0056602011125512774,2041226.0,-9.681531313097368,0.3158486493440926,0.2912307270086343,2044758.0,-18.03009976591171,0.33175068006413255,0.7341454482112666,2051933.0,2065.572808418473,2062.0408084184733,2072.747808418473
140,64,23,F,1,3,132.0,18,1,low,5 + 6 + 1 + 1 + 1,14,16,14,13,2075.285827799933,2077.3141668000026,2078.829475299921,2083.8469467000104,2084.298667300027,2084.2986723999493,2085.815050199977,2086.8312826999463,w,14,0.4517206000164151,1,+1,761,-12.559955053935443,0.7934162742974338,0.1104795743761704,2054477.0,-9.819203931986547,0.2124744592061747,0.17187885365842615,2058010.0,-21.822139104060106,-0.1595791894955032,-0.04645213795335357,2064995.0,2078.8248084184734,2075.291808418473,2085.809808418473
141,64,23,F,1,3,133.0,19,2,high,6 + 1 + 1 + 7 - 9,6,6,8,4,2088.3482814999297,2090.3755435999483,2091.890914099989,2096.910029400024,2097.466735700029,2097.466740799952,2098.984030399937,2100.001473699929,q,6,0.5567063000053167,1,+10,771,5.935787299246421,0.6302704843390918,-0.0428250533638721,2067539.0,14.448153752481591,-0.5322190504213862,0.10227188885698557,2071073.0,0.3280630284606785,0.31719132379131,-0.16211998267108574,2078164.0,2091.887808418473,2088.3538084184734,2098.9788084184734
142,64,23,F,1,3,134.0,20,3,high,3 + 1 + 8 - 5 + 9,16,17,16,15,2101.5178453000262,2103.5451840999303,2105.060485999915,2110.0785073000006,2110.5626711000223,2110.562676099944,2112.079679599963,2113.096894999966,w,16,0.4841638000216335,1,+10,781,-9.917628583567268,0.8082290046754981,-0.08819769862820337,2080708.0,1.9746676413571116,0.21624441507257908,-0.07635151853359656,2084242.0,36.05267024903847,0.21752971245481723,0.949273990754433,2236066.0,2105.0568084184733,2101.5228084184732,2256.880808418473
143,64,23,F,1,3,135.0,21,1,low,7 - 1 + 9 + 1 - 1,15,13,15,14,2114.613736799918,2116.639671299956,2118.154987799935,2123.1735383999767,2123.634606699925,2123.634611699963,2125.1514617999783,2126.167439299985,w,15,0.4610682999482378,1,+1,782,-13.298549977997698,-1.0509258813614215,-0.9459591694885918,2093803.0,-25.162126495093304,0.031040416996641174,-0.2514119126104828,2097337.0,-5.074702997689757,-0.7590208430784608,-0.11662316236308823,2104331.0,2118.151808418473,2114.617808418473,2125.1458084184733
144,64,23,F,1,3,136.0,22,1,high,4 + 1 + 1 + 7 - 1,12,14,12,13,2127.684040299966,2129.7117057000287,2131.22717879992,2136.2456803999376,2136.786648600013,2136.786653499934,2138.303278799984,2139.3206510000164,w,12,0.5409682000754401,1,+10,792,53.77591965168128,0.031652811828442484,-0.0681581732293135,2106875.0,13.436266379925263,-0.125916884545636,0.1263827611166377,2110409.0,-19.136590858120332,-0.47882930162474713,0.03525965836201772,2117484.0,2131.2238084184733,2127.689808418473,2138.298808418473
145,64,23,F,1,3,137.0,23,1,high,5 + 9 - 1 + 1 + 1,15,17,15,13,2140.8374621999683,2142.863420299953,2144.37890329992,2149.3968324000016,2149.8986473999685,2149.898652700009,2151.4148508999497,2152.4331122000003,w,15,0.5018149999668822,1,+10,802,-13.542500817052261,0.822830991476994,0.22864344610398857,2120026.0,-9.006233676699985,-0.01440414371131249,0.4912433595066028,2123560.0,3.87823445342136,-0.7872529224066738,0.2967189018430645,2130595.0,2144.374808418473,2140.840808418473,2151.409808418473
146,64,23,F,1,3,138.0,24,3,low,3 + 8 - 7 - 1 + 9,12,14,12,13,2153.9499340999173,2155.976736899931,2157.4919755000155,2162.5107537999284,2162.994675499969,2162.9946805000072,2164.5112845000112,2165.528739499976,w,12,0.4839217000408098,1,+1,803,15.338744989470026,1.0021926199492333,0.8909023238022353,2133140.0,10.948067985282101,-0.037220035632625326,-0.8461448178767945,2136674.0,19.841352494956915,0.6898892681818962,0.2284036360628081,2275714.0,2157.488808418473,2153.954808418473,2296.528808418473
147,64,23,F,1,3,139.0,25,4,low,5 + 8 - 6 + 7 + 4,18,18,17,19,2167.0452615999384,2169.0727949999277,2170.588172000018,2175.608538399916,2176.178536499967,2176.178541400004,2177.695517499931,2178.712421300006,q,18,0.569998100050725,1,+1,804,3.494614999726281,1.0254913886659272,-0.6435989141932397,2146236.0,-9.15122543978617,-0.3406706305004188,0.031106319442632202,2149772.0,-10.490174663889656,0.43216699597656305,0.4709098323451337,2156875.0,2170.586808418473,2167.050808418473,2177.689808418473
148,64,23,F,1,3,140.0,26,2,low,4 + 8 + 1 + 1 - 6,8,8,7,9,2180.229315000004,2182.254099700018,2183.769335799967,2188.788572699996,2189.282582100015,2189.2825875999406,2190.799968199921,2191.8168290000176,q,8,0.4940094000194222,1,+1,805,-8.293608925397091,1.3241773280298013,0.865034934642146,2159417.0,6.75350525171193,-0.09432446272771022,0.18485914822078908,2162951.0,-4.562236423106359,0.6219803844022751,-0.3288252255610735,2169980.0,2183.765808418473,2180.231808418473,2190.794808418473
149,64,23,F,1,3,141.0,27,2,low,6 + 1 + 7 - 8 - 1,5,4,7,5,2193.333225999959,2195.355570100015,2196.870585599914,2201.889093699981,2202.410490699928,2202.4104964999715,2203.927882399992,2204.9447709999517,e,5,0.5213969999458641,1,+1,806,-13.660797339794343,0.5875110325383499,0.051417830930458486,2172518.0,12.068347131335319,-2.902894285083681,-0.11355836248187323,2176052.0,11.973626152695743,0.8493251415817831,0.7585927414334965,2183108.0,2196.8668084184733,2193.332808418473,2203.9228084184733
150,64,23,F,1,3,142.0,28,2,high,7 + 6 + 1 + 8 + 1,23,21,23,22,2206.461791999988,2208.4851275000256,2210.00038089999,2215.020148499985,2215.6504639999475,2215.650469299988,2217.166753500001,2218.1837529999902,w,23,0.6303154999623075,1,+10,816,-6.483274467931994,0.27157260106329373,0.29742919378935184,2185648.0,-56.739042048933975,0.17531153760133655,0.019883116067248796,2189183.0,-19.634387961114307,0.6719882543696318,-0.21301466223201837,2196346.0,2209.997808418473,2206.4628084184733,2217.160808418473
151,64,23,F,1,3,143.0,29,1,high,2 + 1 + 9 + 1 - 1,12,12,13,11,2219.700463399989,2221.727131700027,2223.242405399913,2228.2613113999832,2228.786493899999,2228.78649879992,2230.3031677999534,2231.3203199999407,q,12,0.5251825000159442,1,+10,826,-24.511474502964244,0.3671565431322663,-0.25266945303938604,2198890.0,-17.18850406058026,0.25803925186976784,0.29387820928897335,2202424.0,8.7687474087729,0.7900297520039179,-0.47042826019967476,2209483.0,2223.238808418473,2219.704808418473,2230.2978084184733
152,64,23,F,1,3,144.0,30,4,high,4 + 7 - 8 + 9 - 4,8,8,7,9,2232.837048699963,2234.8611845999258,2236.3765433999943,2241.3959365999326,2242.042526299949,2242.042531299987,2243.558817000012,2244.5762754000025,q,8,0.6465897000161931,1,+10,836,3.3971276859167467,0.6411650949425907,0.02049263859347139,2212024.0,-11.677234222339848,0.410509831453008,0.11381295812478398,2215558.0,-19.446335609260647,-0.2508634503772065,0.09551027158415248,2222739.0,2236.372808418473,2232.838808418473,2243.553808418473
153,64,23,F,1,3,145.0,31,3,low,5 - 1 - 4 + 6 + 7,13,14,15,13,2246.09357789997,2248.120156000019,2249.635212299996,2254.6534195999848,2255.370555399917,2255.370560499956,2256.887153399992,2257.904085899936,e,13,0.7171357999322936,1,+1,837,-2.8678225659294974,0.5481572099610972,0.19484175935639136,2225283.0,-44.12075511620744,0.5928905160281777,0.1773002519339224,2228816.0,-14.704948652855776,-0.9677496317498755,-0.09500622205556875,2288843.0,2249.630808418473,2246.097808418473,2309.657808418473
154,64,23,F,1,3,146.0,32,2,high,7 + 5 + 1 + 9 + 1,23,21,23,22,2259.420920299948,2261.447671599919,2262.9629184999503,2267.980838699965,2268.602500899928,2268.602506299969,2270.1185914999805,2271.1357938,w,23,0.6216621999628842,1,+10,847,-2.242355179903516,-1.05618486609798,-0.3319936444577696,2238610.0,3.465939240839967,-0.3088101279896094,-0.5480162667818216,2242143.0,14.413579533075241,1.1945166447365727,0.3195317279987959,2249298.0,2262.957808418473,2259.4248084184733,2270.112808418473
155,64,23,F,1,3,147.0,33,1,low,3 + 1 + 9 + 1 - 1,13,12,13,14,2272.652586399927,2274.679523599916,2276.194602399948,2281.2138220999623,2281.674500599969,2281.6745054000057,2283.191133999964,2284.208011699957,w,13,0.4606785000069067,1,+1,848,-5.942357582241497,0.7678986567250754,0.17043269030635888,2251842.0,-32.47395356446492,0.2326553484755376,0.03035562507770373,2255376.0,4.247318879423117,-1.107116585592136,-0.13151741791013905,2262370.0,2276.1908084184734,2272.6568084184732,2283.184808418473
156,64,23,F,1,3,148.0,34,3,low,7 + 5 + 9 + 1 - 6,16,15,14,16,2285.724709399976,2287.752496299916,2289.2685486000264,2294.286926099914,2295.018540899968,2295.018546100008,2296.5351987999165,2297.5518903000047,e,16,0.7316148000536487,1,+1,849,10.60975754248805,0.3691648743955538,0.050493923172734156,2264915.0,5.063202575076968,-0.27004214708052565,0.07405315201320661,2268450.0,20.789796222670304,1.294536867279401,-0.08189909449369703,2435010.0,2289.264808418473,2285.729808418473,2455.8248084184734
157,64,23,F,1,3,149.0,35,3,high,2 - 4 + 9 + 7 + 1,15,15,16,13,2299.0684638000093,2301.091756799957,2302.60695409996,2307.6254407999804,2308.1464567999355,2308.1464617999736,2309.663221299997,2310.6806264999323,q,15,0.5210159999551252,1,+10,859,13.30537891855965,0.9375977956567851,0.28226322924530245,2278254.0,-14.483722643925226,-0.25502386604809857,0.2798758853526446,2281788.0,11.295730371910537,5.834402855695605,2.4084299355672565,2474689.0,2302.602808418473,2299.068808418473,2495.503808418473
158,64,23,F,1,3,150.0,36,3,low,6 - 1 + 7 - 8 + 9,13,11,12,13,2312.197651099996,2314.2198617999675,2315.7348123999545,2320.7536011999478,2322.242353299982,2322.242358200019,2323.7588190999813,2324.7756629999494,w,12,1.4887521000346169,0,+0,859,-6.072871851665578,0.4813031449854104,0.779994089326117,2291382.0,-10.117738879832256,-0.0009234957150878742,0.027074920254452906,2294916.0,27.541272412563583,-0.49616431276605777,-0.06121359641823876,2528145.0,2315.7308084184733,2312.196808418473,2548.959808418473
159,64,23,F,1,3,151.0,37,1,low,4 + 7 + 1 - 1 - 1,10,10,11,9,2326.2923954,2328.319449499948,2329.8347041999223,2334.8530900999904,2335.442368299933,2335.4423731999705,2336.9583026999608,2337.974961000029,q,10,0.5892781999427825,1,+1,860,-9.040755907158111,0.5071321280863992,-0.06991746969751755,2305482.0,15.86012174740221,-0.2403429298198514,-0.19404438564983284,2309015.0,2.039367289210128,0.2538362605867821,0.031915331902480304,2316137.0,2329.829808418473,2326.296808418473,2336.9518084184733
160,64,23,F,1,4,152.0,0,2,low,9 + 1 + 6 + 7 + 1,24,25,24,23,2378.5344822999323,2380.5621895999648,2382.0774440999376,2387.096429499914,2387.7622954000253,2387.762300399947,2389.279297299916,2390.2960597999627,w,24,0.6658659001113847,1,+1,861,22.865375202059056,-6.95841974653846,-5.627799214719818,2357724.0,-24.11502047861453,0.6231707133650706,0.05797435552952179,2361258.0,-21.772390992137524,0.2531467948844228,0.09945720439009054,2368458.0,2382.072808418473,2378.5388084184733,2389.2728084184732
161,64,23,F,1,4,153.0,1,2,low,8 + 1 + 1 + 9 - 4,15,14,16,15,2391.812703399919,2393.8374727999326,2395.3526639000047,2400.3706865999848,2401.170316000004,2401.170321399928,2402.687358699972,2403.704522899934,e,15,0.7996294000186026,1,+1,862,36.51095410289849,0.3786406974194896,0.2025842023097546,2370999.0,-30.4685213257895,1.0822207298734199,0.11840551337487693,2374533.0,-56.84216827285732,-0.8067494188393525,0.027567403039050253,2381866.0,2395.347808418473,2391.813808418473,2402.680808418473
162,64,23,F,1,4,154.0,2,4,high,3 + 8 - 4 + 9 + 7,23,24,23,22,2405.2207363999914,2407.245918400004,2408.7612034999765,2413.779637099942,2414.6582827999955,2414.6582880999194,2416.174841400003,2417.1921467999928,w,23,0.8786457000533119,1,+10,872,20.83569679634197,0.7889813008538575,0.2848373182908899,2384408.0,23.62051264409272,-0.3325516342748529,0.14153902869293478,2387941.0,13.47921513864423,-2.536612418114645,-0.6039188137453775,2395354.0,2408.755808418473,2405.222808418473,2416.168808418473
163,64,23,F,1,4,155.0,3,1,high,3 + 1 + 8 + 1 + 1,14,14,16,13,2418.708878599922,2420.733542499948,2422.248103399994,2427.2662229000125,2427.874234999996,2427.8742399999173,2429.390293899924,2430.4073673000094,q,14,0.6080120999831706,1,+10,882,19.171168866089022,0.09789642951853406,0.09860375555018952,2397896.0,4.884127756084633,0.31651101836711715,-0.1675806847472885,2401428.0,-0.0952393814707353,-1.4246314013716606,-0.13397472813295175,2408569.0,2422.242808418473,2418.7108084184733,2429.383808418473
164,64,23,F,1,4,156.0,4,4,low,5 + 7 - 4 - 6 + 9,11,12,11,13,2431.9243450999493,2433.950638399925,2435.465784600005,2440.484340899973,2441.1462730999338,2441.146277999971,2442.663758200011,2443.6806050000014,w,11,0.6619321999605745,1,+1,883,16.863040643772454,1.1304324448995131,0.1328600106837361,2411112.0,-5.23836993008704,-16.554060849584292,-6.703134107390781,2414646.0,2.188760303423109,-0.1226624727555019,-0.261848679114721,2421842.0,2435.4608084184733,2431.9268084184732,2442.6568084184732
165,64,23,F,1,4,157.0,5,3,low,6 - 1 + 7 - 8 + 9,13,13,11,12,2445.1971351000248,2447.2245096999686,2448.7396835000254,2453.7580764999148,2454.314321700018,2454.314326899941,2455.8313084000256,2456.848042299971,q,13,0.5562452001031488,1,+1,884,-34.11765103129132,0.1489141496315165,-0.09108960211734929,2424386.0,21.153697124856777,0.07439405951076417,0.13807027658045334,2427920.0,-1.62521719014876,-1.3454408914687344,0.5937740439746766,2567704.0,2448.734808418473,2445.200808418473,2588.5188084184733
166,64,23,F,1,4,158.0,6,4,high,5 + 7 - 4 - 6 + 9,11,13,11,12,2458.364539799979,2460.388870200026,2461.9040037000086,2466.92210909992,2467.4022557999706,2467.402260700008,2468.9183672999498,2469.9359112000093,w,11,0.4801467000506818,1,+10,894,-29.54053409754594,1.0284710409180646,0.2803241002272232,2437550.0,-1.6270097319345371,-0.25472675385462695,-0.006157459119436437,2441084.0,1.1805208267950302,-0.27372950233502547,0.18245442960966995,2448097.0,2461.898808418473,2458.3648084184733,2468.9118084184734
167,64,23,F,1,4,159.0,7,2,low,2 + 1 + 9 - 4 + 1,9,9,8,11,2471.4525321000256,2473.479176199995,2474.9943208999466,2480.01257199992,2480.690284400014,2480.69028989994,2482.2069323000032,2483.223280599923,q,9,0.677712400094606,1,+1,895,27.908964611990637,0.8003780713429136,0.2712462771834312,2450641.0,-5.945364465300601,-0.30314082209435167,0.06413325689652227,2454174.0,11.769568141224022,0.31547960052111446,-0.09492011529496036,2461385.0,2474.988808418473,2471.455808418473,2482.1998084184734
168,64,23,F,1,4,160.0,8,3,low,8 - 7 + 9 + 1 + 4,15,16,14,15,2484.740016800002,2486.7660081000067,2488.2812472999794,2493.2995502999984,2493.9943362999475,2493.9943416999886,2495.5109863999533,2496.5277014999883,e,15,0.6947859999490902,1,+1,896,-9.248809611158265,1.0144080134958653,0.20295397348164834,2463927.0,-7.6714571009839405,0.47726766665806997,0.027319780393903148,2467461.0,6.788032465480686,1.087455919658896,0.18241810831529914,2580905.0,2488.275808418473,2484.7418084184733,2601.7198084184733
169,64,23,F,1,4,161.0,9,2,high,3 + 9 - 1 - 5 + 1,7,6,7,5,2498.044525999925,2500.0703055999475,2501.5852024999917,2506.6035515000112,2507.3462109999964,2507.3462157999165,2508.8625973999733,2509.87950619997,w,7,0.7426594999851659,1,+10,906,19.454884273647966,-12.995320965074079,-3.697810552276257,2477232.0,-7.25311835342036,-0.12232868205292213,-0.06449033848962515,2480765.0,-2.415123757843503,-0.7321481503208389,-0.09822440781615138,2488041.0,2501.579808418473,2498.046808418473,2508.8558084184733
170,64,23,F,1,4,162.0,10,1,low,5 + 1 + 1 + 6 + 1,14,16,14,13,2511.3963064999552,2513.4224193999544,2514.9377312000142,2519.955422799918,2520.4821539999684,2520.4821591000077,2521.998274600017,2523.0150446000043,w,14,0.5267312000505626,1,+1,907,-19.49220022301633,0.8223966625986785,0.12549467455883145,2490584.0,-15.779360293265936,0.9325609753132564,-0.02049694187100215,2494117.0,14.784525230064002,0.3095484930377239,0.10159648381578656,2501176.0,2514.9318084184733,2511.398808418473,2521.990808418473
171,64,23,F,1,4,163.0,11,4,high,7 + 8 - 4 + 6 + 5,22,21,23,22,2524.5322293000063,2526.559683499974,2528.0754046000075,2533.0935258999234,2534.298190200003,2534.2981956999283,2535.814850899973,2536.831717199995,e,22,1.2046643000794577,1,+10,917,9.970153126049109,-0.31292331007349095,0.27840394577512084,2503721.0,20.65483579737422,-0.39716970103474214,0.1370564994269874,2507255.0,-4.899679705354783,0.21441188434530734,0.14554112506215233,2514993.0,2528.0698084184733,2524.535808418473,2535.807808418473
172,64,23,F,1,4,164.0,12,3,high,4 + 7 + 1 + 9 - 5,16,16,17,18,2538.3484914000146,2540.372237299918,2541.8874313000124,2546.906242799945,2547.4501743,2547.4501793999225,2548.966341999941,2549.983537999913,q,16,0.5439315000548959,1,+10,927,3.6586708881681904,0.06190948155937459,0.00017919450027448214,2517534.0,13.604502556411,0.3583868592363437,0.1047881335722245,2521067.0,-1.550198793023581,1.148241645469808,0.16454185794038034,2607512.0,2541.881808418473,2538.3488084184733,2628.3268084184733
173,64,23,F,1,4,165.0,13,4,low,2 + 9 - 4 + 8 + 7,22,21,23,22,2551.5002310000127,2553.5269856000086,2555.042205599952,2560.0607044999488,2560.722212899942,2560.722218099981,2562.238911899971,2563.256001999951,e,22,0.6615083999931812,1,+1,928,11.310404378083433,1.7253482419211328,0.2825236809222318,2530688.0,27.48414451713934,0.2346657365700331,0.013782913291451537,2534222.0,-19.496987022945085,0.6719057558554704,0.2175667879424481,2541417.0,2555.0368084184734,2551.5028084184733,2562.231808418473
174,64,23,F,1,4,166.0,14,1,high,9 + 8 + 1 + 1 - 1,18,18,19,17,2564.773206199985,2566.800901099923,2568.3161547000054,2573.333859400009,2573.8341603999725,2573.8341653000098,2575.3503727000207,2576.367928999942,q,18,0.5003009999636561,1,+10,938,29.801339781024378,0.11690531452437991,0.12795649509570195,2543962.0,5.1509728285313034,-0.09677636929532474,0.03503504845106731,2547495.0,-11.2877791625491,-0.6764512732555188,0.2038993138904368,2554529.0,2568.309808418473,2564.776808418473,2575.343808418473
175,64,23,F,1,4,167.0,15,3,low,5 + 7 + 1 - 4 + 6,15,17,13,15,2577.884561199928,2579.909216800006,2581.4243377000093,2586.4423415999627,2587.010117599973,2587.0101226000115,2588.526195799932,2589.5426298999228,e,15,0.567776000010781,1,+1,939,-40.47723999319775,1.5136688394213742,0.35559353019643325,2557070.0,-10.828583349142159,-8.17611354701441,-1.789521447624601,2560604.0,-4.431272485342479,0.08193056404121357,0.040849677770148585,2620585.0,2581.418808418473,2577.8848084184733,2641.399808418473
176,64,23,F,1,4,168.0,16,3,high,8 + 4 + 1 - 7 + 9,15,15,13,16,2591.059533499996,2593.0863500999985,2594.601657500025,2599.620537700015,2600.210158300004,2600.21016389993,2601.7268647999736,2602.743745499989,q,15,0.589620599988848,1,+10,949,7.4661467986059815,0.5305436884593382,-0.07881808955458958,2570247.0,-4.575761460159113,0.4221899453046829,0.09513524628916636,2573781.0,14.252902104835599,-0.34531712996032127,-0.06322983926908199,2646928.0,2594.595808418473,2591.061808418473,2667.742808418473
177,64,23,F,1,4,169.0,17,2,high,3 + 9 + 1 - 5 + 1,9,7,9,8,2604.2603338999907,2606.287753099925,2607.802971999976,2612.821397099993,2613.61805239995,2613.618057499989,2615.1345543999923,2616.1515009999275,w,9,0.7966552999569103,1,+10,959,5.273149693041248,0.9062441610382441,0.1558295496715001,2583448.0,4.31820107115885,-0.6975310655430711,-0.5175409938538991,2586982.0,-1.445968751030442,-0.047567660786418386,-0.07327336992669364,2594313.0,2607.796808418473,2604.262808418473,2615.1278084184733
178,64,23,F,1,4,170.0,18,3,low,7 - 5 + 9 + 1 - 4,8,8,9,7,2617.66806419997,2619.69348259992,2621.2087424999336,2626.228646799922,2626.8180730999447,2626.818078399985,2628.334657099913,2629.351494099945,q,8,0.5894263000227511,1,+1,960,13.912028562580545,0.5659117922448846,0.056149208151276664,2596854.0,9.186015990506544,-0.09214852197638024,0.060891834660763866,2600389.0,3.7873319023613057,-0.2580760021951791,0.1588347371590415,2699984.0,2621.2038084184733,2617.668808418473,2720.798808418473
179,64,23,F,1,4,171.0,19,3,high,9 - 5 - 1 - 6 + 8,5,4,5,7,2630.8682469999185,2632.8924264999805,2634.4073681000154,2639.426742499927,2639.890154899913,2639.890159699949,2641.4066894999705,2642.4241654999787,w,5,0.4634123999858275,1,+10,970,-2.4983665929426895,1.2722463495375456,0.230337657382512,2610052.0,-14.764052932848106,-0.024346558520430328,0.08839134578722208,2613588.0,-13.000527551677198,1.537378174109052,0.14271946606224373,2845551.0,2634.4028084184733,2630.8668084184733,2866.365808418473
180,64,23,F,1,4,172.0,20,1,low,9 + 8 + 1 + 1 - 1,18,20,17,18,2643.9410265999613,2645.968707400025,2647.4845272999955,2652.502325300011,2653.0901238999795,2653.09012920002,2654.6064338999568,2655.6232104999945,e,18,0.5877985999686643,1,+1,971,12.179236045824172,0.6477952380493628,0.10723277911952023,2623129.0,15.275527825428844,-0.4232017671064865,0.08482915373668387,2626663.0,4.448190395850913,-0.685176903071719,0.18569650267303128,2633784.0,2647.477808418473,2643.943808418473,2654.5988084184733
181,64,23,F,1,4,173.0,21,3,high,3 + 8 + 1 + 5 - 9,8,9,7,8,2657.139517299948,2659.1678123999154,2660.6830861999188,2665.7017096999334,2666.234045399935,2666.2340505999746,2667.7502571999794,2668.767535399995,e,8,0.5323357000015676,1,+10,981,22.439471669628013,0.2905939217194158,0.15775018105935468,2636329.0,-0.2707621947227743,0.44142847148658726,0.09806792487378413,2639862.0,49.33668874497425,0.10699132376846876,0.9116033395260716,2907959.0,2660.6768084184732,2657.1438084184733,2928.773808418473
182,64,23,F,1,4,174.0,22,1,low,2 + 1 + 1 + 9 - 1,12,12,11,13,2670.2844497999176,2672.312747400021,2673.8269954000134,2678.8449606000213,2679.410010899999,2679.4100160999224,2680.9266234999523,2681.944089299999,q,12,0.5650502999778837,1,+1,982,-12.419717990241303,1.0154754824380037,0.33794978510709983,2649473.0,10.079139480212998,-0.15774127431232765,0.1895294059109638,2653006.0,-2.52940565878154,1.9694591106165746,0.018919693049790354,2660104.0,2673.820808418473,2670.287808418473,2680.918808418473
183,64,23,F,1,4,175.0,23,2,low,4 + 9 - 7 + 1 - 1,6,8,5,6,2683.461112699937,2685.48949800001,2687.0047701000003,2692.0231190000195,2692.537995300023,2692.538000099943,2694.05522129999,2695.0720739000244,e,6,0.5148763000033796,1,+1,983,-11.29700540670019,-0.22752311307997442,0.28636390085028296,2662650.0,-30.397271703524538,1.8539032686542374,3.0481002214906483,2666184.0,15.900620939705174,0.20347388027463786,0.01797390106410557,2673233.0,2686.9988084184733,2683.4648084184732,2694.0478084184733
184,64,23,F,1,4,176.0,24,4,low,7 + 6 - 9 + 8 - 3,9,8,9,7,2696.5891167999944,2698.617793899961,2700.13377039996,2705.1525579999434,2705.9060718999244,2705.9060824000044,2707.422500199988,2708.4385283999145,w,9,0.7535138999810442,1,+1,984,0.6464033925712931,1.9874072903525581,3.7033438954506153,2675778.0,-7.010925917156975,0.01312379949293474,0.01456308407645368,2679313.0,-0.20492540425890393,0.39245374095543006,0.0946344069221845,2686600.0,2700.1278084184733,2696.592808418473,2707.414808418473
185,64,23,F,1,4,177.0,25,3,high,5 + 6 + 7 - 1 - 9,8,9,8,7,2709.9552954999963,2711.9826624999987,2713.497923000017,2718.516356599983,2719.2899637999944,2719.289968899917,2720.8061374999816,2721.823710799916,w,8,0.773607200011611,1,+10,994,8.461226786946884,-0.053516929769474864,0.1382663593851694,2689143.0,-20.208980066828328,-0.04705100230300596,0.04993485494510175,2692677.0,,,,,2713.4918084184733,2709.957808418473,
186,64,23,F,1,4,178.0,26,4,low,7 + 6 - 4 + 9 - 5,13,13,14,12,2723.3403071999783,2725.368479699944,2726.883676999947,2731.9019640999613,2732.4019962999737,2732.4020015000133,2733.918796099955,2734.935468700016,q,13,0.500032200012356,1,+1,995,-6.226313389029386,-0.8999133116666145,-0.029023436025588545,2702529.0,-4.850195566080732,0.26196999917532615,0.2513729786315151,2706063.0,-2.6547339206555804,-0.7635782115256884,-0.1242797061228007,2713096.0,2726.8778084184733,2723.343808418473,2733.910808418473
187,64,23,F,1,4,179.0,27,1,low,7 - 1 + 8 + 1 - 1,14,13,12,14,2736.4521154999966,2738.47850019997,2739.993822599994,2745.013223499991,2745.850036400021,2745.8500414999435,2747.366435399977,2748.3830953999422,e,14,0.8368129000300542,1,+1,996,-2.6642581895213002,-0.01818782071732361,-0.04251545071572771,2715639.0,-3.5856330964633125,-0.011962720737972887,0.016665701041405967,2719173.0,-8.128492654614769,0.04116916356420397,0.05202194004418015,2726544.0,2739.987808418473,2736.4538084184733,2747.358808418473
188,64,23,F,1,4,180.0,28,4,low,6 + 9 + 7 - 3 - 5,14,12,14,13,2749.899885699968,2751.92683459993,2753.442083399976,2758.460635400028,2758.9060034999857,2758.906008800026,2760.4227566999616,2761.439580700011,w,14,0.4453680999577045,1,+1,997,-34.103560121184486,0.2844272569462054,0.21717145915923441,2729087.0,-22.219315104985863,0.05753499367332804,-0.1590637026779982,2732621.0,9.716844457761518,0.33755486908856636,0.04598704037631274,2739600.0,2753.4358084184732,2749.901808418473,2760.414808418473
189,64,23,F,1,4,181.0,29,4,high,9 + 4 - 6 + 8 + 7,22,22,24,21,2762.956173399929,2764.9834189999383,2766.498717300012,2771.5176847999683,2772.169961699983,2772.1699669000227,2773.6867101999237,2774.7039969000034,q,22,0.6522769000148401,1,+10,1007,2.3470910444937516,0.7025113362254656,0.055662381500401814,2742144.0,15.010312841506302,-0.28514000391276006,-0.049152963240782555,2745677.0,23.591918675689,-1.2830528006287305,-0.17062983017919375,2752864.0,2766.4918084184733,2762.958808418473,2773.678808418473
190,64,23,F,1,4,182.0,30,1,low,7 + 1 + 6 + 1 + 1,16,18,17,16,2776.2210521999514,2778.248473200016,2779.7637252999702,2784.781564699952,2785.410062599927,2785.4100674999645,2786.926344999927,2787.9429022999248,e,16,0.6284978999756277,1,+1,1008,-7.882937498044704,0.9806481979615058,0.17783154091132847,2755409.0,-31.21182622991944,-0.12586324812662308,0.02973164002819839,2758942.0,-37.339698436725996,1.753312005292454,0.22157970184127063,2766104.0,2779.756808418473,2776.2238084184733,2786.918808418473
191,64,23,F,1,4,183.0,31,2,low,5 - 8 + 7 + 1 + 1,6,8,6,7,2789.459660799941,2791.487815100001,2793.002955099917,2798.021850000019,2798.5858854999533,2798.5858942000195,2800.1032859999686,2801.1209286999656,e,7,0.5640354999341071,0,+0,1008,20.9789340647546,0.8816929812979759,0.007073766864004849,2768648.0,16.075291599385054,-0.07180824825401677,-0.06688706828398328,2772182.0,-5.439011693914832,-2.437302195166744,-1.0884437927580644,2792760.0,2792.996808418473,2789.4628084184733,2813.5748084184734
192,64,23,F,1,4,184.0,32,2,high,7 + 5 + 1 - 1 - 8,4,3,2,4,2802.6372357999207,2804.6619653999805,2806.177201299928,2811.19704619993,2812.065898299916,2812.065903199953,2813.582507199957,2814.5999600000214,e,4,0.8688520999858156,1,+10,1018,-16.922996224678442,0.20020119734637154,-0.04998080972986907,2781822.0,2.130577868940134,-0.16054364324713122,0.04347699268633565,2785357.0,2.7623788991414333,-0.307393443775434,0.029076699675191664,2832328.0,2806.171808418473,2802.6368084184733,2853.142808418473
193,64,23,F,1,4,185.0,33,1,low,8 + 1 + 4 + 1 + 1,15,16,15,14,2816.1166538000107,2818.143365500029,2819.6587408999912,2824.676929999958,2825.2338763999287,2825.2338861000026,2826.750440199976,2827.7672688999446,w,15,0.5569463999709114,1,+1,1019,3.2783038465473275,0.09857991245632203,-0.09892727311902405,2795303.0,12.281477365079725,-0.6864075265109366,-0.026722399294460963,2798837.0,-7.4160075668876235,-0.5469798044830103,-0.022213300957474313,2805927.0,2819.651808418473,2816.117808418473,2826.7418084184733
194,64,23,F,1,4,186.0,34,4,high,8 + 4 - 5 + 7 - 6,8,8,6,7,2829.28408319992,2831.3119047000077,2832.826191799948,2837.8452178000007,2838.545881400001,2838.545886699925,2840.0624913999345,2841.07964859996,q,8,0.7006636000005528,1,+10,1029,-21.4184068181585,0.8030365774167998,-0.03884118114246382,2808472.0,2.2671399099820277,0.00951905253143126,-0.007500730096016817,2812005.0,-38.72542001296106,1.4759002889924921,0.13265205768979804,2819240.0,2832.8198084184733,2829.2868084184734,2840.054808418473
195,64,23,F,1,4,187.0,35,2,low,8 + 1 + 7 + 1 - 4,13,12,13,14,2842.5961569999345,2844.6222008999903,2846.1373622999527,2851.155788099976,2851.633972499985,2851.633979499922,2853.150803999976,2854.1679936000146,w,13,0.4781844000099227,1,+1,1030,-3.751742700538486,0.7729099480018569,0.08221983972466163,2821782.0,-8.829883954194077,-0.7305383263152954,0.10228866223469346,2825316.0,12.039803124264335,-0.6900414962009318,0.002685602434571166,2858975.0,2846.130808418473,2842.5968084184733,2879.789808418473
196,64,23,F,1,4,188.0,36,3,high,3 - 7 + 5 + 1 + 9,11,11,13,12,2855.6848273000214,2857.713120099972,2859.228265899932,2864.24673429993,2864.857852099929,2864.8578568999656,2866.3739858999616,2867.3914133999497,q,11,0.6111177999991924,1,+10,1040,-14.382004968582732,1.3002396924124349,0.09632723077422112,2834873.0,18.321986899540317,-0.1915111427531535,0.004503955292588291,2838407.0,,,,,2859.2218084184733,2855.687808418473,
197,64,23,F,1,4,189.0,37,2,low,4 + 8 + 1 + 1 - 5,9,8,11,9,2868.908275399939,2870.936583700008,2872.451694099931,2877.469473499921,2878.2817742999177,2878.2817793999566,2879.7978598999325,2880.8153775000246,e,9,0.8123007999965921,1,+1,1041,16.028569709113903,0.8696886233941639,0.18073238589154128,2848096.0,32.40941790424608,-0.06605430673959534,-0.020769262250266873,2851630.0,,,,,2872.4448084184733,2868.910808418473,
198,64,23,F,1,5,190.0,0,3,low,4 + 8 - 3 + 5 - 1,13,13,12,14,2918.1901336999144,2920.2159751999425,2921.7312775999308,2926.751354899956,2927.2657300999854,2927.265735800029,2928.7822385999607,2929.7990096999565,q,13,0.5143752000294626,1,+1,1042,10.493430860660885,-0.07777884486103392,1.7815391436713623,2897376.0,37.099724996579454,-0.25383199032374915,-0.07357241496048772,2900911.0,,,,,2921.725808418473,2918.1908084184734,
199,64,23,F,1,5,191.0,1,4,low,6 + 9 + 7 - 3 - 5,14,13,14,15,2931.315805700025,2933.344007699983,2934.858892799937,2939.8776076999493,2940.505797700025,2940.5058028999483,2942.023125099949,2943.040168199921,w,14,0.6281900000758469,1,+1,1043,-1.7038610290202598,0.09197783542318216,0.4140147075642471,2910504.0,10.137056309046685,2.6921747437456096,-0.010780379403686702,2914038.0,-5.768780251782821,1.7903734721661504,0.420004454715162,2921200.0,2934.852808418473,2931.318808418473,2942.014808418473
