,id,age,sex,cued,block,trial,trialinblock,efflev,rewlev,calc,corAns,option1,option2,option3,tstart,ITI1Time,probTime,respTime,selectTime,ITI2Time,fbTime,ITI3Time,key_press,chosenAns,RT,acc,feedback,total_points,cuescr,cuecor,cuezyg,cuetime,probscr,probcor,probzyg,probtime,fbscr,fbcor,fbzyg,fbtime,probtime_c,cuetime_c,fbtime_c
0,65,20,f,0,Practice,,0,1,0,4 + 1 + 9 + 1 + 1,16,14,15,16,47.836750800022855,,47.83675310004037,52.86411439999938,54.79309150006157,54.79309789999388,56.31055240007117,57.33166040002834,e,16.0,1.928977100062184,1,Correct,0,,,,,11.298075321300793,-0.5854384465145763,-0.480866458484253,47141.0,0.5170630674717849,1.645016613931265,-0.050241416383810744,55608.0,47.8507247340447,,56.317724734044695
1,65,20,f,0,Practice,,1,1,0,3 + 1 + 1 + 8 - 1,12,10,11,12,58.84866020001937,,58.84866330004297,63.87038139998913,65.6890850000782,65.68909130000975,67.20588310004678,68.22426500008442,e,12.0,1.8187036000890655,1,Correct,0,,,,,2.08263139676982,1.1035109712029598,0.04834310023998167,58146.0,-0.3804304012564934,1.4670095180106344,0.12873047215105826,66501.0,58.8557247340447,,67.2107247340447
2,65,20,f,0,Practice,,2,2,0,8 + 1 + 6 + 1 - 4,12,11,10,12,69.742198400083,,69.74220490001608,74.76231960009318,75.37682030000724,75.37682680005673,76.89405700005591,77.9123099000426,e,12.0,0.6145006999140605,1,Correct,0,,,,,-39.52107321634038,-5.611479552191749,0.2770219648137504,69039.0,8.444728353217148,-0.08864596647369449,0.2883400195214225,76189.0,69.7487247340447,,76.89872473404469
3,65,20,f,0,Practice,,3,2,0,9 + 4 - 6 + 1 - 1,7,5,7,6,79.43001150002237,,79.43001420004293,84.45021010003984,85.09687090001535,85.09687690006103,86.61339589999989,87.63060949998908,w,7.0,0.646660799975507,1,Correct,0,,,,,-26.811676603052337,-0.6139484234240369,0.12231759895473893,78727.0,-2.6224875294869054,0.13302416530986783,0.14959898631095658,85907.0,79.4367247340447,,86.6167247340447
4,65,20,f,0,Practice,,4,3,0,9 + 3 - 5 + 6 + 7,20,20,21,22,89.14736550010275,,89.14736840000842,94.1660475000972,94.92109350010288,94.92109940003138,96.4377145000035,97.45473370002584,q,20.0,0.7550460000056773,1,Correct,0,,,,,-12.710735685621806,-0.5798096390212066,0.0531759110495571,88443.0,26.964680915493794,-0.31479486873655826,-0.001246080181950493,95731.0,89.1527247340447,,96.4407247340447
5,65,20,f,0,Practice,,5,3,0,2 + 1 + 9 - 7 + 6,11,10,11,9,98.9715096000582,,98.97151250008028,103.99030540010426,104.81685280008242,104.8168590000132,106.3337606000714,107.35153010010254,w,11.0,0.8265473999781534,1,Correct,0,,,,,-10.689116971754578,0.03904448931958182,0.12180141704370495,98267.0,-5.013880307371455,0.0758067600407224,0.14674228874343465,105628.0,98.9767247340447,,106.3377247340447
6,65,20,f,0,Practice,,6,4,0,4 + 8 + 5 - 3 + 7,21,23,21,22,108.86890150001273,,108.86890430003405,113.8899741000496,114.88103899999987,114.88104500004556,116.39819810003974,117.41652650001924,w,21.0,0.9910648999502882,1,Correct,0,,,,,22.88298677575687,0.6663883373895843,0.12026194619065467,108166.0,-21.924179432873927,-0.13651967640333051,0.23693408081443734,115693.0,108.8757247340447,,116.4027247340447
7,65,20,f,0,Practice,,7,4,0,5 + 8 - 4 + 6 + 9,24,23,22,24,118.93398279999384,,118.93398570001592,123.95430700003637,128.60902610002086,128.6090323000681,130.12606230005622,131.14660890004598,w,22.0,4.654719099984504,0,Incorrect,0,,,,,-1.31673071495001,0.026689192174555565,-0.12070638774679487,118230.0,7.972396966474619,0.02995774715643318,0.1590870124060877,129423.0,118.9397247340447,,130.1327247340447
8,65,20,f,1,0,0.0,0,4,low,3 + 8 - 5 + 9 - 7,8,6,7,8,257.46245510003064,259.4899980000919,261.0050361000467,266.0239111999981,267.7983953000512,267.79840060009155,269.31489550007973,270.331849200069,e,8.0,1.7744841000530869,1,+1,1,-0.14077900398288357,-6.322349628225901,0.18245575054707341,256766.0,8.306282536930375,0.32883958872006147,-0.040259206725966834,260300.0,1.0798869066779062,2.8670628594555514,0.05860437119757833,887293.0,261.0097247340447,257.4757247340447,888.0027247340447
9,65,20,f,1,0,1.0,1,4,low,3 + 9 - 5 + 8 - 7,8,9,7,8,271.848955100053,273.8727516999934,275.38832430006005,280.4074088000925,281.3103943000315,281.31039930006955,282.826444300008,283.84355200000573,e,8.0,0.90298549993895,1,+1,2,-1.871473106015209,0.8750507884018539,0.05919011803450269,271148.0,-7.844194453803146,0.26031394123899076,0.22223496615522143,274683.0,4.593343772936262,1.2371894699673804,-0.009151986106270549,914325.0,275.3927247340447,271.8577247340447,915.0347247340447
10,65,20,f,1,0,2.0,2,2,low,7 + 1 + 9 - 1 - 8,8,7,8,6,285.3603118000319,287.38795120001305,288.903459400055,293.9230277000461,294.6785219000885,294.67852720001247,296.1949821000453,297.21192730008624,w,8.0,0.7554942000424489,1,+1,3,28.932812963742293,0.7455003008689669,-0.03030750503450097,284663.0,4.104794789685894,0.7510704423083343,0.20628056280593254,288199.0,19.47143213713146,-0.332095092571727,0.2590311561945571,324384.0,288.9087247340447,285.3727247340447,325.0937247340447
11,65,20,f,1,0,3.0,3,3,low,3 + 1 + 8 - 5 + 6,13,13,15,14,298.72892950009555,300.75517470005434,302.2704627000494,307.28922850009985,307.93440370005555,307.9344085000921,309.45099740009755,310.4677612000378,q,13.0,0.6451751999557018,1,+1,4,-37.92201912982232,0.22640688967471156,0.13377448099872868,298031.0,19.153562497995622,6.682128257446937,0.18468152534289572,301565.0,,,,,302.2747247340447,298.7407247340447,
12,65,20,f,1,0,4.0,4,2,low,3 + 9 + 1 - 5 + 1,9,8,7,9,311.9845868000993,314.00948450004216,315.52454270003363,320.543790500029,323.57441240001936,323.5744175000582,325.09106250002515,326.1087075000396,w,7.0,3.030621899990365,0,+0,4,7.852104539891798,-13.31795003962148,0.3082892336213563,311285.0,-2.962065889728473,0.915233240997539,0.07005796512416884,314819.0,12.84331195730538,1.8268257441396147,0.08595759109748102,994485.0,315.5287247340447,311.9947247340447,995.1947247340447
13,65,20,f,1,0,5.0,5,2,high,8 + 1 + 1 + 9 - 4,15,15,16,14,327.6255822000094,329.6529186000116,331.1682014000835,336.18647820001934,336.95837780006696,336.95838299999014,338.4756247000769,339.492881400045,q,15.0,0.7718996000476182,1,+10,14,3.0568358650280842,2.047615945108058,-0.06034783843363334,326928.0,5.3219380044312246,0.4222446483488156,-0.02142464438932734,330462.0,,,,,331.1717247340447,327.6377247340447,
14,65,20,f,1,0,6.0,6,4,low,8 + 7 - 4 + 5 + 9,25,26,24,25,341.0095287000295,343.0340242000529,344.54985700000543,349.56844210007694,350.69441310002003,350.6944186000619,352.2116198000731,353.22877370007336,e,25.0,1.1259709999430925,1,+1,15,-20.991335709276722,0.5375890552290059,0.22861005605325446,340310.0,0.8776623949797391,0.13722971263032413,0.1917946154736958,343844.0,3.6847362136767305,0.18658208169536472,-0.6241209013227706,1782345.0,344.5537247340447,341.0197247340447,1783.0547247340446
15,65,20,f,1,0,7.0,7,3,high,5 + 7 + 1 - 4 + 6,15,17,13,15,354.74624630005565,356.7735440999968,358.28984060010407,363.3088866000762,367.1262575000292,367.1262631000718,368.6431135000894,369.6607453000033,e,15.0,3.817370899952948,1,+10,25,24.66860819681684,0.40475724269331437,0.3200127123685612,354049.0,30.771970358550718,-0.009815427363081497,0.1091815712898283,357584.0,,,,,358.2937247340447,354.7587247340447,
16,65,20,f,1,0,8.0,8,2,high,6 + 8 + 1 + 1 - 7,9,9,11,8,371.177207000088,373.20441850007046,374.7196613000706,379.7381287000608,380.3342944000615,380.33429910009727,381.8509941000957,382.86860700009856,q,9.0,0.5961657000007108,1,+10,35,5.401086504989029,0.9839796714376376,0.06140511775473945,370480.0,0.4420965679967832,-0.6373794118035141,0.08215889241859164,374014.0,,,,,374.7237247340447,371.1897247340447,
17,65,20,f,1,0,9.0,9,4,low,4 + 7 + 8 - 3 + 9,25,26,25,24,384.3853966000024,386.4094865000807,387.92528960003983,392.9437876000302,393.6142767000711,393.6142814999912,395.1308585000224,396.1478004000383,w,25.0,0.6704891000408679,1,+1,36,-9.692619363963063,0.32837350937732035,-0.23336076921516913,383685.0,-45.67008299535897,1.3608508873778424,-2.0000643007256493,387219.0,,,,,387.9287247340447,384.3947247340447,
18,65,20,f,1,0,10.0,10,1,high,8 + 1 + 1 - 1 - 4,5,5,6,3,397.66419690009207,399.6914044000441,401.2064971000655,406.2247714000987,407.06219660001807,407.06220180005766,408.5787939000875,409.5962983000791,q,5.0,0.8374251999193802,1,+10,46,-8.715926364478495,0.0789618558868983,0.0827340309139406,396967.0,1.6605759921814105,0.05968337229131393,0.25702143357147156,400500.0,,,,,401.2097247340447,397.6767247340447,
19,65,20,f,1,0,11.0,11,4,high,7 + 6 - 9 + 8 - 3,9,9,7,8,411.1134236000944,413.1380771000404,414.6533891001018,419.67167340009473,420.8702818000456,420.8702868000837,422.3868323999923,423.4042519000359,q,9.0,1.1986083999508992,1,+10,56,-30.25068942336203,1.0323356209710894,0.048954756285004564,410413.0,6.494460379540513,0.8068961085931479,0.425352271750993,413948.0,,,,,414.6577247340447,411.1227247340447,
20,65,20,f,1,0,12.0,12,1,high,6 + 9 + 1 + 1 - 1,16,16,15,14,424.9210468000965,426.94738320005126,428.4625998000847,433.4809026001021,434.1342987000244,434.1343037000625,435.6508706000168,436.66850600007456,q,16.0,0.6533960999222472,1,+10,66,5.286786534904682,-0.016702407491066662,0.16579995295153305,424222.0,16.906366343205946,-0.03420429175801987,0.1654910613818794,427756.0,,,,,428.46572473404467,424.9317247340447,
21,65,20,f,1,0,13.0,13,1,high,9 + 8 + 1 + 1 - 1,18,19,18,17,438.1853476000251,440.2118072001031,441.72788060002495,446.745757900062,447.5422246000962,447.54222950001713,449.058738599997,450.0760919000022,w,18.0,0.796466700034216,1,+10,76,-8.51412853878363,0.2119290852364255,-0.031367088280730204,437487.0,6.001568589719995,0.09231431941993229,0.27796931473393527,441021.0,,,,,441.7307247340447,438.1967247340447,
22,65,20,f,1,0,14.0,14,3,high,7 - 1 + 8 - 6 + 4,12,12,13,11,451.59303840005305,453.6193506000564,455.1344039000105,460.15335500007495,460.8302163000917,460.8302208000096,462.3476699000457,463.36454940005206,q,12.0,0.6768613000167534,1,+10,86,11.88794123163362,0.437349036973957,0.07243355080739944,450895.0,-41.95644659511744,0.9203272758166103,0.27456027539987815,454428.0,,,,,455.1377247340447,451.6047247340447,
23,65,20,f,1,0,15.0,15,3,high,6 + 7 + 8 + 1 - 9,13,14,13,15,464.8817975000711,466.90863770002034,468.4239798000781,473.4425597999944,474.2142212000908,474.2142267000163,475.7302848000545,476.7476818000432,w,13.0,0.771661400096491,1,+10,96,-20.492990940157124,0.7051999351558091,0.00233698893173262,464183.0,-2.539448953642352,0.6283244476500718,0.31085188759713134,467718.0,,,,,468.4277247340447,464.8927247340447,
24,65,20,f,1,0,16.0,16,3,low,3 + 8 - 7 - 1 + 9,12,14,13,12,478.2648714000825,480.2905443999916,481.8057661000639,486.8248630000744,487.5661816000938,487.5661863000132,489.08307690010406,490.0999840000877,e,12.0,0.74131860001944,1,+1,97,-6.360151896239438,1.2775934115781307,-0.21806469298572595,477566.0,-1.8410184741414213,0.7488136999669073,0.028600187240957364,481099.0,,,,,481.8087247340447,478.2757247340447,
25,65,20,f,1,0,17.0,17,3,high,4 + 8 - 3 + 5 - 1,13,12,14,13,491.61687930009793,493.6438001000788,495.1589586000191,500.1773928999901,500.9582044000272,500.9582232000539,502.4752821000293,503.4926177000161,e,13.0,0.780811500037089,1,+10,107,-6.63144016017425,0.6228398309827616,-0.07168392780985178,490919.0,-14.167921424397854,0.42656500691124943,0.017645874185961752,494452.0,,,,,495.1617247340447,491.6287247340447,
26,65,20,f,1,0,18.0,18,3,low,9 - 1 + 5 - 6 + 8,15,17,15,14,505.0093483000528,507.0353616999928,508.5505502000451,513.5687407000223,514.2942083000671,514.2942134999903,515.8109429000178,516.8284438000992,w,15.0,0.7254676000447944,1,+1,108,36.568355349569245,1.0415757497042617,0.07084025120366766,504310.0,-10.990728665137949,-0.478036460966075,-4.429940115242408,507844.0,,,,,508.5537247340447,505.0197247340447,
27,65,20,f,1,0,19.0,19,1,low,8 + 1 + 1 + 1 - 3,8,9,6,8,518.3449662000639,520.3716955001,521.8868454000913,526.9049719000468,527.8061494000722,527.8061541999923,529.3229323000414,530.3397151000099,e,8.0,0.9011775000253692,1,+1,109,-13.4915389771071,0.6470512250092924,0.1691394568794784,517647.0,19.89299676431937,0.3573535449264771,-0.009332074940056057,521180.0,,,,,521.8897247340446,518.3567247340447,
28,65,20,f,1,0,20.0,20,1,low,7 + 1 + 4 + 1 - 1,12,12,13,14,531.856422000099,533.8780991000822,535.3933583000908,540.4116437000921,541.0701909000054,541.0701959000435,542.5867203000234,543.603693400044,q,12.0,0.6585471999133006,1,+1,110,-30.528338811127945,0.09171879385178938,0.06175282548617855,531153.0,-21.56696832608086,0.6001117739567863,0.18154357606673122,534687.0,,,,,535.3967247340447,531.8627247340447,
29,65,20,f,1,0,21.0,21,4,high,6 + 7 + 9 - 3 + 5,24,22,23,24,545.1211941000074,547.1485231000697,548.6638433000771,553.6825363000389,554.7021729000844,554.7021783000091,556.2189150000922,557.2361131000798,e,24.0,1.0196366000454873,1,+10,120,8.093196805863855,0.8681049790087103,0.16375489610361083,544423.0,37.17952940194573,0.8942745868076907,-0.006850808043215473,547957.0,,,,,548.6667247340447,545.1327247340447,
30,65,20,f,1,0,22.0,22,2,low,7 + 6 + 1 + 8 + 1,23,21,22,23,558.7529320000904,560.7795593000483,562.2938254000619,567.3139140000567,567.974080700078,567.9740856999997,569.4912356000859,570.5082677000901,e,23.0,0.6601667000213638,1,+1,121,19.0486015879697,1.1270951125232838,-0.042636647152672236,558054.0,8.949946187071106,1.2444548024131694,0.09546716143812661,561589.0,,,,,562.2987247340448,558.7637247340447,
31,65,20,f,1,0,23.0,23,4,high,5 + 9 - 4 + 7 + 6,23,24,23,25,572.0250544000883,574.0531194000505,575.5683472000528,580.5866842000978,581.2460628000554,581.2460676000919,582.7626370000653,583.7801746000769,w,23.0,0.659378599957563,1,+10,131,20.927783794065615,0.44181503450997184,0.07390682205585364,571328.0,16.924904788326252,0.6610099241148224,0.26177481071313924,574862.0,,,,,575.5717247340447,572.0377247340447,
32,65,20,f,1,0,24.0,24,2,high,7 + 8 + 1 + 9 + 1,26,25,26,24,585.2969562000362,587.3225855000783,588.8382898001,593.8576126000844,594.9020664000418,594.9020714000799,596.4184539000271,597.4357381000882,w,26.0,1.0444537999574095,1,+10,141,4.778501347199134,0.5525505583038384,-0.06613579993192875,584597.0,-11.135282326612938,0.11942990754825056,0.3271745564347299,588132.0,,,,,588.8417247340446,585.3067247340447,
33,65,20,f,1,0,25.0,25,1,low,6 + 1 + 8 + 1 + 1,17,16,17,15,598.9527052000631,600.9792135000462,602.4945709999884,607.5126921000192,608.0941296000965,608.0941348000197,609.6108757000184,610.6276831000578,w,17.0,0.5814375000772998,1,+1,142,-16.32115228234276,-1.6225534830332489,0.6313276171198474,598254.0,14.14111687162309,0.7208309691060055,0.16427704521606712,601788.0,,,,,602.4977247340447,598.9637247340447,
34,65,20,f,1,0,26.0,26,2,low,6 + 1 + 1 + 8 - 9,7,5,9,7,612.1444925999967,614.1715522001032,615.6868969000643,620.7051717001013,621.7740941999946,621.7740991000319,623.2905499000335,624.3074739000294,e,7.0,1.0689224998932332,1,+1,143,7.2066123168404195,0.7780337738625196,0.16375010603287588,611446.0,9.59460708793979,1.0523056239804682,0.20974920892997595,614980.0,,,,,615.6897247340447,612.1557247340447,
35,65,20,f,1,0,27.0,27,3,low,8 - 7 + 9 + 1 + 4,15,16,14,15,625.82436530001,627.8497362000635,629.3650977000361,634.3864262000425,635.0620996000944,635.062104600016,636.5787136000581,637.5954980000388,e,15.0,0.6756734000518918,1,+1,144,-20.167988144446255,0.6523257691496092,0.0442553383318689,625124.0,-5.495666560497294,1.3310333399361705,0.13636929169170608,628661.0,,,,,629.3707247340446,625.8337247340447,
36,65,20,f,1,0,28.0,28,3,low,8 - 1 + 6 - 7 + 5,11,12,11,13,639.1128472000128,641.1375363999978,642.6530081999954,647.671650000033,648.5340768999886,648.5340822000289,650.0510541000403,651.067800900084,w,11.0,0.862426899955608,1,+1,145,0.23629176415936826,0.7920459948534218,0.16224326804798217,638412.0,12.663654457996644,0.772692485472291,0.0999475813257451,641946.0,,,,,642.6557247340447,639.1217247340447,
37,65,20,f,1,0,29.0,29,1,high,6 + 9 + 1 + 1 - 1,16,14,16,15,652.5841490000021,654.6111938999966,656.1264381000074,661.1444873000728,661.9260477999924,661.9260529000312,663.4431336000562,664.4605059000896,w,16.0,0.7815604999195784,1,+10,155,-0.672710862411023,0.067152020488352,0.1710954218299272,651885.0,13.354952101945406,0.06885528924804918,-0.0860839573773724,655419.0,,,,,656.1287247340447,652.5947247340447,
38,65,20,f,1,0,30.0,30,1,low,9 + 8 + 1 + 1 - 1,18,18,20,17,665.9769594999962,668.004794800072,669.5200736999977,674.5378407000098,675.3500067000277,675.3500114000635,676.8663590000942,677.8833100000629,q,18.0,0.8121660000178963,1,+1,156,9.265503690856022,0.4059871634757566,-0.045381339743082894,665279.0,6.114801010398914,0.9019837963697941,-0.7063087784049267,668813.0,,,,,669.5227247340447,665.9887247340447,
39,65,20,f,1,0,31.0,31,2,low,2 + 9 + 1 + 1 - 5,8,8,6,7,679.4002291000215,681.4273793000029,682.9426062999992,687.9626387000317,688.7179753000382,688.7179804000771,690.2344048999948,691.2513300999999,q,8.0,0.755336600006558,1,+1,157,4.336960210576358,0.9062134668678423,-0.07243627517679263,678702.0,8.146485242501278,0.9497729512896136,0.08320289434106076,682237.0,,,,,682.9467247340447,679.4117247340447,
40,65,20,f,1,0,32.0,32,2,high,2 + 9 - 4 + 1 + 1,9,9,8,11,692.7682387999957,694.7951745000901,696.3103473000228,701.3292791000567,702.1659059000667,702.165910800104,703.6835507000796,704.7009836999932,q,9.0,0.8366268000099808,1,+10,167,-14.73012862187758,-0.17404905590131392,-1.5964768256599862,692069.0,-28.123326018548227,0.40184027955980905,0.05435129474388356,695603.0,,,,,696.3127247340447,692.7787247340447,
41,65,20,f,1,0,33.0,33,3,low,3 + 8 - 7 + 1 + 9,14,12,14,13,706.2177993000951,708.2439791000215,709.7591909000184,714.7791896000272,719.7973497000057,719.797352100024,721.31416300009,722.3890950999921,,,,0,Too Slow!,167,26.318049766641384,0.45786123546573254,0.17337436669089623,705518.0,-15.516801096096406,0.039999720220251334,-0.028493355976859647,709054.0,5.745122414703983,2.455888117772939,0.05970061229768531,720663.0,709.7637247340447,706.2277247340447,721.3727247340447
42,65,20,f,1,0,34.0,34,3,high,2 + 9 - 3 + 4 + 1,13,13,11,14,723.9058805000968,725.9322769000428,727.447611700045,732.4662045000587,736.0299362000078,736.0299412000459,737.547096400056,738.5649105000775,q,13.0,3.5637316999491304,1,+10,177,-14.944296072059316,-0.5237044668154449,0.10474330007498489,723206.0,49.02406469008686,0.8363481010761578,0.07994416383725689,726740.0,,,,,727.4497247340447,723.9157247340447,
43,65,20,f,1,0,35.0,35,1,high,3 + 1 + 8 - 1 + 1,12,10,12,13,740.0979141000425,742.1192152000731,743.6344739000779,748.6536432000576,749.2939544999972,749.293959600036,750.8108816000167,751.827926900005,w,12.0,0.6403112999396399,1,+10,187,-8.269872781377696,2.0511915468513364,4.972893732293645,739393.0,4.810183794047249,0.2617585275234493,0.2848099574934442,742928.0,,,,,743.6377247340447,740.1027247340447,
44,65,20,f,1,0,36.0,36,3,high,2 + 1 + 9 - 7 + 6,11,12,11,13,753.3447073000716,755.3712935000658,756.886543200002,761.9050757000223,762.661915200064,762.661920200102,764.1786523000337,765.1960077000549,w,11.0,0.7568395000416785,1,+10,197,-2.841673331943557,0.7106271025041031,0.09859836081365936,752645.0,4.376134725117124,0.7429869933531985,0.26201938590455276,756179.0,,,,,756.8887247340447,753.3547247340447,
45,65,20,f,1,0,37.0,37,1,low,4 + 9 + 1 - 1 - 1,12,12,13,11,766.7127344000619,768.7392305000685,770.2544930001022,775.2727933001006,775.9098804000532,775.9098856000928,777.4264315000037,778.4439052999951,q,12.0,0.6370870999526232,1,+1,198,17.43773097705393,0.5235286558655821,-0.004343120143575074,766013.0,13.044317703385516,0.7009192325064868,0.1437203245125378,769547.0,,,,,770.2567247340447,766.7227247340447,
46,65,20,f,1,1,38.0,0,3,high,4 + 1 + 8 + 9 - 5,17,18,17,19,796.826120300102,798.8540403000079,800.369268200011,805.3885810000356,806.5580600000685,806.5580649999902,808.0749959000386,809.09239850007,w,17.0,1.1694790000328794,1,+10,208,-37.34360657558277,0.967465812267954,-0.003359002799316446,796128.0,7.049054816503761,0.9175946198421117,-0.18268990616535774,799663.0,,,,,800.3727247340447,796.8377247340447,
47,65,20,f,1,1,39.0,1,2,high,8 + 1 + 7 + 1 - 4,13,12,14,13,810.6091907999944,812.6449429000495,814.1604836999904,819.179521300015,819.7978280000389,819.7978328000754,821.3153170000296,822.3326670000097,e,13.0,0.6183067000238225,1,+10,218,26.383043483988345,1.226988731269034,-0.12194591972954871,809919.0,-7.9202243979145805,0.8984157440146245,0.18503613321058743,813453.0,,,,,814.1627247340447,810.6287247340447,
48,65,20,f,1,1,40.0,2,2,low,7 + 5 + 1 + 9 + 1,23,23,21,22,823.8498126000632,825.875638000085,827.3908843999961,832.4089491000632,833.6137898000889,833.6137949000113,835.1307131000794,836.1475313000847,q,23.0,1.2048407000256702,1,+1,219,-22.769474689774587,0.8212202100139194,-0.058316666953603935,823149.0,-2.459410362785164,1.0999272813568752,0.3642329075029158,826683.0,,,,,827.3927247340447,823.8587247340447,
49,65,20,f,1,1,41.0,3,1,low,7 + 1 + 5 + 1 - 1,13,14,12,13,837.6643506000983,839.6886373000452,841.2043264000677,846.2226463000989,846.9098816000624,846.9098865000997,848.4264391000615,849.4434468999971,e,13.0,0.6872352999635041,1,+1,220,21.348917820623782,-0.1683006819355275,0.859937933371798,836962.0,11.0430348266982,0.17146980432243275,0.1558655801057376,840496.0,,,,,841.2057247340447,837.6717247340447,
50,65,20,f,1,1,42.0,4,1,low,5 + 1 + 1 + 9 + 1,17,19,17,16,850.9603010000428,852.9841268000891,854.4993976000696,859.5173055999912,860.0378449000418,860.0378500000807,861.5547202000162,862.5726552000269,w,17.0,0.5205393000505865,1,+1,221,33.010747153038466,0.5083267346289011,0.06591469171998443,850258.0,20.10010111225479,0.6826417365765978,0.2705885813214137,853791.0,,,,,854.5007247340448,850.9677247340447,
51,65,20,f,1,1,43.0,5,1,low,4 + 1 + 1 + 7 - 1,12,14,12,13,864.0894310000585,866.1160542001016,867.6313463000115,872.6497738000471,873.3338385000825,873.3338432000019,874.8505981999915,875.8685875000665,w,12.0,0.6840647000353783,1,+1,222,5.093372004994645,-0.022838301879667178,-0.007613744874888528,863390.0,-6.471792900045825,0.42566949362045836,-0.00852698564500054,866923.0,,,,,867.6327247340447,864.0997247340447,
52,65,20,f,1,1,44.0,6,4,high,5 + 8 - 4 - 6 + 9,12,12,14,13,877.385001800023,879.4104106000159,880.9247009000974,885.9433760000393,886.4858019000385,886.4858066000743,888.0023308000527,889.0197269000346,w,14.0,0.5424258999992162,0,+0,222,-0.3197479533718379,0.5039852646543621,0.16916242891157784,876684.0,20.427631759673673,0.6657496985215445,0.028034865731000558,880216.0,,,,,880.9257247340447,877.3937247340447,
53,65,20,f,1,1,45.0,7,4,low,6 + 9 - 7 + 8 - 5,11,12,11,13,890.53660760005,892.5620164000429,894.0772027000785,899.0972884000512,900.0538223000476,900.0538273000857,901.570361800026,902.5872947000898,w,11.0,0.9565338999964296,1,+1,223,-43.221469841629315,0.21683067027310532,0.10652981528175842,889836.0,-2.696262584993594,0.8392111198627998,-0.01395097054018013,893371.0,,,,,894.0807247340447,890.5457247340447,
54,65,20,f,1,1,46.0,8,4,low,5 + 7 - 4 - 6 + 9,11,11,12,13,904.1039423000766,906.127450900036,907.6427795999916,912.661438500043,913.5177672000136,913.5177723000525,915.034462700016,916.0517229000106,e,13.0,0.8563286999706179,0,+0,223,15.15606644927376,0.9302388562226249,-0.015922731567492354,903401.0,2.151524182866469,1.146165667926745,-0.10344752897371334,906935.0,,,,,907.6447247340446,904.1107247340447,
55,65,20,f,1,1,47.0,9,3,low,2 + 1 + 9 - 4 + 6,14,16,15,14,917.5781783000566,919.6056894999928,921.1209742000792,926.139351000078,926.845788900042,926.8457938000792,928.362459300086,929.3794230000348,e,14.0,0.7064378999639302,1,+1,224,10.458717614627266,0.3949529747409066,-0.06869930915938793,916879.0,-23.773743150232043,0.5307564866023262,-0.20970738495129915,920413.0,,,,,921.1227247340447,917.5887247340447,
56,65,20,f,1,1,48.0,10,3,high,2 - 4 + 9 + 7 + 1,15,13,16,15,930.896407800028,932.9204955000896,934.4358062000248,939.4543953000102,940.0697739000898,940.0697793000144,941.5863103000448,942.6036638000514,e,15.0,0.6153786000795662,1,+10,234,1.061005241229194,1.1951797072871533,0.356612161391042,930194.0,-8.657777670743926,0.9369919861692768,0.16065301140691135,933728.0,,,,,934.4377247340447,930.9037247340447,
57,65,20,f,1,1,49.0,11,4,high,7 + 6 - 4 + 9 - 5,13,12,13,14,944.1203117000404,946.1463591000064,947.6615678000962,952.6804052999942,953.2617221000836,953.2617271000054,954.7785003000172,955.7962638000026,w,13.0,0.581316800089553,1,+10,244,-14.43755400975672,0.6799325459402752,0.061575345670372705,943419.0,14.851502866623893,0.8815204898462059,0.04246739075849382,946954.0,,,,,947.6637247340446,944.1287247340447,
58,65,20,f,1,1,50.0,12,4,low,3 + 9 - 4 + 7 + 6,21,21,19,20,957.3131924000336,959.3392423000188,960.8545127999968,965.8731785001,967.0857668000972,967.085771700018,968.6021360000595,969.6190753000556,q,21.0,1.212588299997151,1,+1,245,8.8299562329682,1.4279848043753347,0.056996049570354756,956613.0,-30.883787753708965,1.2586741468785125,0.3170929319521836,960147.0,,,,,960.8567247340447,957.3227247340448,
59,65,20,f,1,1,51.0,13,3,low,5 + 6 - 4 - 1 + 8,14,14,15,16,971.1358809000812,973.161377200042,974.6767474000808,979.6950344000944,980.445637900033,980.445643000072,981.9620469000656,982.9787605000892,q,14.0,0.7506034999387339,1,+1,246,5.582210482298912,1.0236322319033895,-0.16780244819842238,970435.0,-15.938274721232006,1.1653239548563028,0.07363269535743289,973968.0,,,,,974.6777247340447,971.1447247340446,
60,65,20,f,1,1,52.0,14,2,low,9 + 4 - 6 + 1 - 1,7,7,9,8,984.4954240000808,986.5210072000044,988.036305500078,993.0551602999911,993.6777220000512,993.6777274000924,995.1943086000392,996.2115687000332,e,8.0,0.6225617000600323,0,+0,246,13.358981246742601,1.0417781863626505,0.07468451230042028,983794.0,-23.978607797310126,1.2942376943867724,0.3615681477268784,987328.0,,,,,988.0377247340447,984.5037247340447,
61,65,20,f,1,1,53.0,15,2,low,3 + 8 - 5 + 1 + 1,8,6,8,9,997.728064600029,999.7518009000923,1001.2668563000624,1006.2850942000514,1007.2376672000393,1007.2376720000756,1008.7542826000137,1009.7713428999996,w,8.0,0.9525729999877512,1,+1,247,6.218058567766866,0.7602623540204996,-0.07445482799844916,997025.0,2.0485301059759777,1.1521800324127103,0.36580635049542387,1000558.0,,,,,1001.2677247340447,997.7347247340447,
62,65,20,f,1,1,54.0,16,4,high,5 + 8 - 6 + 7 + 4,18,19,18,17,1011.2884087000276,1013.3132973000174,1014.828557800036,1019.8466935000616,1020.597652300028,1020.5976573000662,1022.114201300079,1023.131386400084,w,18.0,0.750958799966611,1,+10,257,-37.80069498848292,0.7189316366509688,0.2129254471435682,1010586.0,12.95583702271325,-0.04751502228044391,0.1670475516497194,1014120.0,,,,,1014.8297247340447,1011.2957247340447,
63,65,20,f,1,1,55.0,17,4,high,5 + 7 - 4 - 6 + 9,11,13,12,11,1024.6482825001003,1026.6727954000237,1028.1879884999944,1033.2066603000276,1034.0696015000576,1034.0696063000942,1035.5861498001032,1036.6034730999963,e,11.0,0.8629412000300363,1,+10,267,-4.433112606709329,0.0994102268718855,0.284718749193825,1023946.0,9.929697966967158,0.6127652200968714,0.19898594046144202,1027480.0,,,,,1028.1897247340448,1024.6557247340447,
64,65,20,f,1,1,56.0,18,3,high,9 + 3 - 4 + 6 + 7,21,23,22,21,1038.120107900002,1040.1452596000163,1041.6604957000818,1046.6807808000594,1047.4616000000387,1047.461605300079,1048.9784275999991,1049.9960109000094,e,21.0,0.7808191999793053,1,+10,277,-9.932465171830732,0.043717588772352656,-0.10391976394132607,1037418.0,13.19363894014922,0.21222342082409096,0.17706650103597754,1040954.0,,,,,1041.6637247340445,1038.1277247340445,
65,65,20,f,1,1,57.0,19,1,high,5 + 9 - 1 + 1 + 1,15,15,13,17,1051.5127603000728,1053.5373779000947,1055.0526607000502,1060.0704368000152,1060.8616115000332,1060.861616200069,1062.378108200035,1063.3955615001032,q,15.0,0.7911747000180185,1,+10,287,-44.948884799066775,-0.0028237823575985033,-0.15495811729165698,1050811.0,21.67069084212921,-0.1194212838758486,0.36769567586598706,1054344.0,,,,,1055.0537247340449,1051.5207247340445,
66,65,20,f,1,1,58.0,20,1,low,5 + 1 + 1 + 6 + 1,14,16,13,14,1064.9122411001008,1066.9380037999945,1068.4529244001023,1073.4706750999903,1074.0695423000725,1074.069546999992,1075.5864550000988,1076.6034189000493,e,14.0,0.598867200082168,1,+1,288,-3.615668858652203,0.38785648703200204,0.20251747003948406,1064211.0,20.646516174343084,0.5687314991775674,-0.0014098702238474203,1067743.0,,,,,1068.4527247340448,1064.9207247340446,
67,65,20,f,1,1,59.0,21,4,low,8 + 4 + 7 - 5 - 6,8,9,6,8,1078.1200824000407,1080.146873100079,1081.6621974000009,1086.6824519000947,1088.3735549000558,1088.373560200096,1089.89029260003,1090.9073872000445,e,8.0,1.6911029999610037,1,+1,289,-4.254371794760608,0.3129327916811291,0.06406160331415212,1077419.0,22.62584586475586,0.9804092327493126,0.05412052517754473,1080955.0,,,,,1081.6647247340447,1078.1287247340447,
68,65,20,f,1,1,60.0,22,3,low,2 + 1 + 9 - 5 + 6,13,14,13,11,1092.4242809000425,1094.4518517000834,1095.9670854000142,1100.9860010000411,1101.5815542000346,1101.5815596000757,1103.0979502000846,1104.114744200022,w,13.0,0.5955531999934465,1,+1,290,6.766548866176679,1.0397979200818548,0.04721194383529981,1091725.0,-5.448967879544938,0.640187937903018,-0.08619437914651229,1095258.0,,,,,1095.9677247340446,1092.4347247340447,
69,65,20,f,1,1,61.0,23,3,low,8 + 5 + 1 - 7 + 9,16,16,14,17,1105.631592300022,1107.6555138000986,1109.170761300018,1114.1901609000051,1115.3575918000424,1115.3575971000828,1116.8743633000413,1117.8913749000058,q,16.0,1.1674309000372889,1,+1,291,13.619547972956703,0.8409264531849883,0.07958545785323357,1104928.0,9.418669227007376,0.7958681732353354,0.04747044176334425,1108462.0,,,,,1109.1717247340448,1105.6377247340447,
70,65,20,f,1,1,62.0,24,1,low,2 + 1 + 1 + 9 - 1,12,11,13,12,1119.4082167000745,1121.4319410000462,1122.9470079999885,1127.9657201000955,1128.493579800008,1128.4935847000452,1130.010216100025,1131.027137099998,e,12.0,0.5278596999123693,1,+1,292,10.029662151304471,0.0005590710786198549,-0.18847064234128474,1118704.0,-30.121801460207855,0.7236144920325871,0.06577718710514935,1122238.0,,,,,1122.9477247340446,1119.4137247340445,
71,65,20,f,1,1,63.0,25,2,high,2 + 1 + 9 - 4 + 1,9,8,9,11,1132.5439601000398,1134.5711866000202,1136.0863679000176,1141.1049110000022,1141.7015636001015,1141.701569900033,1143.2181734000333,1144.235823700088,w,9.0,0.5966526000993326,1,+10,302,-26.00931631068088,0.7343302151040914,0.09941517154861823,1131844.0,5.15060316650965,0.543292074432534,0.10159029570996081,1135378.0,,,,,1136.0877247340445,1132.5537247340449,
72,65,20,f,1,1,64.0,26,3,high,5 + 6 - 4 - 1 + 7,13,13,15,14,1145.7527106000343,1147.7800240000945,1149.2950735000195,1154.3152852000203,1155.0135430000955,1155.0135480000172,1156.5301660000114,1157.548264699988,q,13.0,0.6982578000752255,1,+10,312,14.475255837239322,1.2810923828638832,-0.40870037856506647,1145053.0,22.57909976328936,1.1396849528218675,0.1879482928452716,1148588.0,,,,,1149.2977247340446,1145.7627247340447,
73,65,20,f,1,1,65.0,27,2,high,5 + 1 + 7 - 6 + 1,8,6,7,8,1159.0649293001045,1161.0928926999914,1162.607774800039,1167.6262518001022,1168.4774723000592,1168.477477000095,1169.994037600001,1171.01144989999,e,8.0,0.8512204999569803,1,+10,322,9.020497478126254,0.5969368158301909,0.08340889618203651,1158365.0,-29.63906863263857,1.05447254177639,-0.04923348215190071,1161899.0,,,,,1162.6087247340447,1159.0747247340446,
74,65,20,f,1,1,66.0,28,2,high,4 + 9 - 7 + 1 - 1,6,8,6,5,1172.5284511999926,1174.552690600045,1176.0676346000982,1181.0869134000968,1181.7255394000094,1181.7255445000485,1183.242123400094,1184.2595014000544,w,6.0,0.6386259999126196,1,+10,332,-6.736523907887388,0.27394208968202793,0.17421288014668113,1171825.0,1.1045080471826543,0.6568530293505392,0.09235092473816975,1175359.0,,,,,1176.0687247340447,1172.5347247340446,
75,65,20,f,1,1,67.0,29,4,high,3 + 9 - 5 + 6 + 8,21,23,21,22,1185.7764726000603,1187.8029162000166,1189.318148600054,1194.3361916000722,1195.021499500028,1195.0215047000677,1196.5378400000045,1197.555213600048,w,21.0,0.6853078999556601,1,+10,342,-15.923821954721554,0.5284025777505907,0.20910054203081452,1185075.0,-17.100354703143978,0.6946295285372588,0.1451681785395431,1188609.0,,,,,1189.3187247340447,1185.7847247340446,
76,65,20,f,1,1,68.0,30,2,high,4 + 1 + 9 + 1 - 6,9,9,8,7,1199.0719661000185,1201.097203200101,1202.6125066000968,1207.631589800003,1208.2774474000323,1208.2774525000714,1209.7940705000656,1210.8113039000891,q,9.0,0.6458576000295579,1,+10,352,16.323361926181825,0.5148130770402939,0.12022835035474522,1198370.0,-3.7143807540999223,0.9112439689289751,0.19516835694693668,1201904.0,,,,,1202.6137247340448,1199.0797247340447,
77,65,20,f,1,1,69.0,31,3,high,8 + 3 + 1 - 7 + 9,14,14,12,15,1212.3280518000247,1214.3541281000944,1215.8692026000936,1220.8894926999928,1222.0694510000758,1222.069455799996,1223.5867136000888,1224.603864200064,q,14.0,1.1799583000829443,1,+10,362,-14.526342484521031,1.0741065501841773,0.1739722817792586,1211627.0,-4.921804959825323,0.8774920059476048,0.28462917838373913,1215162.0,,,,,1215.8717247340446,1212.3367247340448,
78,65,20,f,1,1,70.0,32,3,high,3 + 1 + 8 - 5 + 9,16,15,16,17,1226.1210007000482,1228.1445594000395,1229.659765999997,1234.6789243000094,1235.4854273000965,1235.4854321000166,1237.0019530000864,1238.0191964000696,w,16.0,0.8065030000871047,1,+10,372,0.9163335106119224,1.0475550493325008,-0.045723227362002294,1225417.0,-9.909451931179197,0.6769080242179903,0.09133819456106629,1228951.0,,,,,1229.6607247340448,1226.1267247340447,
79,65,20,f,1,1,71.0,33,1,low,7 + 1 + 6 + 1 + 1,16,17,18,16,1239.5360105000436,1241.5637399000116,1243.0787303000689,1248.0967761999927,1248.7974927000469,1248.797498100088,1250.313935100101,1251.3310753999976,e,16.0,0.7007165000541136,1,+1,373,12.798084930350285,0.3699778144459467,1.8333664209852203,1238836.0,13.57491172251721,-0.025759926651694798,0.2149353732688768,1242369.0,,,,,1243.0787247340445,1239.5457247340446,
80,65,20,f,1,1,72.0,34,2,low,8 + 1 + 9 + 1 - 4,15,15,14,16,1252.8478957000189,1254.8763528000563,1256.3915898000123,1261.4099604000803,1261.9574463000754,1261.9574511999965,1263.473966600024,1264.491133500007,q,15.0,0.5474858999950811,1,+1,374,9.909504789441918,1.1732273037682777,0.16884236736303282,1252148.0,-13.5367016294434,1.3745893392763304,-0.03626950560974018,1255682.0,,,,,1256.3917247340446,1252.8577247340445,
81,65,20,f,1,1,73.0,35,2,high,5 + 9 - 8 + 1 + 1,8,7,8,9,1266.0079844000284,1268.034246700001,1269.5496464000316,1274.5679100000998,1276.1414508000016,1276.141456100042,1277.657965200022,1278.6751899000956,w,8.0,1.5735407999018207,1,+10,384,13.633370217295766,0.6391200225035178,-0.08028844930076273,1265306.0,24.060981143944158,0.6949600068127229,0.13222994783535458,1268840.0,,,,,1269.5497247340445,1266.0157247340449,
82,65,20,f,1,1,74.0,36,2,low,9 + 4 + 5 + 1 - 1,18,18,19,17,1280.1918175000465,1282.219615900074,1283.7349434000207,1288.753123100032,1289.3574014999904,1289.3574065000284,1290.8740947000915,1291.890369300032,q,18.0,0.6042783999582753,1,+1,385,-4.68969209486384,1.0221202134706493,-0.0849347396937159,1279492.0,9.265526190002689,1.0099421804402962,0.08051606620244778,1283025.0,,,,,1283.734724734045,1280.2017247340445,
83,65,20,f,1,1,75.0,37,2,low,7 + 5 + 1 - 1 - 8,4,3,2,4,1293.406515300041,1295.4305461000183,1296.945424900041,1301.9650175001009,1302.941360500059,1302.941366000101,1304.458049000008,1305.4748231000267,e,4.0,0.9763429999584332,1,+1,386,-31.733336868451936,0.9864507402907639,0.1000541258508576,1292703.0,-16.2997469884707,0.6304502135506622,0.09965565620963002,1296237.0,,,,,1296.946724734045,1293.4127247340448,
84,65,20,f,1,2,76.0,0,3,high,8 + 4 + 1 - 7 + 9,15,16,15,13,1318.0412865000544,1320.0694903000258,1321.584669600008,1326.6046967000002,1327.2613333000336,1327.2613384000724,1328.778911500005,1329.7959585000062,w,15.0,0.6566366000333801,1,+10,396,-3.01034664563379,0.10592334401671666,0.02905867680098506,1317342.0,-23.379132333832292,0.8246542023210353,0.0641011365326345,1320877.0,,,,,1321.5867247340448,1318.051724734045,
85,65,20,f,1,2,77.0,1,1,high,3 + 1 + 9 + 1 + 1,15,17,15,14,1331.3127439999953,1333.3400662000058,1334.8553813000908,1339.873524600058,1340.389383500093,1340.3893887000158,1341.9067722000182,1342.9243720000377,w,15.0,0.5158589000348002,1,+10,406,-22.643222110698588,0.0384345591595503,0.12152389958053389,1330611.0,6.956324066734378,-0.12952978046658403,0.16083362616408503,1334145.0,,,,,1334.8547247340448,1331.3207247340447,
86,65,20,f,1,2,78.0,2,3,high,7 - 6 + 8 + 1 + 7,17,17,16,15,1344.441075900104,1346.4670125000412,1347.982109600096,1353.0021951000672,1355.0932462000055,1355.0932513000444,1356.60978040006,1357.6270554000512,q,17.0,2.0910510999383405,1,+10,416,-0.49598034833847215,0.6409538037780087,-0.059374728558398315,1343739.0,-6.001144385518575,0.9729350969489503,0.2684088663541271,1347274.0,,,,,1347.9837247340447,1344.4487247340448,
87,65,20,f,1,2,79.0,3,4,low,7 + 8 - 4 + 6 - 5,12,13,11,12,1359.143788699992,1361.1713742000284,1362.686754400027,1367.705342900008,1368.3092339000432,1368.3092389000813,1369.825671800063,1370.8427982000867,e,12.0,0.6038910000352189,1,+1,417,-19.12757920252518,1.2257072289316864,0.14821775301054485,1358443.0,-20.643827615112496,1.2983662854557547,-1.5874956899488497,1361977.0,,,,,1362.6867247340447,1359.1527247340446,
88,65,20,f,1,2,80.0,4,3,high,3 + 1 + 6 - 8 + 9,11,12,13,11,1372.3597930000396,1374.387109800009,1375.903183800052,1380.9223118000664,1381.6132813000586,1381.6132864000974,1383.129895800026,1384.1473458000692,e,11.0,0.6909694999922067,1,+10,427,8.479931130100415,1.0172173089697525,0.04820432275165931,1371658.0,-5.730383236060884,0.7550713061018639,0.08759002403650218,1375194.0,,,,,1375.9037247340448,1372.3677247340447,
89,65,20,f,1,2,81.0,5,2,low,3 + 1 + 8 - 5 - 1,6,6,7,5,1385.6639923000475,1387.6918688000878,1389.207102400018,1394.2256390000694,1394.8372412000317,1394.837246100069,1396.353927600081,1397.370915600099,q,6.0,0.6116021999623626,1,+1,428,5.046563386661527,1.1289768019793973,0.9070029327091464,1384963.0,-26.875706999284212,1.411067284785505,-0.09891335287366765,1388497.0,,,,,1389.2067247340447,1385.6727247340446,
90,65,20,f,1,2,82.0,6,1,low,3 + 1 + 1 + 8 - 1,12,13,12,14,1398.8875265000388,1400.9135104001034,1402.4288844000548,1407.4483156000497,1408.17330080003,1408.173305900069,1409.6903891999973,1410.707225500024,w,12.0,0.7249851999804378,1,+1,429,1.2202650868877392,0.30749866181052044,0.024010238032200037,1398185.0,16.52994018684683,0.28853159967025466,0.09636858601782405,1401720.0,,,,,1402.4297247340446,1398.8947247340448,
91,65,20,f,1,2,83.0,7,1,low,2 + 9 + 1 + 1 + 1,14,12,13,14,1412.223807600094,1414.2500461000018,1415.7655003000982,1420.783681800007,1421.3891608000267,1421.3891658000648,1422.905771400081,1423.9229186000302,e,14.0,0.6054790000198409,1,+1,430,-26.60661463758315,0.46168535430776503,0.02158202459638514,1411522.0,-45.296616756589074,-0.023578857990427693,0.060349833321997615,1415055.0,,,,,1415.7647247340446,1412.2317247340447,
92,65,20,f,1,2,84.0,8,1,low,6 + 1 + 8 + 1 - 1,15,13,14,15,1425.4397981000366,1427.465275100083,1428.9803307000548,1433.9984869000036,1434.6132464000257,1434.613251700066,1436.1299853000091,1437.14684880001,e,15.0,0.6147595000220463,1,+1,431,5.364918567831914,1.038002247896047,0.03607686911602204,1424737.0,18.37716697541881,-0.0199979380175761,0.11015109653935129,1428270.0,,,,,1428.9797247340448,1425.446724734045,
93,65,20,f,1,2,85.0,9,1,high,8 - 1 + 1 + 6 + 1,15,14,15,16,1438.6634684000164,1440.6908169999951,1442.20665930002,1447.2249421000015,1447.749197200057,1447.7492020000936,1449.2661129999906,1450.2831382000586,w,15.0,0.5242551000555977,1,+10,441,-28.031593957448088,1.5662649219400127,0.04633174852537536,1437962.0,-18.635148262873447,-0.010936453814578861,0.028993511879049638,1441497.0,,,,,1442.2067247340447,1438.6717247340448,
94,65,20,f,1,2,86.0,10,2,high,4 + 7 + 1 + 1 - 8,5,7,4,5,1451.7998615000397,1453.826930600102,1455.3421459000092,1460.3623302000342,1461.2052429000614,1461.205248100101,1462.7218734000344,1463.7394248000346,e,5.0,0.8429127000272274,1,+10,451,-23.78455838633488,0.6303011220949095,0.07490358588762636,1451098.0,11.833393675835712,0.14832167688231568,0.0897757984042471,1454634.0,,,,,1455.3437247340448,1451.8077247340448,
95,65,20,f,1,2,87.0,11,3,low,6 - 1 + 7 - 8 + 9,13,11,12,13,1465.2563748999964,1467.2852408000035,1468.8004243000178,1473.8190673000645,1474.557119200006,1474.5571246000472,1476.073609000072,1477.090578900068,e,13.0,0.7380518999416381,1,+1,452,-10.469327255328894,0.6794649691206498,-0.0888998270925696,1464557.0,-10.864347697536008,0.955540065951757,0.14982738983306643,1468090.0,,,,,1468.7997247340445,1465.2667247340446,
96,65,20,f,1,2,88.0,12,1,high,2 + 1 + 9 + 1 - 1,12,11,12,13,1478.6073250999907,1480.6309845000503,1482.1461638000328,1487.1645006000765,1487.7172371000051,1487.717242600047,1489.2342210999925,1490.2515140000032,w,12.0,0.5527364999288693,1,+10,462,8.7496129258313,0.08679176126466537,0.09410570051764378,1477902.0,-9.43815978094358,0.06421538895193635,0.1773108608848637,1481436.0,,,,,1482.1457247340445,1478.6117247340449,
97,65,20,f,1,2,89.0,13,2,high,4 + 8 + 1 + 1 - 5,9,11,9,8,1491.7682010000572,1493.792218800052,1495.307501000003,1500.3263017000863,1500.9251907001017,1500.925195800024,1502.441665200051,1503.4589558000444,w,9.0,0.5988890000153333,1,+10,472,-3.776278513970147,0.7262676056061217,0.0933094648730084,1491064.0,-32.55776726703334,0.4363423399639732,-0.019960440693729486,1494597.0,,,,,1495.3067247340446,1491.7737247340447,
98,65,20,f,1,2,90.0,14,1,low,3 + 1 + 1 + 9 - 1,13,13,12,14,1504.9756240000715,1507.0034096000018,1508.5184688000008,1513.5366224000463,1514.2451498000885,1514.2451547000092,1515.7613908000058,1516.7785106000956,q,13.0,0.7085274000419304,1,+1,473,4.850578879274838,0.4964800242176928,0.047332960068039664,1504275.0,3.2711177606476216,0.1787191464050828,-0.17560701258965494,1507808.0,,,,,1508.5177247340448,1504.984724734045,
99,65,20,f,1,2,91.0,15,4,high,8 + 3 - 4 + 5 + 9,21,22,21,23,1518.295533100027,1520.3215242000297,1521.8367617999902,1526.8564969000872,1527.5251107000513,1527.5251156000886,1529.0416300999932,1530.0588767000008,w,21.0,0.6686137999640778,1,+10,483,-27.05192986330293,0.5786976633499421,0.13146074113325756,1517592.0,11.561729229416283,0.8294843570077859,0.20143027787166434,1521127.0,,,,,1521.8367247340448,1518.301724734045,
100,65,20,f,1,2,92.0,16,2,high,9 + 1 + 6 + 7 + 1,24,24,23,25,1531.5759221999906,1533.6014881000156,1535.1170080000302,1540.1350190000376,1540.8291181999955,1540.829123500036,1542.345632600016,1543.3627288000423,q,24.0,0.6940991999581456,1,+10,493,31.240133965495204,0.14685324777199327,-0.11566281094289899,1530873.0,-3.834465725631862,0.3351745797378145,0.09910404413538498,1534406.0,,,,,1535.1157247340448,1531.5827247340449,
101,65,20,f,1,2,93.0,17,3,low,7 + 5 + 9 + 1 - 6,16,16,15,14,1544.8796855000546,1546.9065594000276,1548.4218570000958,1553.4419598000825,1554.08507000003,1554.0850749000674,1555.6015645000152,1556.6183445000788,q,16.0,0.6431101999478415,1,+1,494,-13.597598257545277,0.922481124599229,0.1047621448282181,1544178.0,23.218965131783406,0.3043431441538651,0.12543683105250736,1547713.0,,,,,1548.4227247340446,1544.8877247340447,
102,65,20,f,1,2,94.0,18,2,high,6 + 1 + 7 + 5 - 1,18,18,16,17,1558.1351356999949,1560.1626972000813,1561.6779060000554,1566.6963876000373,1567.2930302000605,1567.293035000097,1568.8095891000703,1569.826878700056,q,18.0,0.5966426000231877,1,+10,504,34.44678155793955,0.399545385676106,0.14796946974540015,1557434.0,6.6768348123525385,0.20762136987905233,-0.037322033823290024,1560968.0,,,,,1561.6777247340447,1558.1437247340446,
103,65,20,f,1,2,95.0,19,1,low,2 + 9 + 1 + 1 + 1,14,12,14,13,1571.3438804000616,1573.3705762000754,1574.8863337000366,1579.9041196000762,1580.4210464000937,1580.4210512000136,1581.9377437999938,1582.9548472000752,w,14.0,0.5169268000172451,1,+1,505,4.936157966034031,-0.04640827711699913,0.012882768928748511,1570642.0,-1.6727404247123907,0.10529567461920575,0.08634182484273656,1574175.0,,,,,1574.8847247340445,1571.3517247340446,
104,65,20,f,1,2,96.0,20,3,high,3 - 7 + 5 + 1 + 9,11,12,11,13,1584.471552200033,1586.499703300069,1588.0152588000055,1593.0341723000165,1593.7171935000224,1593.7171986000612,1595.233553000027,1596.2513375000565,w,11.0,0.6830212000058964,1,+10,515,-15.427921266522285,0.31502360855093325,0.18295551068124416,1583771.0,22.69349431424667,0.7810591903817823,-0.005526711410810847,1587305.0,,,,,1588.0147247340446,1584.4807247340445,
105,65,20,f,1,2,97.0,21,4,high,9 + 4 - 6 + 8 + 7,22,24,22,21,1597.7688245000318,1599.7924857999897,1601.3077576000942,1606.3263157000763,1606.9250427000225,1606.925047500059,1608.4414191000396,1609.4597769000102,w,22.0,0.5987269999459386,1,+10,525,23.79556166533588,0.28296853169830527,0.13256532669440757,1597064.0,15.300448848302672,0.6622858753626399,0.3417288967462522,1600597.0,,,,,1601.3067247340446,1597.7737247340447,
106,65,20,f,1,2,98.0,22,4,low,2 + 9 - 4 + 8 + 7,22,21,23,22,1610.9765114000766,1613.003473800025,1614.518604000099,1619.53680370003,1620.2130566000706,1620.2130615999922,1621.7295840000734,1622.746631200076,e,22.0,0.6762529000407085,1,+1,526,9.074131496648757,0.4853930926242169,0.18705923932498325,1610275.0,-14.899334393378867,-2.3648644432725465,0.05272276375566243,1613808.0,,,,,1614.5177247340448,1610.984724734045,
107,65,20,f,1,2,99.0,23,4,high,5 + 7 - 4 + 8 + 6,22,24,23,22,1624.263441600022,1626.2921225000173,1627.807346100104,1632.8263145000674,1634.7890669000335,1634.7890727000777,1636.3056858000346,1637.3232543000486,e,22.0,1.9627523999661207,1,+10,536,26.122489976144706,0.3624993086289354,-0.09693164673336696,1623563.0,-14.09472853909059,0.5778181846834727,0.06689446318031322,1627097.0,,,,,1627.8067247340446,1624.272724734045,
108,65,20,f,1,2,100.0,24,1,high,7 - 1 + 9 + 1 - 1,15,15,14,13,1638.8400870000478,1640.8648419000674,1642.3798289000988,1647.3985203000484,1647.9970087000402,1647.9970133000752,1649.5144280000825,1650.532356700045,q,15.0,0.5984883999917656,1,+10,546,-3.561517862824397,-0.03290227780899979,0.02849136277940456,1638136.0,11.105172443246639,-0.044129847284284374,0.050168468573424274,1641669.0,,,,,1642.3787247340447,1638.8457247340448,
109,65,20,f,1,2,101.0,25,4,low,6 + 5 - 7 + 8 - 9,3,3,4,5,1652.0490500000303,1654.0766220000803,1655.591933800024,1660.610451000044,1661.2530043000588,1661.253009300097,1662.7698867000872,1663.786730300053,q,3.0,0.642553300014697,1,+1,547,2.256594747280019,0.5546674382865682,0.05918472420992926,1651347.0,3.6700807819541925,1.889305504414267,0.09124451252488486,1654881.0,,,,,1655.5907247340447,1652.0567247340446,
110,65,20,f,1,2,102.0,26,3,low,4 + 8 - 9 + 1 + 7,11,9,13,11,1665.303942700033,1667.331971900072,1668.8470232000109,1673.865240000072,1674.476905300049,1674.476910000085,1675.9933727000607,1677.0103159000864,e,11.0,0.6116652999771759,1,+1,548,10.183536886469387,0.7618188355536759,0.06189266016962369,1664603.0,-14.157610737461336,0.2832391889121393,0.19394267049826652,1668136.0,,,,,1668.8457247340448,1665.3127247340449,
111,65,20,f,1,2,103.0,27,4,high,9 + 8 - 5 - 7 + 6,11,10,13,11,1678.5269858000102,1680.551616600016,1682.06696080009,1687.0859195000958,1687.732969100005,1687.7329744000454,1689.2499763000524,1690.26698090008,e,11.0,0.6470495999092236,1,+10,558,-8.139570312499384,0.04789093090268004,0.037864334651984244,1677822.0,-3.782336325958248,0.8537507819012831,0.06323027885014909,1681357.0,,,,,1682.0667247340448,1678.5317247340445,
112,65,20,f,1,2,104.0,28,3,low,4 + 7 - 3 + 5 - 1,12,11,12,13,1691.7837825000752,1693.8114818000467,1695.3267849000404,1700.345591600053,1700.940971700009,1700.940976700047,1702.457480500103,1703.4743039000314,w,12.0,0.5953800999559462,1,+1,559,13.926483244957076,0.45273022088336656,0.163963379064757,1691081.0,-18.50174435533738,0.8663603198979581,0.33110430823374304,1694616.0,,,,,1695.3257247340448,1691.7907247340445,
113,65,20,f,1,2,105.0,29,4,low,5 + 7 - 4 + 6 + 9,23,23,24,25,1704.9910890000174,1707.01925630006,1708.5345620000735,1713.5533665000694,1714.9569858000614,1714.9569911001015,1716.4736027000472,1717.490482800058,q,23.0,1.4036192999919876,1,+1,560,24.14370867423876,0.4106158560196036,-0.13098497240278117,1704290.0,-16.524023071681484,0.5084830435231549,0.036154304925564595,1707824.0,,,,,1708.5337247340449,1704.9997247340448,
114,65,20,f,1,2,106.0,30,4,high,3 + 8 - 4 + 9 + 6,22,21,23,22,1719.0074142999947,1721.033584500081,1722.548737800098,1727.5681163000409,1728.2369136000052,1728.236919100047,1729.7536640000762,1730.7711111000972,e,22.0,0.6687972999643534,1,+10,570,0.354205099283341,0.47550120212824787,-0.16882275298167482,1718304.0,9.729391233021538,0.2975617491707352,0.24876788903129166,1721839.0,,,,,1722.5487247340448,1719.013724734045,
115,65,20,f,1,2,107.0,31,1,high,2 + 1 + 9 + 1 + 1,14,14,13,12,1732.288966500084,1734.31386330002,1735.829052300076,1740.847104500048,1741.4929031000938,1741.4929080000147,1743.0096168000018,1744.026944000041,q,14.0,0.6457986000459641,1,+10,580,3.588372484201294,-0.10841112734583724,-0.13221087203058568,1731584.0,-21.112985496654925,0.1655597929761985,0.3000326340097472,1735118.0,,,,,1735.8277247340448,1732.2937247340446,
116,65,20,f,1,2,108.0,32,4,low,3 + 8 - 4 + 9 + 7,23,23,22,24,1745.5437574000098,1747.571939000045,1749.0871320000151,1754.1065050000325,1754.7489309000084,1754.748936100048,1756.2655190000078,1757.282556900056,q,23.0,0.6424258999759331,1,+1,581,10.475941786422592,0.5445460805513651,0.7837867139988051,1744842.0,13.768634197885557,1.3018015397272782,0.2268280051565934,1748376.0,,,,,1749.0857247340446,1745.551724734045,
117,65,20,f,1,2,109.0,33,4,low,6 + 9 + 7 - 3 - 5,14,13,12,14,1758.7993353999918,1760.8247838000534,1762.339961300022,1767.358512200066,1768.1969162001042,1768.1969219000312,1769.7137798999902,1770.7306981000584,e,14.0,0.8384040000382811,1,+1,582,-8.902361201460709,1.1119998295884033,0.08407020506942997,1758095.0,-25.276794882655018,1.2577293308078241,0.13289406689909722,1761629.0,,,,,1762.3387247340447,1758.8047247340446,
118,65,20,f,1,2,110.0,34,4,low,4 + 7 - 8 + 9 - 3,9,11,9,8,1772.2474141001005,1774.2753228000363,1775.7905557000777,1780.8090501000406,1781.5408638000954,1781.5408686000155,1783.056916300091,1784.0738712000891,q,11.0,0.7318137000547722,0,+0,582,7.62189640978195,0.6571534213681742,0.15728965188085153,1771546.0,-1.2150669897128843,-0.5238888601938401,0.3199133000096346,1775080.0,,,,,1775.7897247340447,1772.2557247340446,
119,65,20,f,1,2,111.0,35,2,high,9 + 5 - 6 + 1 - 1,8,7,8,9,1785.590825600084,1787.6168633000923,1789.1321338000707,1794.150241700001,1794.7008616999956,1794.7008667000337,1796.217968000099,1797.235256300075,w,8.0,0.5506199999945238,1,+10,592,14.111049226742296,0.7023582997008564,0.017427103437701597,1784887.0,-0.005129769756171854,-0.1837394613661365,0.1917670261816613,1788421.0,,,,,1789.1307247340446,1785.5967247340445,
120,65,20,f,1,2,112.0,36,1,low,7 + 1 + 4 + 1 - 1,12,12,11,13,1798.7517324000364,1800.7795871000271,1802.294880600064,1807.3132529000288,1807.9168454000028,1807.9168504000409,1809.4334605000915,1810.4502090000317,q,12.0,0.6035924999741837,1,+1,593,-23.006435281371903,0.374207634753128,-0.09285746315466858,1798049.0,-7.581294149380055,0.11410053456422364,0.23888496788281466,1801584.0,,,,,1802.2937247340446,1798.7587247340448,
121,65,20,f,1,2,113.0,37,2,high,3 + 8 + 1 - 5 + 1,8,9,6,8,1811.9672795000952,1813.994596100063,1815.509899500059,1820.528339800076,1821.5009026000043,1821.5009076000424,1823.0172998000637,1824.0343079000013,e,8.0,0.97256279992871,1,+10,603,6.430015330557318,0.1863374121151935,-0.8307471605392527,1811265.0,0.20827042080865787,0.9659966344754869,0.1354748893987372,1814799.0,,,,,1815.5087247340448,1811.9747247340447,
122,65,20,f,1,3,114.0,0,3,low,6 - 1 + 7 - 8 + 9,13,13,11,12,1845.4334127000768,1847.4604924001032,1848.9761815000093,1853.9968362000072,1854.6370615999915,1854.637067500036,1856.1536035999889,1857.1706675000023,q,13.0,0.6402253999840468,1,+1,604,-6.359094242917852,1.5716526890393967,0.12636390089176208,1844731.0,13.690287678352655,1.2590300758398887,0.07012118903514897,1848267.0,,,,,1848.9767247340446,1845.4407247340446,
123,65,20,f,1,3,115.0,1,1,high,9 + 7 + 1 + 1 + 1,19,18,20,19,1858.6880724000512,1860.7113385000264,1862.2264066000932,1867.244681300013,1867.9887632000027,1867.9887683000416,1869.5057720000625,1870.5228803000648,e,19.0,0.7440818999893963,1,+10,614,1.435599412970805,0.09575345088470955,0.10687903177811031,1857982.0,-22.206709439990867,0.25570530105011713,0.1425113061384662,1861515.0,,,,,1862.2247247340447,1858.6917247340448,
124,65,20,f,1,3,116.0,2,4,high,4 + 7 + 8 - 3 + 9,25,24,26,25,1872.0397039999957,1874.0648205000907,1875.5801766000225,1880.5987759000852,1882.2367562000877,1882.2367609000064,1883.7537069000537,1884.7712996000191,e,25.0,1.6379803000018,1,+10,624,5.931236980956323,0.9811038753616959,-0.07976216556821147,1871335.0,7.340959609600025,1.0036408742311844,0.3132794962425245,1874869.0,,,,,1875.5787247340445,1872.0447247340448,
125,65,20,f,1,3,117.0,3,1,high,5 + 8 - 1 + 1 + 1,14,14,16,12,1886.2882678000024,1888.314343000064,1889.8301964000568,1894.8485004000831,1895.732950200094,1895.732955000014,1897.2494479001036,1898.2668849000477,q,14.0,0.8844498000107706,1,+10,634,-23.744939088735226,-0.21910316200951252,0.11911316928036708,1885584.0,7.919903196796378,0.09862358201138166,0.043686411214522325,1889119.0,,,,,1889.8287247340445,1886.2937247340446,
126,65,20,f,1,3,118.0,4,4,high,9 + 3 - 5 + 8 + 6,21,19,23,21,1899.783759700018,1901.8106559000444,1903.3258063000396,1908.3440744000252,1910.1967361000131,1910.19674090005,1911.7132500000296,1912.730755000026,e,21.0,1.852661699987948,1,+10,644,-5.582952527291418,1.0065079493207114,-0.004497755589547792,1899081.0,-1.171364164746839,0.6765104546573535,0.14006098728157856,1902614.0,,,,,1903.3237247340448,1899.7907247340445,
127,65,20,f,1,3,119.0,5,2,low,6 + 1 + 7 - 8 - 1,5,7,4,5,1914.2471304000355,1916.2747642000904,1917.7897708000385,1922.808240100043,1923.5887009000871,1923.5887059000088,1925.1051430000225,1926.121809000033,e,5.0,0.7804608000442386,1,+1,645,25.14148120255811,0.7921649899279175,-0.06710721466790792,1913545.0,-7.794677839652655,0.887087154375652,-0.8303300862204002,1917078.0,,,,,1917.7877247340448,1914.2547247340449,
128,65,20,f,1,3,120.0,6,1,low,4 + 7 + 1 - 1 - 1,10,9,10,11,1927.638042300008,1929.6635972000656,1931.1789901000448,1936.1994945000624,1937.1247465000488,1937.1247515000869,1938.641307300073,1939.6582674999956,w,10.0,0.925251999986358,1,+1,646,11.598544668477139,0.09160766100103546,0.1360764192318502,1926934.0,3.0128512902021125,0.7311641485615894,0.25983022998648253,1930469.0,,,,,1931.1787247340449,1927.6437247340446,
129,65,20,f,1,3,121.0,7,4,high,2 + 9 - 6 + 8 - 4,9,11,7,9,1941.1749653000152,1943.20233130001,1944.717553500086,1949.735703100101,1950.5806738000829,1950.5806789000053,1952.0969119000947,1953.114188000094,e,9.0,0.8449706999817863,1,+10,656,-51.695939644115306,0.37014756587920683,-0.035753346695560184,1940472.0,-28.517366996688484,0.5489335966976041,0.2579651548510531,1944006.0,,,,,1944.7157247340447,1941.1817247340446,
130,65,20,f,1,3,122.0,8,2,high,5 - 1 + 1 + 8 + 9,22,21,23,22,1954.631282199989,1956.659846000024,1958.174781900016,1963.194123000023,1965.2526866000844,1965.2526917000068,1966.769126800005,1967.7863087001024,e,22.0,2.0585636000614613,1,+10,666,-10.435640611240299,0.45173485047553186,0.05101422943985123,1953930.0,-5.814703298444277,0.8956784637859632,0.23254029719686464,1957464.0,,,,,1958.1737247340448,1954.6397247340446,
131,65,20,f,1,3,123.0,9,2,low,6 + 1 + 1 + 7 - 9,6,6,4,8,1969.3030413000376,1971.3301458000203,1972.845418700017,1977.8639460999984,1978.564652900095,1978.5646579000168,1980.081913500093,1981.0988994000943,q,6.0,0.7007068000966683,1,+1,667,-15.261124829615106,0.9870332956215817,0.9046688637258837,1968600.0,-5.884412167753888,1.3753679302132793,-0.45591275525256725,1972134.0,,,,,1972.8437247340448,1969.3097247340447,
132,65,20,f,1,3,124.0,10,1,low,6 + 1 + 1 + 9 - 1,16,15,14,16,1982.6157422000545,1984.6418014999945,1986.1575818000128,1991.175544400001,1991.740594300092,1991.7405995000156,1993.257162400056,1994.2740309000949,e,16.0,0.5650499000912532,1,+1,668,-10.455533113017914,0.4192387394833683,0.04121262583930796,1981911.0,34.327190674271684,0.6709864877171725,0.1163325150867931,1985445.0,,,,,1986.1547247340445,1982.6207247340449,
133,65,20,f,1,3,125.0,11,3,high,7 - 1 + 9 - 5 + 4,14,15,13,14,1995.790531000006,1997.818047500099,1999.3331331000663,2004.3519281999909,2005.1566171000013,2005.1566221000396,2006.6731501000468,2007.6903839000731,e,14.0,0.8046889000106603,1,+10,678,-2.6601979648540386,0.4341300134470747,0.09325426766841272,1995088.0,-18.852595796147202,0.6306957397544091,0.05815527617785832,1998621.0,,,,,1999.330724734045,1995.7977247340446,
134,65,20,f,1,3,126.0,12,3,low,7 + 1 + 9 + 5 - 6,16,16,14,15,2009.207476700074,2011.2316803000867,2012.7469244000968,2017.766122600064,2018.484609000036,2018.4846139000729,2020.0010432000272,2021.01850980008,q,16.0,0.71848639997188,1,+1,679,-3.034619130266881,0.6897569335784919,0.07761825963072022,2008501.0,-30.563588097011067,1.1625106189786645,0.20509612456211013,2012035.0,,,,,2012.7447247340447,2009.2107247340446,
135,65,20,f,1,3,127.0,13,4,low,5 + 6 - 4 + 7 + 9,23,23,24,25,2022.5349950999955,2024.56145030004,2026.0766865999904,2031.094893700094,2031.8446210999973,2031.8446260000344,2033.3610971000744,2034.378008600092,q,23.0,0.7497273999033496,1,+1,680,-17.955242198208495,1.3502233595930373,-0.10870943555422508,2021831.0,-35.842544610912555,1.1014553040069819,-0.002774253522984438,2025365.0,,,,,2026.0747247340446,2022.5407247340445,
136,65,20,f,1,3,128.0,14,1,high,8 + 1 + 4 + 1 + 1,15,15,14,16,2035.8954176000552,2037.9236998000413,2039.43899350008,2044.457000500057,2045.164799900027,2045.1648046000628,2046.6813456000527,2047.699194899993,q,15.0,0.7077993999700993,1,+10,690,5.016507954172948,0.5005916112148903,0.18818187050928303,2035193.0,-25.828275650700704,0.3028761252123324,0.19205961568649577,2038726.0,,,,,2039.435724734045,2035.9027247340446,
137,65,20,f,1,3,129.0,15,4,low,4 + 7 + 9 - 5 + 7,22,23,24,22,2049.2158854000736,2051.242066100007,2052.7572548000608,2057.7754206000827,2059.3245882000774,2059.324593199999,2060.8410305000143,2061.857979100081,e,22.0,1.5491675999946892,1,+1,691,1.4585643047916896,0.8347518775105471,-0.16300295094015516,2048511.0,-39.88099505403743,1.3468147612529346,0.09712788188145915,2052045.0,,,,,2052.754724734045,2049.220724734045,
138,65,20,f,1,3,130.0,16,1,high,5 + 6 + 1 + 1 + 1,14,15,16,14,2063.3747371000936,2065.4033744999906,2066.918679299997,2071.936449200032,2072.612582300091,2072.6125871000118,2074.128879500088,2075.1463288000086,e,14.0,0.6761331000598148,1,+10,701,4.928538378879038,-0.05409803758189424,0.13522762510116415,2062673.0,3.9073845408774677,0.03229997543188645,0.08903000290387642,2066206.0,,,,,2066.915724734045,2063.3827247340446,
139,65,20,f,1,3,131.0,17,4,low,4 + 8 + 9 - 3 + 7,25,26,24,25,2076.6629959000275,2078.691348600085,2080.206679600058,2085.225445899996,2086.1166356999893,2086.116641300032,2087.6332924000453,2088.650454099989,e,25.0,0.891189799993299,1,+1,702,24.401105723488293,1.2266681921744302,-0.06548968782048714,2075961.0,-30.601516710276044,1.575434182046298,0.19995313809625914,2079495.0,,,,,2080.2047247340447,2076.6707247340446,
140,65,20,f,1,3,132.0,18,4,high,9 + 7 - 5 + 8 + 6,25,25,27,24,2090.167183100013,2092.194061700022,2093.709318500012,2098.7279450000497,2099.4524915000657,2099.452496300102,2100.9688452000264,2101.986175700091,q,25.0,0.7245465000160038,1,+10,712,-0.15562163875602675,0.9684839536716114,-0.1245532791632078,2089463.0,13.141269137074133,0.976713508554802,0.16000173221398084,2092997.0,,,,,2093.7067247340447,2090.172724734045,
141,65,20,f,1,3,133.0,19,3,low,6 - 1 + 7 - 8 + 9,13,11,12,13,2103.503065200057,2105.529137100093,2107.0443117000395,2112.062693200074,2112.644513000036,2112.6445182000757,2114.161764800083,2115.1791796000907,e,13.0,0.5818197999615222,1,+1,713,0.7839911607819321,0.5200260715728744,0.21738127605960655,2102798.0,-19.03720724758907,0.9962344700392896,0.35871291919662074,2106332.0,,,,,2107.0417247340447,2103.5077247340446,
142,65,20,f,1,3,134.0,20,2,low,6 + 1 + 8 + 5 - 1,19,19,17,18,2116.69613330008,2118.723656999995,2120.238861300051,2125.256942900014,2125.924516200088,2125.9245212000096,2127.440961000044,2128.4578498000046,q,19.0,0.6675733000738546,1,+1,714,3.6046249594507254,0.991834837236079,0.2948670926316712,2115993.0,10.822887296077365,1.0822209682816903,0.1451296896994454,2119526.0,,,,,2120.2357247340447,2116.7027247340448,
143,65,20,f,1,3,135.0,21,1,high,7 - 1 + 1 + 9 - 1,15,14,15,13,2129.97503229999,2132.0026882000966,2133.517755100038,2138.5363488000585,2140.108566800016,2140.108572200057,2141.6255974000087,2142.643071300001,w,15.0,1.572217999957502,1,+10,724,-2.346195633777448,-0.045618584047533606,0.06148638576819576,2129271.0,21.29108431721012,0.23721803072845082,0.09729944652550415,2132806.0,,,,,2133.515724734045,2129.980724734045,
144,65,20,f,1,3,136.0,22,3,low,5 + 1 + 7 - 8 + 6,11,9,13,11,2144.159394000075,2146.1837084,2147.699013600009,2152.7175376000814,2153.332500700024,2153.332506400068,2154.849589599995,2155.866737900069,e,11.0,0.6149630999425426,1,+1,725,-14.621124118846332,1.1397163849148741,-0.7209518617854407,2143453.0,6.3983075680286925,1.4815579867547122,0.06966678716634389,2146987.0,,,,,2147.696724734045,2144.162724734045,
145,65,20,f,1,3,137.0,23,1,high,4 + 8 + 1 - 1 - 1,11,13,11,9,2157.382634000038,2159.408817399992,2160.9245993000222,2165.942128700088,2167.252459999989,2167.252465000027,2168.769023800036,2169.7867119000293,w,11.0,1.3103312999010086,1,+10,735,24.596719532286862,-0.08345689410799695,0.1325351648300317,2156678.0,-20.04744658426164,0.15374621195324156,-0.06986927492944162,2160212.0,,,,,2160.921724734045,2157.3877247340447,
146,65,20,f,1,3,138.0,24,2,low,8 + 1 + 4 - 7 + 1,7,5,7,6,2171.3035860999958,2173.330285500037,2174.846198400017,2179.865102900076,2180.548463599989,2180.5484685000265,2182.064979800023,2183.0822865000227,w,7.0,0.6833606999134645,1,+1,736,-14.878942130038293,1.00377712430944,-0.07620750207321025,2170599.0,6.7383307323454416,1.0927658163047278,0.09570894447832856,2174134.0,,,,,2174.843724734045,2171.308724734045,
147,65,20,f,1,3,139.0,25,4,low,6 + 9 + 7 - 3 - 5,14,15,14,13,2184.5990664000856,2186.6251442000503,2188.140312300064,2193.160376999993,2193.844415700063,2193.8444206001004,2195.360897700069,2196.377808000077,w,14.0,0.6840387000702322,1,+1,737,-16.73990454579088,1.1899102296467352,0.007419789687157952,2183894.0,12.637764557189078,1.2800619730240976,0.12768914700820133,2187429.0,,,,,2188.138724734045,2184.6037247340446,
148,65,20,f,1,3,140.0,26,2,low,6 + 1 + 1 + 7 - 9,6,4,8,6,2197.894926600042,2199.9213505000807,2201.4366755000083,2206.4555570000084,2207.0284016000805,2207.0284064000007,2208.544890700025,2209.561726700049,e,6.0,0.5728446000721306,1,+1,738,-3.8187213034908236,1.0342618910757886,-0.10927098527941492,2197191.0,-8.978507466248127,1.0156426033210932,-0.004928938196564037,2200725.0,,,,,2201.4347247340447,2197.9007247340446,
149,65,20,f,1,3,141.0,27,2,low,5 + 7 - 8 + 1 + 1,6,8,6,7,2211.0792712999973,2213.10310320009,2214.61830750003,2219.6371005000547,2220.2924428000115,2220.2924478000496,2221.808939700015,2222.8258373000426,w,6.0,0.6553422999568284,1,+1,739,-11.297536450108389,0.9140016084898304,0.08211303058935648,2210372.0,-2.0871988989855907,1.1453026201478598,0.29445090377639715,2213906.0,,,,,2214.6157247340448,2211.0817247340447,
150,65,20,f,1,3,142.0,28,2,low,3 - 1 + 9 - 5 + 1,7,7,6,5,2224.3429799000733,2226.365439700079,2227.880357000045,2232.898615400074,2233.6044160000747,2233.6044205999933,2235.1209090000484,2236.137922700029,q,7.0,0.7058006000006571,1,+1,740,5.411696913046715,0.6964678082429998,-2.4115682899064073,2223634.0,-11.646238082123908,0.8481476017550751,0.14883325119995594,2227168.0,,,,,2227.877724734045,2224.343724734045,
151,65,20,f,1,3,143.0,29,3,high,6 + 1 + 8 + 7 - 9,13,14,15,13,2237.654582099989,2239.682217600057,2241.197202700074,2246.215589600033,2246.892814800027,2246.892820100067,2248.409413100104,2249.426731500076,e,13.0,0.6772251999936998,1,+10,750,-19.946351318377666,0.8614823427302292,-0.013458375377311427,2236951.0,4.937462280831599,0.5915295778598249,0.08402719075735599,2240485.0,,,,,2241.194724734045,2237.660724734045,
152,65,20,f,1,3,144.0,30,2,high,2 + 1 + 9 - 4 + 1,9,8,11,9,2250.9434913001023,2252.9710145000136,2254.486188500072,2259.504618900013,2260.26842540002,2260.2684304000577,2261.7848866001004,2262.8021233000327,e,9.0,0.7638065000064671,1,+10,760,3.3665113234662805,0.9757692031016485,0.06922344167037142,2250240.0,50.8162323792869,0.7614937162496638,0.15404610407555852,2253773.0,,,,,2254.482724734045,2250.9497247340446,
153,65,20,f,1,3,145.0,31,3,low,7 - 5 + 9 + 1 - 4,8,7,8,9,2264.3188770000124,2266.3467238000594,2267.861945600016,2272.8805517000146,2273.420395000023,2273.4204001000617,2274.936918399995,2275.953746800078,w,8.0,0.539843300008215,1,+1,761,2.8278489602979437,1.2563927099111747,-7.863032382382507e-05,2263615.0,-72.17336903792638,1.0918965045232443,-0.1131670552852273,2267149.0,,,,,2267.8587247340447,2264.3247247340446,
154,65,20,f,1,3,146.0,32,4,high,8 + 5 - 4 + 7 + 9,25,25,26,24,2277.470336300088,2279.493996300036,2281.0092480999883,2286.027407500078,2286.652312300052,2286.652317200089,2288.1689781000605,2289.186405100045,q,25.0,0.6249047999735922,1,+10,771,-10.340341505356792,6.488708673534084,4.127207424562703,2276763.0,-2.023311348518451,0.33712099225798386,-0.2933604872081217,2280296.0,,,,,2281.0057247340446,2277.4727247340447,
155,65,20,f,1,3,147.0,33,1,high,8 + 1 + 5 + 1 + 1,16,15,17,16,2290.7030838000355,2292.728572400054,2294.2439250000757,2299.26195830002,2299.8683801000006,2299.868385000038,2301.3861449999968,2302.403584100073,e,16.0,0.6064217999810353,1,+10,781,-15.644912420412854,0.10627005182586124,0.06960898782285518,2289997.0,5.312936227211603,-0.09484791945014326,-0.15360504852885226,2293531.0,,,,,2294.2407247340448,2290.7067247340447,
156,65,20,f,1,3,148.0,34,3,low,2 + 9 + 1 - 5 + 7,14,15,14,12,2303.920127600082,2305.9461645000847,2307.461398400017,2312.480148600065,2313.316373400041,2313.316378200077,2314.8330182000063,2315.850158000016,w,14.0,0.8362247999757528,1,+1,782,7.390250834504871,1.2050549343533339,0.1820230156201148,2303215.0,8.099551343697986,1.023966823231424,0.2515281925295092,2306748.0,,,,,2307.457724734045,2303.924724734045,
157,65,20,f,1,3,149.0,35,2,low,4 + 9 + 1 - 7 - 1,6,8,6,5,2317.3668422000483,2319.3938607000746,2320.909606900066,2325.928017800092,2326.444302899996,2326.4443080000347,2327.961435100064,2328.9782708000857,w,6.0,0.5162850999040529,1,+1,783,-17.91201982215928,1.3734297952995265,-0.07495854706846417,2316662.0,17.580275389517663,0.6916235317899573,0.034057165373178266,2320197.0,,,,,2320.906724734045,2317.3717247340446,
158,65,20,f,1,3,150.0,36,3,high,4 + 7 + 1 + 9 - 5,16,18,17,16,2330.494957000017,2332.521462000092,2334.0370526000625,2339.05595170008,2339.8443752999883,2339.8443803000264,2341.361173500074,2342.3785246000625,e,16.0,0.7884235999081284,1,+10,793,-4.130257209381142,0.26508905605578725,-0.018229392463612104,2329790.0,-41.189615617387744,0.842776774987442,-0.10280239881798847,2333325.0,,,,,2334.0347247340446,2330.499724734045,
159,65,20,f,1,3,151.0,37,3,high,4 + 5 - 3 + 7 - 1,12,12,11,13,2343.8954121000133,2345.919961200096,2347.4359154000413,2352.455407500034,2353.1243018000387,2353.124307100079,2354.6415960000595,2355.659155500005,q,12.0,0.6688943000044674,1,+10,803,5.647325205643499,0.3919850802621929,0.1464350691347076,2343189.0,21.286607175922082,0.8706136165527996,0.12287201913226409,2346723.0,,,,,2347.4327247340448,2343.8987247340447,
160,65,20,f,1,4,152.0,0,2,high,3 + 9 - 1 - 5 + 1,7,5,7,6,2371.904275900102,2373.931623300072,2375.447547900025,2380.4704474000027,2380.9882750000106,2380.98828020005,2382.5049844000023,2383.522491300013,w,7.0,0.5178276000078768,1,+10,813,15.21889173404492,1.1795146619746069,0.7875345419318156,2371200.0,20.140919639507597,0.20151501520267834,0.08780157392161758,2374739.0,,,,,2375.448724734045,2371.9097247340446,
161,65,20,f,1,4,153.0,1,2,low,4 + 9 - 7 + 1 - 1,6,6,5,8,2385.0394682000624,2387.066801600042,2388.582018300076,2393.601132000098,2394.180302200024,2394.180307300063,2395.6969703000505,2396.713940900052,q,6.0,0.5791701999260113,1,+1,814,5.714037005000134,1.161823074852713,-0.2708011040803271,2384335.0,-28.091736354723366,1.3658998033077603,0.3548747374326726,2387869.0,,,,,2388.578724734045,2385.044724734045,
162,65,20,f,1,4,154.0,2,1,low,5 + 6 + 1 + 1 + 1,14,13,16,14,2398.2306781000225,2400.256588199991,2401.7714660000056,2406.789912700071,2407.43623760005,2407.436242600088,2408.953090700088,2409.9707161000697,e,14.0,0.6463248999789357,1,+1,815,12.701551998901286,0.4790897022725953,0.3125750572498065,2397525.0,28.125737066366412,0.6854364513511633,0.15355319373540155,2401058.0,,,,,2401.767724734045,2398.234724734045,
163,65,20,f,1,4,155.0,3,3,low,3 + 8 + 1 + 5 - 9,8,8,7,9,2411.487622500048,2413.5144606000977,2415.029692000011,2420.049080800032,2420.6362659001024,2420.636270900024,2422.152712600073,2423.168683200027,q,8.0,0.5871851000702009,1,+1,816,16.9896133546355,1.3635245459634036,0.07082553140114478,2410782.0,-4.078187072038288,1.39335178016872,-0.08518058269238882,2414317.0,,,,,2415.026724734045,2411.491724734045,
164,65,20,f,1,4,156.0,4,3,high,6 + 8 + 7 + 1 - 9,13,13,14,15,2424.685178900021,2426.710794700077,2428.226431200048,2433.244723000098,2433.940279000089,2433.9402926000766,2435.4578611000907,2436.4755785000743,q,13.0,0.695555999991484,1,+10,826,26.994120001356222,1.1335219075027168,-0.005383988552065233,2423978.0,-15.871962450380714,1.1197102916629067,0.24242156051842745,2427514.0,,,,,2428.223724734045,2424.687724734045,
165,65,20,f,1,4,157.0,5,1,low,3 + 1 + 8 + 1 + 1,14,12,14,13,2437.992227500072,2440.018222999992,2441.533404799993,2446.550920500071,2447.2841973000905,2447.2842025000136,2448.8006388000213,2449.817863400094,w,14.0,0.7332768000196666,1,+1,827,-12.179287976125101,0.7828658761751344,0.027011538007934988,2437286.0,-12.660810162059732,0.6560873556387385,0.5306323650391589,2440820.0,,,,,2441.529724734045,2437.995724734045,
166,65,20,f,1,4,158.0,6,4,high,2 + 9 - 3 + 5 + 8,21,22,21,23,2451.3348141000606,2453.36256899999,2454.877743100049,2459.8964608000824,2460.5641786000924,2460.5641835000133,2462.0803353000665,2463.097622600035,w,21.0,0.6677178000099957,1,+10,837,-17.864539153771666,1.0067354102193973,-0.6604205517293553,2450631.0,-20.18155772821209,0.9469888361240197,0.23146426084314298,2454165.0,,,,,2454.874724734045,2451.3407247340447,
167,65,20,f,1,4,159.0,7,4,low,4 + 9 - 7 + 8 + 5,19,21,20,19,2464.614293300081,2466.639612100087,2468.1546755000018,2473.1730598000577,2473.7161490001017,2473.7161540000234,2475.2325251,2476.249444300076,e,19.0,0.5430892000440508,1,+1,838,-1.2509242079039469,1.2716276925805838,0.12203051060743686,2463908.0,7.029496955430645,1.533670939744236,0.43725507464746816,2467441.0,,,,,2468.1507247340446,2464.6177247340447,
168,65,20,f,1,4,160.0,8,1,high,6 + 1 + 1 + 7 - 1,14,13,12,14,2477.766385700088,2479.7944426999893,2481.309719700017,2486.3278643999947,2486.9081506000366,2486.908155800076,2488.4249566000653,2489.442481300095,e,14.0,0.5802862000418827,1,+10,848,14.043203201068089,-0.4941446291660061,-1.1173622869116793,2477063.0,-2.6922562851516894,0.19968436164994663,0.015551457597273721,2480596.0,,,,,2481.305724734045,2477.772724734045,
169,65,20,f,1,4,161.0,9,4,high,7 + 8 - 4 + 6 + 5,22,22,23,21,2490.959758500103,2492.985860700021,2494.500857600011,2499.5192937999964,2500.2441933000227,2500.2441985000623,2501.760811300017,2502.7783447999973,q,22.0,0.7248995000263676,1,+10,858,1.9495996254965853,0.6481029928343189,-0.10337845799875045,2490254.0,7.313982284458906,0.7905274339575319,0.04704329961542664,2493788.0,,,,,2494.497724734045,2490.9637247340447,
170,65,20,f,1,4,162.0,10,2,low,6 + 1 + 8 + 7 - 1,21,19,21,23,2504.2949853000464,2506.322821800015,2507.838072600076,2512.8569987000665,2513.372157000005,2513.372162100044,2514.888637600001,2515.9053202000214,w,21.0,0.5151582999387756,1,+1,859,18.166515362868175,1.2221822622001985,0.6293010681356639,2503591.0,31.523384434488495,1.256006162943993,0.03555073806107889,2507125.0,,,,,2507.834724734045,2504.3007247340447,
171,65,20,f,1,4,163.0,11,4,low,2 + 5 - 3 + 9 + 8,21,21,22,19,2517.421894100029,2519.4492793000536,2520.9650548000354,2525.983843000024,2527.3321763999998,2527.3321818000404,2528.848920300021,2529.865698300069,q,21.0,1.3483333999756724,1,+1,860,1.9090704797739768,-3.822528558872521,1.2437733340230532,2516717.0,3.950328060501603,1.5479786353639964,0.003134237481276614,2520252.0,,,,,2520.9617247340448,2517.426724734045,
172,65,20,f,1,4,164.0,12,2,high,7 + 6 + 1 - 1 - 8,5,5,3,4,2531.382554700016,2533.404486700077,2534.919839600101,2539.938692900003,2540.5561464000493,2540.556151600089,2542.073306000093,2543.090601600008,q,5.0,0.6174535000463948,1,+10,870,10.469297943963511,0.8070950624062179,0.009435179661206217,2530673.0,14.35938391362062,0.8336139227091426,0.08453625382381369,2534207.0,,,,,2534.9167247340447,2531.3827247340446,
173,65,20,f,1,4,165.0,13,4,high,7 + 6 - 9 + 8 - 3,9,7,9,8,2544.60734029999,2546.6346124000847,2548.1497928000754,2553.1685790000483,2554.4760986000765,2554.476103699999,2555.993221300072,2557.010554000037,w,9.0,1.307519600028172,1,+10,880,5.481005801525589,0.9894806285095763,-0.0236802595499932,2543903.0,-3.035269647233207,1.0858829145598037,-0.001773602963784704,2547437.0,,,,,2548.1467247340447,2544.6127247340446,
174,65,20,f,1,4,166.0,14,1,high,3 + 1 + 9 + 1 - 1,13,12,13,14,2558.526986000012,2560.551706900005,2562.0668847000925,2567.08489310008,2567.644120800076,2567.6441258999985,2569.1608950000955,2570.1782656,w,13.0,0.5592276999959722,1,+10,890,0.2921041822417081,-0.09694420533504511,0.11259878424591241,2557820.0,22.827619213034907,-0.1188588425895718,-0.019999314428618575,2561353.0,,,,,2562.062724734045,2558.529724734045,
175,65,20,f,1,4,167.0,15,3,high,5 + 6 + 7 - 1 - 9,8,8,9,7,2571.6949552000733,2573.719823600026,2575.235087100067,2580.25378820009,2581.036073400057,2581.036078900099,2582.552447800059,2583.569799400051,q,8.0,0.7822851999662817,1,+10,900,-52.72138498435995,0.2873480870779175,0.03760236972697695,2570988.0,2.192687834953283,0.7027826957510701,0.2154416431439452,2574522.0,,,,,2575.2317247340447,2571.6977247340446,
176,65,20,f,1,4,168.0,16,2,high,8 + 1 + 9 + 1 - 5,14,13,15,14,2585.086639699992,2587.114135300042,2588.629285400035,2593.6485747999977,2594.268044200028,2594.268049500068,2595.784178400063,2596.8014213000424,e,14.0,0.6194694000296295,1,+10,910,8.009201880891816,0.641539409881565,-0.06192417242278703,2584382.0,-6.3285687362759395,0.3701086833220719,0.10870295093186422,2587916.0,,,,,2588.625724734045,2585.091724734045,
177,65,20,f,1,4,169.0,17,1,high,8 + 1 + 1 + 1 - 4,7,5,8,7,2598.318763800082,2600.345815800014,2601.861024400103,2606.878982400056,2607.460070500034,2607.460075500072,2608.9764376000967,2609.9934884000104,e,7.0,0.5810880999779329,1,+10,920,32.50480017488498,-0.1063988062104797,-0.03768517555934037,2597614.0,-33.38928934717047,0.20557746326965853,0.15443176967901184,2601147.0,,,,,2601.8567247340447,2598.323724734045,
178,65,20,f,1,4,170.0,18,1,high,2 + 1 + 9 + 1 - 1,12,12,13,11,2611.5098288001027,2613.5335142000117,2615.049399200012,2620.067433000077,2620.7079655000707,2620.70797019999,2622.224467799999,2623.2419291000115,q,12.0,0.6405324999941513,1,+10,930,4.021819482530043,-0.10550799694512314,-0.11882969242909369,2610801.0,-15.180001613506793,-0.1304857161426649,0.18367306212826806,2614335.0,,,,,2615.044724734045,2611.5107247340447,
179,65,20,f,1,4,171.0,19,3,low,7 - 1 + 8 - 6 + 4,12,12,13,11,2624.758557400084,2626.785888900049,2628.301477300003,2633.3198609000538,2633.899980799993,2633.899985300028,2635.416556500015,2636.4332769000903,q,12.0,0.5801198999397457,1,+1,931,-4.317429269971049,0.030648592836928668,-0.9265119341590595,2624054.0,-7.720868034005353,1.2700568095979499,0.19235175866072707,2627588.0,,,,,2628.297724734045,2624.763724734045,
180,65,20,f,1,4,172.0,20,1,low,7 + 1 + 4 + 1 - 1,12,13,12,11,2637.9500088000204,2639.9745500000427,2641.489818800008,2646.5096058000345,2647.092036099988,2647.092041100026,2648.608618700062,2649.6255606000777,w,12.0,0.5824302999535576,1,+1,932,-10.241393909455555,0.5233927836225285,-0.026357975209530426,2637242.0,8.278570476016714,1.1956853666438696,0.13087932168603134,2640777.0,,,,,2641.486724734045,2637.951724734045,
181,65,20,f,1,4,173.0,21,1,high,9 + 1 + 1 + 7 - 1,17,17,16,19,2651.142424800084,2653.1700980000896,2654.6850292000454,2659.703397100093,2660.7239839000395,2660.723988700076,2662.240773800062,2663.258734500036,q,17.0,1.0205867999466136,1,+10,942,8.415628969589338,0.27876926426405113,0.06218869529921278,2650437.0,-14.462281525045173,0.266144133420666,0.07686923597199402,2653971.0,,,,,2654.680724734045,2651.1467247340447,
182,65,20,f,1,4,174.0,22,2,high,9 + 6 + 1 + 7 + 1,24,25,23,24,2664.775625300012,2666.8032536000246,2668.318423000048,2673.336398100015,2673.955886300071,2673.9558913999936,2675.4724371000198,2676.490101500065,e,24.0,0.6194882000563666,1,+10,952,9.811324019734172,-2.6608622426783772,-5.172607733207299,2664071.0,16.708086046069887,0.9806486503261129,0.1042963114176001,2667604.0,,,,,2668.3137247340446,2664.7807247340447,
183,65,20,f,1,4,175.0,23,3,low,9 - 5 - 1 - 6 + 8,5,7,4,5,2678.006744500017,2680.03433220007,2681.549529400072,2686.568975400063,2687.8919318000558,2687.891937100096,2689.408676800085,2690.42563469999,e,5.0,1.3229563999921083,1,+1,953,2.3329760472949794,1.236573106616837,-0.030340006215577198,2677302.0,-14.289107747894661,0.6856749568937475,0.14309946104740767,2680836.0,,,,,2681.5457247340446,2678.011724734045,
184,65,20,f,1,4,176.0,24,3,high,8 + 6 - 7 + 1 - 4,4,3,4,5,2691.942314999993,2693.9673723001038,2695.4826914001023,2700.501204600092,2701.6119572999887,2701.611962400028,2703.1284098000037,2704.1457022000104,w,4.0,1.1107526998966932,1,+10,963,12.913843567609803,0.9657483195037835,-0.05660184298989357,2691234.0,14.626017939050424,1.0299064689204989,-0.08985428730985645,2694769.0,,,,,2695.4787247340446,2691.9437247340447,
185,65,20,f,1,4,177.0,25,2,high,9 + 6 + 1 + 7 + 1,24,25,24,23,2705.6625897000777,2707.6895594000816,2709.2053712999914,2714.2235271000536,2714.8999585000565,2714.899964100099,2716.41720060003,2717.434576300089,w,24.0,0.6764314000029117,1,+10,973,26.721030543881184,0.9141010025027527,0.4430678204633711,2704957.0,-14.491633060022888,0.876062873891374,0.13277884916828353,2708491.0,,,,,2709.200724734045,2705.6667247340447,
186,65,20,f,1,4,178.0,26,4,low,4 + 7 - 8 + 9 - 4,8,9,8,7,2718.951245300006,2720.9769567000917,2722.4921408999944,2727.510930199991,2728.195893600001,2728.195898200036,2729.713311600033,2730.7301472000545,w,8.0,0.6849634000100195,1,+1,974,-31.381767057993805,1.0727450583360865,-0.07667359590440381,2718244.0,27.019653072446538,1.491224894643854,-0.06017461271344615,2721778.0,,,,,2722.4877247340446,2718.953724734045,
187,65,20,f,1,4,179.0,27,1,high,6 + 9 + 1 + 1 - 1,16,14,15,16,2732.247114900034,2734.274964100099,2735.7901462001028,2740.808017600095,2741.347950800089,2741.34795570001,2742.8644304000773,2743.881732900045,e,16.0,0.539933199994266,1,+10,984,-4.927929430638468,-0.12422389954364688,0.1958049712890806,2731542.0,29.52927066512986,0.5000167944567027,0.2044525640498429,2735076.0,,,,,2735.785724734045,2732.2517247340447,
188,65,20,f,1,4,180.0,28,3,low,5 - 1 - 4 + 6 + 7,13,15,13,14,2745.3985394000774,2747.4237445000326,2748.9389183000894,2753.95699169999,2754.579871600028,2754.5798764000647,2756.0961056000087,2757.113034100039,w,13.0,0.6228799000382423,1,+1,985,-3.859063654235568,1.0767370887768424,0.049263348964903475,2744691.0,-13.515098627915664,0.6495382379569201,-0.021715704150643056,2748225.0,,,,,2748.9347247340447,2745.4007247340446,
189,65,20,f,1,4,181.0,29,4,high,8 + 4 + 7 - 5 - 6,8,8,9,7,2758.6299127000384,2760.6562561000464,2762.1714533000486,2767.190446800086,2768.259865500033,2768.2598708000733,2769.776292200084,2770.7934981000144,q,8.0,1.0694186999462545,1,+10,995,-57.03237273978551,0.6271201434884088,0.06028017464250035,2757923.0,-0.10925488761679958,0.6465178612110436,0.2005215242712559,2761457.0,,,,,2762.1667247340447,2758.6327247340446,
190,65,20,f,1,4,182.0,30,4,low,8 + 4 + 7 - 5 - 6,8,8,9,6,2772.310291100061,2774.3375070000766,2775.8526958000148,2780.8712703000056,2781.39582840004,2781.395833100076,2782.9122984000714,2783.92922540009,q,8.0,0.5245581000344828,1,+1,996,-17.555053139955582,0.866997259547865,0.09871868240080661,2771605.0,10.67205259030905,1.0560341551884687,0.12078822578463955,2775139.0,,,,,2775.848724734045,2772.314724734045,
191,65,20,f,1,4,183.0,31,4,high,7 + 6 + 8 - 4 + 5,22,22,21,23,2785.446027100086,2787.471171400044,2788.986622800003,2794.0067177000456,2794.811897400068,2794.811902299989,2796.3283747000387,2797.345350200077,q,22.0,0.8051797000225633,1,+10,1006,10.19523675999141,0.3730551466740284,-0.13127195289376825,2784739.0,-19.78818509165039,-1.2633622964960534,0.2362636596403198,2788274.0,,,,,2788.9837247340447,2785.448724734045,
192,65,20,f,1,4,184.0,32,4,high,3 + 8 - 7 + 9 - 5,8,9,8,7,2798.862873300095,2800.887646200019,2802.4028644000646,2807.435046600061,2808.17983560008,2808.1798410000047,2809.696387400036,2810.713609400089,w,8.0,0.7447890000184998,1,+10,1016,10.554623154077689,0.8326082021707442,0.16959073518866274,2798155.0,-7.654717858469617,0.8079163687148299,0.18455256061777559,2801702.0,,,,,2802.411724734045,2798.864724734045,
193,65,20,f,1,4,185.0,33,1,low,7 - 1 + 8 + 1 - 1,14,12,14,13,2812.2299954000628,2814.2575149000622,2815.77288579999,2820.791372000007,2821.507805900066,2821.5078107001027,2823.024310900015,2824.041116100037,w,14.0,0.7164339000592008,1,+1,1017,17.060155378537832,0.529783445558814,0.07808049753456991,2811525.0,-6.745488425755928,0.10008959564888764,0.34948768927257823,2815059.0,,,,,2815.768724734045,2812.234724734045,
194,65,20,f,1,4,186.0,34,2,low,5 + 8 + 1 - 1 + 9,22,23,22,21,2825.5578942000866,2827.584001900046,2829.0990784000605,2834.1181750000687,2834.715807800065,2834.715812800103,2836.2326424000785,2837.2495721000014,w,22.0,0.5976327999960631,1,+1,1018,30.654216020388265,0.9164018266816174,-0.21571710002783884,2824851.0,3.681632407494252,0.8671442654505901,-0.15273854342387105,2828385.0,,,,,2829.094724734045,2825.560724734045,
195,65,20,f,1,4,187.0,35,2,high,4 + 8 + 1 + 1 - 6,8,8,7,9,2838.766171100084,2840.7933868000982,2842.3088574000867,2847.327296200092,2847.979752000072,2847.979756799992,2849.496267700102,2850.5133506000275,q,8.0,0.6524557999800891,1,+10,1028,-3.750559868973454,0.49213784161119145,-0.07313797864013671,2838060.0,2.058143306801412,1.1958039459120071,0.08084185587956871,2841594.0,,,,,2842.303724734045,2838.7697247340448,
196,65,20,f,1,4,188.0,36,4,low,8 + 4 - 5 + 7 - 6,8,7,8,6,2852.030234200065,2854.055868300027,2855.5708780999994,2860.5896573000355,2861.363813600037,2861.3638185000746,2862.8799268000294,2863.8968673000345,w,8.0,0.7741563000017777,1,+1,1029,-9.415803436854759,0.4130105820397265,-0.26763561452078477,2851323.0,6.413389759302939,1.1898865894801678,0.21530878524049668,2854857.0,,,,,2855.566724734045,2852.0327247340447,
197,65,20,f,1,4,189.0,37,2,low,5 - 8 + 7 + 1 + 1,6,6,7,8,2865.414772500051,2867.4417935000965,2868.95717910002,2873.9759568000445,2874.57975959999,2874.5797646000283,2876.0962101999903,2877.112936999998,q,6.0,0.6038027999456972,1,+1,1030,23.308960008343647,0.8453789083272842,-0.11287403391127193,2864709.0,-27.64607553749664,0.5721702165619096,0.03761970903788736,2868243.0,,,,,2868.9527247340448,2865.4187247340446,
198,65,20,f,1,5,190.0,0,3,high,4 + 1 + 8 + 9 - 5,17,19,18,17,2896.7680398999946,2898.794442200102,2900.309819300077,2905.3293951000087,2906.2677011000924,2906.267706500017,2907.784148100065,2908.801395500079,e,17.0,0.9383060000836848,1,+10,1040,-19.12202161572837,0.90738347235535,0.17490647610449717,2896061.0,9.11056583767488,0.8105049327331226,0.15971676403609503,2899596.0,,,,,2900.305724734045,2896.770724734045,
199,65,20,f,1,5,191.0,1,1,low,3 + 1 + 8 + 1 + 1,14,16,14,13,2910.3179611000232,2912.345221000025,2913.860485200072,2918.8786967000924,2919.451643000008,2919.4516484000487,2920.9684630000265,2921.985564300092,w,14.0,0.572946299915202,1,+1,1041,21.824647136583852,0.612410352251177,0.17970597527808474,2909612.0,-30.002893321928354,0.43043117596610814,0.1508559994360925,2913146.0,,,,,2913.855724734045,2910.321724734045,
