,id,age,sex,cued,block,trial,trialinblock,efflev,rewlev,calc,corAns,option1,option2,option3,tstart,ITI1Time,probTime,respTime,selectTime,ITI2Time,fbTime,ITI3Time,key_press,chosenAns,RT,acc,feedback,total_points,cuescr,cuecor,cuezyg,cuetime,probscr,probcor,probzyg,probtime,fbscr,fbcor,fbzyg,fbtime,probtime_c,cuetime_c,fbtime_c
0,66,28,M,0,Practice,,0,1,0,4 + 1 + 9 + 1 + 1,16,16,14,15,49.9471492000157,,49.94715200003702,55.04677310003899,58.83937689999584,58.83938370004762,60.35674760001712,61.378923600073904,q,16.0,3.7926037999568503,1,Correct,0,,,,,4.7799486239860265,0.04312895649308901,-0.6254969745214418,48072.0,19.3777126105266,0.025174333459883957,-0.22834189010357497,58404.0,50.0299951765245,,60.3619951765245
1,66,28,M,0,Practice,,1,1,0,3 + 1 + 1 + 8 - 1,12,10,12,11,62.895788299967535,,62.895791699993424,67.91809639998246,71.13531220005825,71.13531879999209,72.65282429999206,73.67105670005549,w,12.0,3.217215800075792,1,Correct,0,,,,,4.22480049181852,0.019152058836401142,1.6251992303693958,60944.0,-10.510486080088437,0.5407264956670135,-0.14591373986047373,70697.0,62.9019951765245,,72.65499517652451
2,66,28,M,0,Practice,,2,2,0,8 + 1 + 6 + 1 - 4,12,11,10,12,75.18916160007939,,75.1891701000277,80.2091747999657,82.19136090006214,82.19136779999826,83.70897270005662,84.72735529998317,e,12.0,1.9821861000964416,1,Correct,0,,,,,3.6239527222887205,-0.07262756112316326,-0.015884583944005826,73235.0,15.810147903895707,0.2292887521396243,0.6493946694947179,81753.0,75.1929951765245,,83.7109951765245
3,66,28,M,0,Practice,,3,2,0,9 + 4 - 6 + 1 - 1,7,7,5,6,86.24451700004283,,86.24452050006948,91.26378360006493,94.07123210001735,94.0712388000684,95.58779330004472,96.60659980005585,e,6.0,2.807448499952443,0,Incorrect,0,,,,,9.731088181870597,0.4692710113102394,-0.09080857551070043,84289.0,30.293675270596623,-0.49860119497856825,0.11404374302834253,93632.0,86.2469951765245,,95.58999517652451
4,66,28,M,0,Practice,,4,3,0,9 + 3 - 5 + 6 + 7,20,20,22,21,98.1234945000615,,98.12349799997172,103.14333160000388,113.7912134999642,113.79122380004264,115.308099100017,116.32537039997987,e,21.0,10.64788189996034,0,Incorrect,0,,,,,-9.90431199951331,3.399828338538891,4.800431457462089,96168.0,9.75530411097547,-0.668565698355438,-0.1113945726659662,113351.0,98.12599517652451,,115.3089951765245
5,66,28,M,0,Practice,,5,3,0,2 + 1 + 9 - 7 + 6,11,11,9,10,117.84269209997728,,117.84269560000394,122.86337649996858,126.82323630002792,126.82324449997397,128.34038740000688,129.35871529998258,e,10.0,3.959859800059348,0,Incorrect,0,,,,,24.413576026730336,-0.07824495056458503,0.053146324285241686,115889.0,-15.332452169026,-0.3826177148280787,1.921486403666686,126384.0,117.8469951765245,,128.3419951765245
6,66,28,M,0,Practice,,6,4,0,4 + 8 + 5 - 3 + 7,21,23,21,22,130.87594529998023,,130.87594880000688,135.8962518000044,139.119020299986,139.11902720003854,140.65190930000972,141.6705119999824,w,21.0,3.222768499981612,1,Correct,0,,,,,17.337637901246676,0.13493555637318977,0.029140980760653967,128922.0,-46.12324882659357,0.05248398159010348,-0.08355556554905608,138696.0,130.8799951765245,,140.6539951765245
7,66,28,M,0,Practice,,7,4,0,5 + 8 - 4 + 6 + 9,24,23,22,24,143.1878847000189,,143.18790420005098,148.20769090007525,149.6870806000661,149.68708750000224,151.203835500055,152.22186619997956,e,24.0,1.4793896999908611,1,Correct,0,,,,,9.02587214704562,-0.28472467059138484,1.4631082551589216,141233.0,8.7458605958505,0.15410083066594504,-0.13367651573265182,149247.0,143.1909951765245,,151.2049951765245
8,66,28,M,1,0,0.0,0,4,low,5 + 8 - 6 + 7 + 4,18,17,19,18,221.9086569000501,223.9479497000575,225.4639954000013,230.482496600016,234.20464460004587,234.20464959996752,235.72132240002972,236.73800770007077,e,18.0,3.722148000029847,1,+1,1,37.02432008421026,-0.1467321584499457,0.16636520273650612,219973.0,12.617638865052573,0.674859753545153,3.4403752590578587,223508.0,8.226016755836106,-0.12396505802681013,0.05967404751449368,233763.0,225.4659951765245,221.9309951765245,235.7209951765245
9,66,28,M,1,0,1.0,1,4,low,2 + 9 - 3 + 5 + 8,21,22,21,23,238.25441479997244,240.2778465000447,241.79306200006977,246.8129642000422,247.7486777000595,247.74868349998724,249.26525000005492,250.2822148000123,w,21.0,0.9357135000173002,1,+1,2,18.481374050991462,0.0278772372499696,0.3262409052744193,236303.0,-1.3087610832207641,0.07645088008363787,-1.7968996225628722,239838.0,-30.674084848075545,0.2047016979802012,2.276208341355516,247307.0,241.79599517652449,238.2609951765245,249.26499517652448
10,66,28,M,1,0,2.0,2,3,high,6 - 1 + 7 - 8 + 9,13,11,12,13,251.79924560000651,253.8329643000616,255.3482610000065,260.3670227000257,265.38487110007554,265.38487389998045,266.90147200005595,267.9235120000085,,,,0,Too Slow!,2,27.85390938813417,0.7199043188942378,-0.4446963812144742,249857.0,11.170418924711866,0.12050055591711217,-0.2024662668594348,253392.0,-29.26705066122314,-0.7898575396953533,7.551972679535313,264949.0,255.3499951765245,251.8149951765245,266.9069951765245
11,66,28,M,1,0,3.0,3,4,high,9 + 3 - 5 + 8 + 6,21,21,19,23,269.44040950003546,271.4745615000138,272.9896267000586,278.00953140005004,282.06872199999634,282.068727600039,283.5859949999722,284.60420110006817,q,21.0,4.059190599946305,1,+10,12,0.12926436834585697,0.32703816081369164,-2.30589874477935,267500.0,-28.863319600702894,0.06983909004328748,0.463133751891438,271035.0,-4.444414291996381,0.4557483535143998,12.189100833944181,593116.0,272.9929951765245,269.4579951765245,595.0739951765245
12,66,28,M,1,0,4.0,4,1,low,8 - 1 + 1 + 6 + 1,15,16,15,14,286.1214563000249,288.1492201000219,289.66533059999347,294.6836834000424,296.2286345000612,296.2286399999866,297.7457590000704,298.7630958000664,q,16.0,1.5449511000188068,0,+0,12,9.534160640471303,-0.007109845200829579,-0.07199611313698684,284174.0,9.111198147971812,0.1675123341630873,0.5851698443295898,287710.0,5.160983068795389,-0.10936230002240999,1.1635121269544189,655960.0,289.66799517652447,286.13199517652447,657.9179951765245
13,66,28,M,1,0,5.0,5,1,high,6 + 9 + 1 + 1 - 1,16,16,15,14,300.28018730005715,302.3158676000312,303.83205800002906,308.8503290000372,309.9326953999698,309.9327082000673,311.4492731000064,312.46677060006186,q,16.0,1.0823663999326527,1,+10,22,8.505304043032115,11.74114702789667,9.04237761238086,298341.0,4.364913458925454,-0.20040044559255854,1.2375511709356894,301875.0,14.449671071449881,3.7534290199851847,1.2063743935850417,2830226.0,303.8329951765245,300.2989951765245,2832.1839951765246
14,66,28,M,1,0,6.0,6,3,low,4 + 7 + 1 + 9 - 5,16,16,18,17,313.98368279996794,316.0179284000769,317.5332385000074,322.55154330004007,324.90051910001785,324.9005241000559,326.42811330000404,327.4451585999923,q,16.0,2.3489757999777794,1,+1,23,-7.719767060380121,-0.10791555919868889,-0.9311547748228035,312043.0,-9.59442714438843,-0.15669138515631698,0.2834115971813995,315577.0,,,,,317.5349951765245,314.0009951765245,
15,66,28,M,1,0,7.0,7,4,low,3 + 9 - 5 + 8 - 7,8,8,7,9,328.9619470000034,331.03453780000564,332.5498365999665,337.5686362000415,338.5565599000547,338.55656519997865,340.0729818000691,341.08962089999113,q,8.0,0.987923700013198,1,+1,24,7.520131299885174,-0.11461614302019285,0.23952139041656118,327058.0,2.9698552610751863,-0.20902741693019733,1.031017061440624,330593.0,,,,,332.5509951765245,329.0159951765245,
16,66,28,M,1,0,8.0,8,1,low,6 + 9 + 1 + 1 - 1,16,15,16,14,342.606121800025,344.63211950007826,346.147325500031,351.16539690003265,352.34061100007966,352.34061670000665,353.8572667000117,354.8739082000684,w,16.0,1.1752141000470149,1,+1,25,-1.0793299885301124,-0.24511612716510012,0.11807015195592951,340657.0,18.39899249236599,0.06866175331372659,0.06715011409361527,344190.0,,,,,346.1479951765245,342.6149951765245,
17,66,28,M,1,0,9.0,9,4,high,4 + 8 + 9 - 3 + 7,25,24,26,25,356.390704200021,358.4153496000217,359.9306391000282,364.9509689999977,365.9245494999923,365.9245546000311,367.4409121000208,368.459052399965,q,24.0,0.9735804999945684,0,+0,25,15.54596889916665,0.09176768654705736,0.23237310808065503,354440.0,-37.77605906321953,-0.2581975563480934,3.982880748502451,357976.0,,,,,359.9339951765245,356.3979951765245,
18,66,28,M,1,0,10.0,10,3,low,5 + 1 + 7 - 8 + 6,11,13,9,11,369.9761870000512,372.0010647000745,373.51633090002,378.53502930002287,381.188568099984,381.18857360002585,382.7052390000317,383.7221070000669,e,11.0,2.653538799961097,1,+1,26,2.1041518746675543,-0.3526248451460372,0.2401570508770563,368026.0,4.212680963872874,-0.31803771569765305,2.796809126103666,371560.0,,,,,373.5179951765245,369.9839951765245,
19,66,28,M,1,0,11.0,11,1,high,2 + 9 + 1 + 1 + 1,14,12,13,14,385.2390839,387.2638259000378,388.7791266000131,393.798035099986,394.9885603999719,394.9885661000153,396.5051726000384,397.5224116999889,e,14.0,1.190525299985893,1,+10,36,2.973147688373615,-0.1305487639056344,-0.5789931279311977,383289.0,42.85897757070205,0.0684949812105402,-0.01325367863124427,386822.0,,,,,388.7799951765245,385.2469951765245,
20,66,28,M,1,0,12.0,12,2,high,6 + 1 + 7 + 5 - 1,18,18,17,16,399.084163099993,401.1206099999836,402.6358450000407,407.654496000032,411.4846526000183,411.4846584000625,413.0013486000244,414.01929520000704,q,18.0,3.830156599986367,1,+10,46,25.458586483568123,-0.02866481996433734,-0.2489941274039813,397145.0,6.396043008191348,-0.13351329867330852,-0.2850529636554966,400679.0,,,,,402.63699517652447,399.1029951765245,
21,66,28,M,1,0,13.0,13,4,low,5 + 6 - 4 + 7 + 9,23,24,25,23,415.5362973000156,417.56348070001695,419.0787341999821,424.0971774000209,428.0444168000249,428.044425399974,429.5607839999721,430.5776156000793,e,23.0,3.9472394000040367,1,+1,47,1.4992182317373377,0.5163231422918328,0.1557628443136183,413588.0,-47.772218634046894,-0.10115045837228553,3.043551854182161,417122.0,,,,,419.0799951765245,415.5459951765245,
22,66,28,M,1,0,14.0,14,2,low,7 + 6 + 1 + 8 + 1,23,23,22,21,432.0945058000507,434.1217065000674,435.6364404000342,440.6564154999796,442.3884582000319,442.388463600073,443.9053339000093,444.9221929999767,q,23.0,1.7320427000522614,1,+1,48,13.58559122202732,0.22911774674143048,-1.2814581791807198,430146.0,-24.86682143889562,-4.21836093712624,-1.6460886411510036,433681.0,,,,,435.6389951765245,432.1039951765245,
23,66,28,M,1,0,15.0,15,1,low,2 + 9 + 1 + 1 + 1,14,14,12,13,446.4388493000297,448.4673216000665,449.98269059997983,455.00075220002327,455.9164600999793,455.91646570002194,457.4329666000558,458.4499145000009,q,14.0,0.9157078999560326,1,+1,49,16.90164441954738,0.1545313149536116,0.150990768593515,444491.0,-1.8650870688350452,0.2365602542273173,0.24887653370530805,448025.0,,,,,449.98299517652447,446.4489951765245,
24,66,28,M,1,0,16.0,16,1,high,8 + 1 + 5 + 1 + 1,16,15,16,17,459.9669177000178,461.99462740006857,463.50986560003366,468.5299256000435,469.6364578000503,469.6364630999742,471.1532037999714,472.1706175999716,w,16.0,1.106532200006768,1,+10,59,38.57527886984798,0.16985268771608997,0.15858045930550224,458019.0,6.126061521871207,-0.09342825204210659,-0.2169646879365157,461554.0,,,,,463.51199517652447,459.9769951765245,
25,66,28,M,1,0,17.0,17,3,low,2 + 1 + 9 - 4 + 6,14,16,14,15,473.68742360000033,475.71201030001976,477.2279348999728,482.2462980999844,484.0205119000748,484.0205174000002,485.5371440000599,486.5538372000447,w,14.0,1.7742138000903651,1,+1,60,-7.688161327221218,0.04068894510538712,0.0861962865398973,471737.0,13.674238136387046,-0.02853778385204553,0.005844106979393082,475271.0,,,,,477.2289951765245,473.6949951765245,
26,66,28,M,1,0,18.0,18,3,low,3 + 1 + 8 - 5 + 6,13,13,15,14,488.07098580000456,490.0978847000515,491.6132129000034,496.6314425000455,498.2364751000423,498.236480499967,499.75318270002026,500.7699344999856,q,13.0,1.6050325999967754,1,+1,61,-40.74047928049094,0.35300600411848615,6.338782032855436,486122.0,-7.701147473706555,-31.153274427093415,-24.45325813070415,489656.0,,,,,491.6139951765245,488.0799951765245,
27,66,28,M,1,0,19.0,19,4,low,4 + 7 + 8 - 3 + 9,25,26,24,25,502.2866143999854,504.31328800006304,505.8286080000689,510.8475504000671,515.0125327999704,515.0125393000199,516.5285539000761,517.545902300044,q,26.0,4.164982399903238,0,+0,61,-8.554252828149348,0.22762150843623274,-0.7342673696451558,500338.0,11.822948926053751,0.2878924731969321,-0.1376711902314507,503872.0,,,,,505.8299951765245,502.2959951765245,
28,66,28,M,1,0,20.0,20,2,low,7 + 5 + 1 - 1 - 8,4,3,4,2,519.0627970000496,521.0883197999792,522.6035783999832,527.6226500000339,529.7964014000027,529.7964068000438,531.3131665000692,532.330147300032,w,4.0,2.1737513999687508,1,+1,62,37.59384954682322,-0.3916441559045136,-0.3731692631874419,517113.0,14.757139841517755,0.28222293430220713,0.9907181843417936,520647.0,,,,,522.6049951765245,519.0709951765245,
29,66,28,M,1,0,21.0,21,3,low,2 + 1 + 9 - 7 + 6,11,11,12,13,533.847072500037,535.87406870001,537.3893454000354,542.4081071000546,543.2284139000112,543.2284193000523,544.7450394000625,545.7619627000531,q,11.0,0.8203067999565974,1,+1,63,5.791369274825504,0.17807579328566803,-0.10055557947254412,531898.0,28.52888389700716,-0.14602702892199693,0.25387346831178226,535433.0,,,,,537.3909951765245,533.8559951765245,
30,66,28,M,1,0,22.0,22,4,low,5 + 7 - 4 + 8 + 6,22,22,23,24,547.2916523000458,549.3194291000254,550.834794400027,555.8536604000255,558.4923091999954,558.4923146000365,560.008816500078,561.0260658999905,e,24.0,2.6386487999698147,0,+0,63,-17.51235063837133,-0.16011660854847598,-0.03905278767989717,545343.0,2.746317170603268,0.39309435491591715,0.3604546210518773,548878.0,,,,,550.8359951765245,547.3009951765245,
31,66,28,M,1,0,23.0,23,3,high,4 + 8 - 3 + 5 - 1,13,13,12,14,562.5428153000539,564.5705639000516,566.0859266000334,571.1047884,575.9323286999715,575.9323346000165,577.4493749999674,578.4660611000145,w,12.0,4.827540299971588,0,+0,63,17.797827227159306,10.120278125395762,2.259966024772403,560595.0,2.401256489017105,0.11402155886961873,7.397858921919349,564129.0,,,,,566.0869951765245,562.5529951765245,
32,66,28,M,1,0,24.0,24,3,low,6 + 8 + 7 + 1 - 9,13,13,14,15,579.9841049000388,582.0070239000488,583.5217246999964,588.5404174000723,593.5566366000567,593.5566393000772,595.0735760000534,596.092216799967,,,,0,Too Slow!,63,15.404884927403668,12.969478166310761,6.983310103131062,578031.0,5.304395823071459,-0.016040973309347173,2.4245540290567087,581565.0,,,,,583.5229951765245,579.9889951765244,
33,66,28,M,1,0,25.0,25,3,high,7 - 1 + 9 - 5 + 4,14,13,14,15,597.6092470000731,599.6351762000704,601.1505283999722,606.1692298999988,609.5242889000801,609.5242943000048,611.041478900006,612.0586379000451,q,13.0,3.3550590000813827,0,+0,63,25.778841485893796,-0.04104470641309188,-0.8334353565516404,595659.0,3.1343193899253943,0.36426196591191484,0.8525065182992031,599193.0,,,,,601.1509951765245,597.6169951765245,
34,66,28,M,1,0,26.0,26,4,high,6 + 9 + 7 - 3 - 5,14,13,12,14,613.5753878999967,615.6025910000317,617.1178094000788,622.1387805000413,624.5243177000666,624.5243231999921,626.0516709999647,627.0688140999991,w,12.0,2.385537200025283,0,+0,63,-13.87102042963473,0.9591298828054455,-0.4709079534272389,611627.0,-7.316396127600214,-3.0224678051469485,0.6990783578284203,615162.0,,,,,617.1199951765245,613.5849951765244,
35,66,28,M,1,0,27.0,27,3,high,2 + 9 - 3 + 4 + 1,13,14,13,11,628.5856594999786,630.6113018000033,632.1267056000652,637.1456387999933,638.7563247000799,638.7563301000046,640.272919400013,641.290028700023,e,11.0,1.610685900086537,0,+0,63,-15.983913304085117,-0.25697237360656944,-0.05983291758968656,626635.0,13.802232787069709,5.3022036883121455,5.517933906315239,630170.0,,,,,632.1279951765245,628.5929951765245,
36,66,28,M,1,0,28.0,28,2,low,4 + 1 + 9 + 1 - 6,9,9,7,8,642.807011900004,644.8354934999952,646.3505926000653,651.3834265000187,656.4001297000796,656.4001323999837,657.9168604000006,658.9352974999929,,,,0,Too Slow!,63,2.773293223268439,-0.1829474508553508,0.2709488778150271,640860.0,23.28795578348566,-0.7086776313661023,0.6215344599233803,644407.0,,,,,646.3649951765245,642.8179951765245,
37,66,28,M,1,0,29.0,29,4,high,5 + 7 - 4 - 6 + 9,11,13,11,12,660.4521981000435,662.4806155000115,663.9959653000114,669.0148226000601,671.2681845000479,671.2681896999711,672.7847861000337,673.8024456000421,w,11.0,2.2533618999877945,1,+10,73,-21.834773810748842,0.33371814196767247,8.073196967850091,658505.0,-18.712057378107374,0.18525640758847217,0.2757958516079464,662039.0,,,,,663.9969951765245,660.4629951765245,
38,66,28,M,1,0,30.0,30,1,high,2 + 1 + 1 + 9 - 1,12,13,12,11,675.319185600034,677.3436153000221,678.858908400056,683.8775968999835,687.6122531000292,687.6122583000688,689.129469800042,690.1467271000147,w,12.0,3.73465620004572,1,+10,83,10.464898508400772,-0.3154264051329938,-3.081130366799531,673368.0,-9.574596457653723,-0.07976791819655205,4.328882060961591,676902.0,,,,,678.8599951765245,675.3259951765245,
39,66,28,M,1,0,31.0,31,2,high,7 + 8 + 1 + 9 + 1,26,26,25,24,691.6635329000419,693.6904907000717,695.2057798000751,700.2257105000317,703.324290700024,703.3242961000651,704.8410132999998,705.8586314000422,w,25.0,3.098580199992284,0,+0,83,-5.951921242270774,0.011379577621505987,-0.2280207671678256,689714.0,-16.782371123895093,0.4889306518756489,0.8381212421952653,693250.0,,,,,695.2079951765245,691.6719951765245,
40,66,28,M,1,0,32.0,32,2,low,5 + 1 + 7 - 6 + 1,8,7,8,6,707.3754423999926,709.4022718999768,710.9174376999727,715.9360518000321,716.7642615999794,716.764267200022,718.280956099974,719.2978504999774,w,8.0,0.8282097999472171,1,+1,84,-11.182527026522305,-0.42378029340289824,-0.0942901674551666,705426.0,-10.922346090143293,-0.05570187683009964,3.37232061390462,708960.0,,,,,710.9179951765245,707.3839951765245,
41,66,28,M,1,0,33.0,33,2,low,6 + 1 + 8 + 5 - 1,19,18,19,17,720.8148381999927,722.8388067000778,724.3541370000457,729.3725084000034,730.48411640001,730.4841221000534,732.0006474000402,733.0173359999899,q,18.0,1.1116080000065267,0,+0,84,-40.99849340653545,0.3955636982299269,0.1283574445475395,718863.0,4.804488343325849,-0.06263297198597817,0.38559513443975524,722396.0,,,,,724.3539951765244,720.8209951765245,
42,66,28,M,1,0,34.0,34,3,low,3 + 1 + 8 - 5 + 9,16,16,17,15,734.5342095000669,736.5613819999853,738.0767125000712,743.095013000071,746.8521961000515,746.8522014999762,748.3687335000141,749.3856601000298,q,16.0,3.757183099980466,1,+1,85,-17.6024234251036,1.8675314434817736,7.499751172653678,732585.0,25.3417275954897,0.1262257130726594,2.7773870955025353,736119.0,,,,,738.0769951765245,734.5429951765245,
43,66,28,M,1,0,35.0,35,3,high,9 - 5 - 1 - 6 + 8,5,7,4,5,750.9025088000344,752.9286925999913,754.443689799984,759.4623363000574,761.100295900018,761.100300900056,762.6176342000253,763.6347758000484,w,4.0,1.6379595999605954,0,+0,85,17.38110876135876,0.23920760632299176,2.0617345376910814,748952.0,-63.29080730383405,0.0813366964819453,0.1916240493981891,752486.0,,,,,754.4439951765245,750.9099951765245,
44,66,28,M,1,0,36.0,36,3,low,7 + 5 + 9 + 1 - 6,16,14,15,16,765.1515139000257,767.178477599984,768.6939710000297,773.7119826000417,776.8521811000537,776.8521862999769,778.3687786000082,779.3860650999704,w,15.0,3.140198500012048,0,+0,85,-12.160469142582578,-0.07335169578287859,2.0291496929538693,763202.0,20.773047535457813,-0.09616754197225852,0.05692288582754523,766736.0,,,,,768.6939951765245,765.1599951765245,
45,66,28,M,1,0,37.0,37,4,low,5 + 7 - 4 - 6 + 9,11,13,12,11,780.9031632000115,782.9308453999693,784.4461429000366,789.4667912999867,790.6360517999856,790.6360570000252,792.1525321999798,793.1694916000124,e,11.0,1.1692604999989271,1,+1,86,6.539613428497736,3.0283833025167173,5.18984254832751,778955.0,-8.521063380202463,-0.46351467673614266,0.17226245157509368,782490.0,,,,,784.4479951765245,780.9129951765245,
46,66,28,M,1,1,38.0,0,1,low,9 + 7 + 1 + 1 + 1,19,19,18,20,807.1044443000574,809.1306140000233,810.6459087000694,815.6652593000326,816.6121495000552,816.6121550999815,818.1291523000691,819.1465115000028,q,19.0,0.946890200022608,1,+1,87,7.385053109532949,-0.2299599669802479,0.17864387284972594,805154.0,-8.727164485514685,-0.4890905937224228,-9.953467602285219,808689.0,,,,,810.6469951765245,807.1119951765245,
47,66,28,M,1,1,39.0,1,4,low,7 + 6 - 9 + 8 - 3,9,9,7,8,820.6636015999829,822.6896202000789,824.2049856999656,829.2251862999983,832.6680116000352,832.6680170000764,834.1848876000149,835.2027924000286,e,8.0,3.442825300036929,0,+0,87,-3.6281946089566843,0.21678997935049749,-0.7700602465920876,818713.0,-20.227862949835878,0.11369378481394854,0.2230358683641489,822249.0,,,,,824.2069951765245,820.6709951765245,
48,66,28,M,1,1,40.0,2,1,high,5 + 1 + 1 + 6 + 1,14,14,13,16,836.7201323000481,838.7478480000282,840.2631389000453,845.2809196000453,846.2921110000461,846.2921161999693,847.8081832000753,848.82577580004,q,14.0,1.0111914000008255,1,+10,97,-16.224448460036356,2.8047795861490776,3.7885626743434253,834771.0,9.903561433966713,0.0790281881625865,0.8764489714157278,838305.0,,,,,840.2629951765244,836.7289951765244,
49,66,28,M,1,1,41.0,3,3,high,4 + 8 - 9 + 1 + 7,11,13,9,11,850.34297290002,852.3649135000305,853.8803201999981,858.8988292000722,860.3961518000579,860.396156999981,861.9129333000164,862.9308495000005,e,11.0,1.4973225999856368,1,+10,107,-15.977883875556799,-0.08641572765903494,0.2881889274598617,848389.0,5.370560684690682,0.5751345322951589,6.234838592040627,851922.0,,,,,853.8799951765245,850.3469951765245,
50,66,28,M,1,1,42.0,4,2,high,9 + 4 - 6 + 1 - 1,7,9,7,8,864.4476996000158,866.4740257000085,867.9890832999954,873.0085078000557,873.9479751000181,873.9479803000577,875.464836900006,876.4830005000113,w,7.0,0.9394672999624164,1,+10,117,-6.68657476167256,0.06931802749772054,-0.027923581233111783,862498.0,-27.378488800366526,-0.2150791141545061,0.2339746701944747,866032.0,,,,,867.9899951765245,864.4559951765245,
51,66,28,M,1,1,43.0,5,1,high,7 - 1 + 8 + 1 - 1,14,12,14,13,877.9994072000263,880.0262008999707,881.5414937000023,886.5600607000524,889.7799617999699,889.7799671000103,891.296679800027,892.3676669000415,w,14.0,3.219901099917479,1,+10,127,-26.490407573409534,0.06165708797705349,-0.7199656666489549,876050.0,13.93443448596449,-0.1260152829607617,0.053118496545132565,879584.0,,,,,881.5419951765244,878.0079951765244,
52,66,28,M,1,1,44.0,6,3,high,8 - 1 + 6 - 7 + 5,11,13,11,12,893.8845223999815,895.9075435000705,897.42280629999,902.4601948000492,903.57998889999,903.5799946000334,905.0966536999912,906.1139132999816,w,11.0,1.1197940999409184,1,+10,137,-39.19476911021083,-1.1575253627292517,2.235242663043646,891931.0,-15.940818344498721,-0.2707314224399262,0.02750165287795525,895484.0,,,,,897.4419951765245,893.8889951765245,
53,66,28,M,1,1,45.0,7,1,high,7 + 1 + 4 + 1 - 1,12,14,13,12,907.630877800053,909.6529254000634,911.1681635000276,916.1865330999716,917.180001400062,917.1800067999866,918.6965941999806,919.7139748000772,e,12.0,0.9934683000901714,1,+10,147,27.216979383843054,-0.15576849440642793,1.9701569349569996,905676.0,-29.190620793561305,-0.4302961907077858,-6.3129685014100545,909210.0,,,,,911.1679951765245,907.6339951765245,
54,66,28,M,1,1,46.0,8,3,high,7 - 1 + 8 - 6 + 4,12,11,13,12,921.2305479000788,923.2529774999712,924.768167900038,929.7883461000164,931.1399161000736,931.1399216999998,932.6567090000026,933.6737082999898,e,12.0,1.3515700000571087,1,+10,157,8.095904166095348,0.38463916353205896,0.10915324383982172,919276.0,26.4775105858573,-0.07247087406879249,-0.09543641248826873,922812.0,,,,,924.7699951765245,921.2339951765244,
55,66,28,M,1,1,47.0,9,1,high,7 + 1 + 4 + 1 - 1,12,11,12,13,935.1901964000426,937.2122827999992,938.7272889000596,943.7475566000212,944.7159623000772,944.7159677000018,946.2324744000798,947.2497961000772,w,12.0,0.9684057000558824,1,+10,167,15.880355632827637,-0.17134308475305238,-0.19688516932080224,933236.0,-13.207827930928238,0.08328639329255294,0.3196139298773957,936771.0,,,,,938.7289951765244,935.1939951765245,
56,66,28,M,1,1,48.0,10,4,high,7 + 6 - 4 + 9 - 5,13,13,14,12,948.7678295000223,950.7901243000524,952.3054072000086,957.3713786000152,958.3879668000154,958.3879721000558,959.9045686000028,960.9229133999906,q,13.0,1.0165882000001147,1,+10,177,-17.059990365429087,-0.10980047616959077,1.236395586603114,946813.0,22.67255375251697,-0.12581333514186888,0.12565348925633302,950395.0,,,,,952.3529951765245,948.7709951765245,
57,66,28,M,1,1,49.0,11,1,low,4 + 8 + 1 - 1 - 1,11,11,13,9,962.4398604000452,964.4640233999816,965.9792309000622,970.9973796000704,972.6279799999902,972.6279852000298,974.1446484000188,975.1616506000282,q,11.0,1.6306003999197856,1,+1,178,-27.125523180658604,0.29114783515054343,-0.43075957597283,960487.0,-22.08614807134462,-0.22445406194028195,-0.032997091478207174,964021.0,,,,,965.9789951765244,962.4449951765245,
58,66,28,M,1,1,50.0,12,1,low,6 + 9 + 1 + 1 - 1,16,16,15,14,976.678421700024,978.7014637000392,980.216723700054,985.2349169000518,986.0278684999794,986.0278738000196,987.544856499997,988.5617679000134,q,16.0,0.7929515999276191,1,+1,179,-0.980331306184647,0.029510356173950036,0.12590273356869508,974724.0,-21.230453777801678,-0.2970339704105074,-0.3568455060871285,978258.0,,,,,980.2159951765245,976.6819951765245,
59,66,28,M,1,1,51.0,13,1,high,3 + 1 + 8 - 1 + 1,12,10,12,13,990.0785031999694,992.106470700004,993.6217494000448,998.6411450000014,999.53988330008,999.5398887000048,1001.0562161999987,1002.073262699996,w,12.0,0.8987383000785485,1,+10,189,7.803354782236135,-0.9505539368956488,-0.04402148599670408,988130.0,6.94949526977485,0.19008112419886025,-0.042102766562357674,991664.0,,,,,993.6219951765245,990.0879951765245,
60,66,28,M,1,1,52.0,14,2,high,8 + 1 + 4 - 7 + 1,7,5,6,7,1003.5900734000606,1005.6156294000102,1007.1308722000103,1012.1495057999856,1013.7798265999882,1013.7798316000262,1015.2963205999696,1016.313574400032,q,5.0,1.6303208000026643,0,+0,189,-4.854940132916262,-0.0792675530973792,0.1317195922724379,1001639.0,-1.6042042632729094,0.043112610724238554,-0.09833403029909604,1005173.0,,,,,1007.1309951765245,1003.5969951765245,
61,66,28,M,1,1,53.0,15,3,high,8 + 6 - 7 + 1 - 4,4,3,5,4,1017.8299383000704,1019.8555763000622,1021.3711672000354,1026.389915800071,1028.5318688000552,1028.5318742999807,1030.04846369999,1031.0651758000022,w,5.0,2.141952999983914,0,+0,189,-33.053873963235404,9.74109881883375,6.123650018069444,1015879.0,-23.47787474908285,-0.6325034433528511,0.1355858480645602,1019413.0,,,,,1021.3709951765245,1017.8369951765245,
62,66,28,M,1,1,54.0,16,4,high,6 + 9 - 7 + 8 - 5,11,12,11,13,1032.5820362999802,1034.6066050999798,1036.1213669000426,1041.1401440000627,1043.7399315000512,1043.739937299979,1045.256563700037,1046.2744113999652,w,11.0,2.599787499988452,1,+10,199,-12.08832558836486,3.0901584391459083,5.063814885181919,1030630.0,8.557351705705742,0.0502596070464425,-1.0787050435366075,1034163.0,,,,,1036.1209951765245,1032.5879951765246,
63,66,28,M,1,1,55.0,17,4,low,9 + 4 - 6 + 8 + 7,22,24,21,22,1047.791566299973,1049.8339905000755,1051.3491222000448,1056.3690199999835,1058.667854600004,1058.6678602000466,1060.1843099000398,1061.201264500036,e,22.0,2.2988346000202,1,+1,200,42.94746347066465,0.14397790108535702,-0.7640532312538437,1045857.0,15.59017554727481,0.0481871639708249,0.1682770148753785,1049392.0,,,,,1051.3499951765245,1047.8149951765245,
64,66,28,M,1,1,56.0,18,4,high,3 + 9 - 5 + 6 + 8,21,21,23,22,1062.7181681999937,1064.7976326000644,1066.312941799988,1071.3309975999873,1074.6677951000163,1074.6678005000576,1076.1845295999665,1077.2018595000263,q,21.0,3.3367975000292063,1,+10,210,-8.989028359369906,0.17433113975601433,-0.1558888407597312,1060821.0,-25.98022900948623,-0.17516183647191808,0.28508621147608215,1064354.0,,,,,1066.3119951765245,1062.7789951765244,
65,66,28,M,1,1,57.0,19,1,low,5 + 6 + 1 + 1 + 1,14,16,13,14,1078.718876000028,1080.7450185000198,1082.260247600032,1087.2781965000322,1088.4838921000485,1088.483897499973,1090.0014057999942,1091.0184349999763,e,14.0,1.2056956000160426,1,+1,211,6.301025042818564,-0.1967261606081947,0.039098519351370875,1076767.0,33.372205725876064,-0.23191732788350983,0.008843761565899833,1080301.0,,,,,1082.2589951765244,1078.7249951765245,
66,66,28,M,1,1,58.0,20,4,high,4 + 9 - 7 + 8 + 5,19,19,20,21,1092.535303200013,1094.5622112000128,1096.0776033999864,1101.0962888000067,1103.6357863000594,1103.6357920999872,1105.1520986000542,1106.1692368000513,q,19.0,2.539497500052676,1,+10,221,17.047445841613552,0.029678497323088582,-0.015839195582139087,1090585.0,7.643694755893354,0.06983857494635615,-0.05319113917063456,1094119.0,,,,,1096.0769951765244,1092.5429951765245,
67,66,28,M,1,1,59.0,21,4,high,3 + 9 - 4 + 7 + 6,21,21,20,19,1107.6859345000703,1109.7087903000647,1111.2238156000385,1116.242045699968,1119.9237254000036,1119.9237314000493,1121.4402815999929,1122.4574885000477,w,20.0,3.681679700035602,0,+0,221,12.312350533898805,0.256280475399278,0.03871225602659001,1105732.0,-2.097326835050197,-0.032160278287667765,0.2504511320054126,1109265.0,,,,,1111.2229951765246,1107.6899951765245,
68,66,28,M,1,1,60.0,22,4,high,3 + 8 - 4 + 9 + 6,22,23,22,21,1123.9744535000063,1126.0017626000335,1127.5178013000404,1132.5356577000348,1134.435812400072,1134.4358183000004,1135.952459800057,1136.9698496999918,w,22.0,1.900154700037092,1,+10,231,34.37892224372837,0.0582896386551246,0.31526585626308457,1122025.0,-16.70248107202375,0.2590912898679987,0.024053534804179932,1125559.0,,,,,1127.5169951765245,1123.9829951765246,
69,66,28,M,1,1,61.0,23,2,low,9 + 6 + 1 + 7 + 1,24,24,23,25,1138.4864525999874,1140.5137178000296,1142.0287868999876,1147.047590399976,1150.6038098999998,1150.6038154000416,1152.120492200018,1153.137607300072,q,24.0,3.556219500023872,1,+1,232,11.497165436846647,-0.16300528607263765,-0.10600027910541776,1136536.0,-12.334103347756031,0.1153341038949911,-0.06110725434038544,1140070.0,,,,,1142.0279951765244,1138.4939951765245,
70,66,28,M,1,1,62.0,24,1,high,9 + 8 + 1 + 1 - 1,18,17,18,19,1154.654563200078,1156.6817288000602,1158.1970649000723,1163.2151900000172,1164.1557484000225,1164.1557537000626,1165.6720925000263,1166.6898287000367,w,18.0,0.9405584000051022,1,+10,242,20.92697473270045,0.560162423138205,9.812046098443542,1152704.0,8.859142622623482,0.5291793669794687,11.866545453370085,1156238.0,,,,,1158.1959951765245,1154.6619951765244,
71,66,28,M,1,1,63.0,25,2,low,4 + 7 + 1 + 1 - 8,5,7,5,4,1168.2064572999952,1170.2326070000418,1171.7478811000474,1176.7662479999708,1177.771701300051,1177.7717070999788,1179.2881778000155,1180.3050080999965,w,5.0,1.005453300080262,1,+1,243,-19.03427309535465,1.31093255282092,-0.5102785043410627,1166255.0,-9.15641636532563,3.926052963854754,2.4150827160767774,1169789.0,,,,,1171.7469951765245,1168.2129951765246,
72,66,28,M,1,1,64.0,26,2,high,6 + 1 + 8 + 7 - 1,21,19,21,23,1181.8217861000448,1183.849132800009,1185.364349500043,1190.3829677000176,1192.4437113000313,1192.4437167000724,1193.960504100076,1194.9773355000652,w,21.0,2.060743600013666,1,+10,253,-29.679610630671476,-0.03214963317300201,-0.448608434406081,1179872.0,8.747567153874053,0.0435215203155237,0.1799371719255034,1183406.0,,,,,1185.3639951765244,1181.8299951765246,
73,66,28,M,1,1,65.0,27,3,low,7 - 5 + 9 + 1 - 4,8,8,9,7,1196.4943948000437,1198.5213659000583,1200.0365435000276,1205.0546881000046,1207.323663600022,1207.3236689000623,1208.840291699977,1209.856970199966,w,9.0,2.268975500017405,0,+0,253,0.2633010821973363,-0.20486723466673817,0.0510295164455461,1194544.0,-29.92317409201157,-0.012129325841035321,0.00593508858702485,1198078.0,,,,,1200.0359951765245,1196.5019951765246,
74,66,28,M,1,1,66.0,28,3,high,8 + 3 + 1 - 7 + 9,14,15,12,14,1211.3741877999855,1213.3980171000585,1214.913099700003,1219.9328079000115,1221.5237260999857,1221.523732100031,1223.0403529000469,1224.057581900037,e,14.0,1.5909181999741122,1,+10,263,-11.43530259508419,-62.705541470236085,-27.183479288411373,1209420.0,32.5903095369582,-0.0697024772081849,-0.04853480984250291,1212956.0,,,,,1214.9139951765244,1211.3779951765246,
75,66,28,M,1,1,67.0,29,1,low,6 + 1 + 8 + 1 + 1,17,16,17,15,1225.5745400000596,1227.6017231000587,1229.1167787000304,1234.1348409000784,1235.051667700056,1235.0516730999807,1236.56827040005,1237.585240400047,w,17.0,0.9168267999775708,1,+1,264,-1.302769537772277,0.45405351774553804,-1.4915714198732868,1223624.0,-4.4780443631209526,-0.3164691369226551,-3.60760943232156,1227158.0,,,,,1229.1159951765244,1225.5819951765245,
76,66,28,M,1,1,68.0,30,2,low,7 + 6 + 1 - 1 - 8,5,3,4,5,1239.1021101999795,1241.1293413999956,1242.6448526000604,1247.6634111000458,1248.9076355000725,1248.9076406999957,1250.424463000032,1251.4417807999998,q,3.0,1.2442244000267235,0,+0,264,18.937859327201682,0.18633936101688775,1.021182626102982,1237152.0,21.146861122982457,-11.081734581788359,-3.710915960938004,1240686.0,,,,,1242.6439951765244,1239.1099951765245,
77,66,28,M,1,1,69.0,31,2,high,3 + 1 + 8 - 5 - 1,6,6,5,7,1252.958496700041,1254.984948700061,1256.5004548999714,1261.5185872999718,1263.4036096000343,1263.4036147000734,1264.9195683000144,1265.936886099982,w,5.0,1.885022300062701,0,+0,264,4.478750489026547,0.206146474770311,-0.1557688394704968,1251008.0,1.9193775323721498,-0.3055086918089991,0.6700866457719985,1254541.0,,,,,1256.4989951765244,1252.9659951765245,
78,66,28,M,1,1,70.0,32,1,low,3 + 1 + 8 + 1 + 1,14,12,14,13,1267.4540932000382,1269.48114300007,1270.997122199973,1276.0149648999795,1276.995608099969,1276.9956133000087,1278.5120295999805,1279.529803600046,w,14.0,0.9806431999895722,1,+1,265,2.8331623455278674,-0.1885346063608746,-2.3996745842466423,1265504.0,-1.9162914301489167,-0.1599801429932679,0.16533471066669092,1269038.0,,,,,1270.9959951765245,1267.4619951765244,
79,66,28,M,1,1,71.0,33,4,low,7 + 8 - 4 + 6 - 5,12,12,11,13,1281.046436100034,1283.0735913000535,1284.5895013000118,1289.6074391000438,1292.683581499965,1292.683586900006,1294.2005092999898,1295.2178699000506,e,13.0,3.076142399921082,0,+0,265,0.9151957625990423,-0.04705039649781728,0.033294376969330575,1279096.0,27.523562785209236,-0.3262397305390272,0.13573956663818976,1282630.0,,,,,1284.5879951765246,1281.0539951765245,
80,66,28,M,1,1,72.0,34,2,high,5 - 1 + 1 + 8 + 9,22,22,23,21,1296.734655200038,1298.7577859000305,1300.272995300009,1305.333713900065,1307.707542499993,1307.7075477000326,1309.2240414000116,1310.2412836999863,q,22.0,2.373828599927947,1,+10,275,-32.364365159180764,0.5885570638985125,0.312852166745317,1294780.0,-6.655213946907107,0.02922591787105011,-0.0824522611529499,1298356.0,,,,,1300.3139951765245,1296.7379951765245,
81,66,28,M,1,1,73.0,35,2,high,6 + 1 + 1 + 7 - 9,6,8,4,6,1311.7581604999723,1313.7840368000325,1315.3001401000656,1320.3645412999904,1321.435569299967,1321.435574800009,1322.9684312000172,1323.9857921000803,e,6.0,1.07102799997665,1,+10,285,8.207756582472083,-0.42134964014494214,0.24044422976254198,1309806.0,38.9486944545566,0.30739802995709997,0.1379259147682359,1313387.0,,,,,1315.3449951765244,1311.7639951765245,
82,66,28,M,1,1,74.0,36,3,high,5 + 6 + 7 - 1 - 9,8,7,9,8,1325.5022869000677,1327.5298650000475,1329.0451612999896,1334.0637444000458,1335.6835674999747,1335.6835743000263,1337.199921200052,1338.217351200059,e,8.0,1.619823099928908,1,+10,295,-7.506774889154238,0.5073169999736833,0.07803296254121195,1323552.0,-28.525724861834348,-0.4463490324240329,-0.21774204961529708,1327086.0,,,,,1329.0439951765245,1325.5099951765244,
83,66,28,M,1,1,75.0,37,4,low,4 + 7 + 8 - 3 + 9,25,26,24,25,1339.7345612000208,1341.7586872000247,1343.2737125999993,1348.294006500044,1350.9475991000654,1350.947608300019,1352.4642172000604,1353.4810134000145,e,25.0,2.6535926000215118,1,+1,296,1.4052579187265366,-0.15790317041132296,0.036571171961687465,1337781.0,8.086519159973474,-0.3028961962207388,-1.677106447855361,1341316.0,,,,,1343.2739951765245,1339.7389951765244,
84,66,28,M,1,2,76.0,0,2,low,6 + 1 + 1 + 7 - 9,6,6,4,8,1384.8400258000474,1386.8673622000497,1388.3826357000507,1393.4081589999842,1394.3955389000475,1394.395544399973,1395.9119573000353,1396.9293310000794,q,6.0,0.987379900063388,1,+1,297,6.720308872392945,1.892398724129524,0.11311874951476186,1382890.0,17.980806841871676,-1.198650805937536,-0.058442813455427345,1386430.0,,,,,1388.3879951765246,1384.8479951765246,
85,66,28,M,1,2,77.0,1,3,low,7 - 6 + 8 + 1 + 7,17,15,17,16,1398.446136599989,1400.4727426000172,1401.988009899971,1407.0063530000623,1407.9314607999986,1407.9314662000395,1409.4485265000258,1410.465529700043,w,17.0,0.925107799936086,1,+1,298,0.7565512999367972,0.6211876918406114,0.10708242711378624,1396495.0,4.656266446913696,0.31820214954869197,-0.0238907903448089,1400029.0,,,,,1401.9869951765245,1398.4529951765244,
86,66,28,M,1,2,78.0,2,2,low,8 + 1 + 7 + 1 - 4,13,12,13,14,1411.982327500009,1414.0095635000616,1415.5248240999645,1420.544033500017,1421.6595164000755,1421.6595220000015,1423.1803006000118,1424.1970216999762,w,13.0,1.1154829000588506,1,+1,299,-7.91387654354892,0.03551001981998425,0.17516650506066034,1410031.0,-34.5339858577409,0.11370369064842478,0.013978072133621566,1413566.0,,,,,1415.5239951765245,1411.9889951765244,
87,66,28,M,1,2,79.0,3,2,high,9 + 5 - 6 + 1 - 1,8,7,9,8,1425.7140375999734,1427.7400558000663,1429.255220800056,1434.274274699972,1435.3395883999765,1435.3395942000209,1436.8560552999843,1437.873236100073,e,8.0,1.0653137000044808,1,+10,309,32.26242820218728,0.46675670507631395,0.017230116808765406,1423762.0,-4.493527531419431,0.3200590326962107,-0.2084754841510268,1427297.0,,,,,1429.2549951765245,1425.7199951765244,
88,66,28,M,1,2,80.0,4,4,high,6 + 5 - 7 + 8 - 9,3,4,5,3,1439.3901654999936,1441.4168433999876,1442.93209440005,1447.9506605999777,1451.5234840000048,1451.5234908000566,1453.055701400037,1454.072838000022,q,4.0,3.572823400027118,0,+0,309,-1.6112243954479624,0.2517656051626682,-0.034793302463910436,1437439.0,-29.167626552797763,0.2596481784529292,0.22563636776865192,1440973.0,,,,,1442.9309951765244,1439.3969951765246,
89,66,28,M,1,2,81.0,5,3,low,2 - 4 + 9 + 7 + 1,15,15,13,16,1455.589807900018,1457.6150592999766,1459.130429300014,1464.1490992000329,1467.7714599000756,1467.7714656000026,1469.2880803999724,1470.3052389000077,e,16.0,3.6223607000429183,0,+0,309,18.78972800085976,18.786848840541314,7.201149286099585,1453637.0,1.9847176384658676,0.2711022031734265,0.5777535859633227,1457171.0,,,,,1459.1289951765245,1455.5949951765244,
90,66,28,M,1,2,82.0,6,2,high,2 + 9 + 1 + 1 - 5,8,8,6,7,1471.8219586000778,1473.8477246999971,1475.362772100023,1480.383004900068,1481.3234077000525,1481.3234129999764,1482.839611500036,1483.8573945000535,q,8.0,0.9404027999844402,1,+10,319,-16.627878036878784,0.27386652802851597,-1.5298266332134416,1469870.0,4.1089466679111375,-0.8848832581447317,-0.29882884002793286,1473405.0,,,,,1475.3629951765245,1471.8279951765244,
91,66,28,M,1,2,83.0,7,2,low,5 - 8 + 7 + 1 + 1,6,8,6,7,1485.3741013000254,1487.4014804000035,1488.9162368000252,1493.9354293000652,1497.2354321000166,1497.2354379000608,1498.752671399969,1499.769824200077,q,8.0,3.3000027999514714,0,+0,319,3.996225013031662,0.17327258642474064,0.46430643835946084,1483424.0,9.851025739394968,0.21572697947604436,0.208493040648571,1486957.0,,,,,1488.9149951765246,1485.3819951765245,
92,66,28,M,1,2,84.0,8,2,low,4 + 8 + 1 + 1 - 5,9,8,9,11,1501.2867723000236,1503.3120125000132,1504.8274721000344,1509.8454580999678,1511.1553636000026,1511.1553691000445,1512.672048700042,1513.6889019999653,w,9.0,1.3099055000348017,1,+1,320,10.590802786135168,1.0090917078679569,0.17279262018800567,1499334.0,20.232352646642056,-0.17670652346403593,-3.0101694975989055,1502868.0,,,,,1504.8259951765244,1501.2919951765246,
93,66,28,M,1,2,85.0,9,2,low,8 + 1 + 1 + 9 - 4,15,14,15,16,1515.205719200079,1517.232445199974,1518.7477329999674,1523.7663418999873,1524.787440199987,1524.7874458000297,1526.314944599988,1527.3316280000145,w,15.0,1.0210982999997211,1,+1,321,-12.775118511149884,0.49965288319365886,0.052032523144471376,1513254.0,9.795950369550603,0.2391036440095169,-0.03361563324232142,1516788.0,,,,,1518.7459951765245,1515.2119951765244,
94,66,28,M,1,2,86.0,10,2,low,4 + 9 - 7 + 1 - 1,6,8,5,6,1528.8484003000194,1530.8748833000427,1532.3901420000475,1537.4087574000005,1539.907364899991,1539.907370400033,1541.4233644000487,1542.4404168999754,e,6.0,2.4986074999906123,1,+1,322,-4.0516949971727705,-1.066279123208146,6.652961455707525,1526897.0,14.393835445947353,-0.1457828223742581,-2.7312351109676243,1530431.0,,,,,1532.3889951765245,1528.8549951765244,
95,66,28,M,1,2,87.0,11,4,high,8 + 4 + 7 - 5 - 6,8,7,9,8,1543.9572559000226,1545.9840671999846,1547.4990513999946,1552.5174016000235,1553.5953673999757,1553.5953725000145,1555.111781100044,1556.1290363000007,q,7.0,1.077965799951926,0,+0,322,-17.09142702778558,-0.7460337251968632,-0.18878613418442658,1542006.0,-16.356512064643358,0.553640553319279,0.15052445867732667,1545539.0,,,,,1547.4969951765245,1543.9639951765246,
96,66,28,M,1,2,88.0,12,3,high,8 + 5 + 1 - 7 + 9,16,14,16,17,1557.646128299995,1559.6700723000104,1561.185358099989,1566.2038793000393,1570.3233030000702,1570.3233084999956,1571.8399606000166,1572.8569747,w,16.0,4.119423700030893,1,+10,332,28.409319361281774,-1.070143951769344,-1.339982325761992,1555692.0,-69.77888233671558,-0.1634837320416267,0.0843672679305354,1559225.0,,,,,1561.1829951765244,1557.6499951765245,
97,66,28,M,1,2,89.0,13,1,high,5 + 8 - 1 + 1 + 1,14,14,12,16,1574.3736420000205,1576.3980520999758,1577.9133913000114,1582.9316677000606,1583.8513496000087,1583.851355300052,1585.3679281000514,1586.3852870999835,q,14.0,0.9196818999480456,1,+10,342,-25.145665188932863,0.27232990676654456,-0.012748094434835266,1572420.0,1.6101862731436967,-1.2796776835104549,-1.024421652628022,1575953.0,,,,,1577.9109951765245,1574.3779951765246,
98,66,28,M,1,2,90.0,14,2,low,5 + 9 - 8 + 1 + 1,8,9,7,8,1587.9019866000162,1589.929406600073,1591.4447483000113,1596.4626363000134,1599.475396099966,1599.4754015000071,1600.9920256000478,1602.0090057000052,w,7.0,3.0127597999526188,0,+0,342,38.91339998180638,-0.4982856301328633,-0.1271647020784199,1585950.0,-4.826790727230468,-0.1255864966006337,0.05139210464552679,1589485.0,,,,,1591.4429951765244,1587.9079951765245,
99,66,28,M,1,2,91.0,15,3,low,9 + 3 - 4 + 6 + 7,21,21,22,23,1603.5258865000214,1605.5519784999778,1607.067235399969,1612.086529699969,1613.9153718000744,1613.9153770999983,1615.4321214000229,1616.4491783999838,e,23.0,1.8288421001052484,0,+0,342,8.30049881223767,0.0068894827474048626,0.22014662424533626,1601573.0,-0.3859492876379047,0.21282876002298323,0.07646979943560717,1605109.0,,,,,1607.0669951765244,1603.5309951765246,
100,66,28,M,1,2,92.0,16,2,low,9 + 6 + 1 + 7 + 1,24,25,23,24,1617.9749322000423,1620.002333200071,1621.518250199966,1626.5370858999668,1627.7873151999663,1627.7873208000092,1629.3038233000552,1630.3210655000294,e,24.0,1.2502292999997735,1,+1,343,6.7605301399353666,0.5565519164963266,0.04979132101422579,1616024.0,-3.153746900259815,-0.5813516138803951,-0.131857714662317,1619559.0,,,,,1621.5169951765245,1617.9819951765244,
101,66,28,M,1,2,93.0,17,4,low,8 + 3 - 4 + 5 + 9,21,21,23,22,1631.837461899966,1633.8636299000354,1635.378968700068,1640.398346800008,1643.8352419000585,1643.8352471999824,1645.3528162000002,1646.3695007000351,q,21.0,3.436895100050606,1,+1,344,47.23500792450987,0.3054105116877821,0.35735431156696196,1629885.0,-0.9695113063532066,-0.8652610921814556,1.2797140692255846,1633420.0,,,,,1635.3779951765246,1631.8429951765245,
102,66,28,M,1,2,94.0,18,1,high,7 - 1 + 1 + 9 - 1,15,14,13,15,1647.8862907000585,1649.911615799996,1651.4269584000576,1656.445617999998,1657.219192599994,1657.2191978000335,1658.7365610999989,1659.7539400999667,e,15.0,0.7735745999962091,1,+10,354,-11.88753069144283,7.713145128154636,8.024146754611522,1645933.0,15.283466318036375,0.09080370433010865,-0.3684111265414298,1649467.0,,,,,1651.4249951765246,1647.8909951765245,
103,66,28,M,1,2,95.0,19,3,high,8 - 7 + 9 + 1 + 4,15,14,16,15,1661.2708092000105,1663.294741800055,1664.8107925000368,1669.829038899974,1672.843346800073,1672.8433525,1674.3600359000266,1675.3779155999655,w,16.0,3.014307900099084,0,+0,354,-1.6892503415738105,0.01126852645683929,1.2964966305126207,1659316.0,-2.5698393742224157,-0.15389500269869405,-0.16310929424546483,1662851.0,,,,,1664.8089951765246,1661.2739951765245,
104,66,28,M,1,2,96.0,20,4,high,7 + 6 + 8 - 4 + 5,22,21,23,22,1676.8956135000335,1678.9228669999866,1680.4382333999963,1685.4569819000317,1686.475209600059,1686.4752151999855,1687.991494799964,1689.008476200048,e,22.0,1.0182277000276372,1,+10,364,6.618767213514642,0.6017139827036595,9.082326176683443,1674944.0,13.848057842420511,-47.232129491873614,-22.906737050575614,1678479.0,,,,,1680.4369951765245,1676.9019951765245,
105,66,28,M,1,2,97.0,21,3,high,8 + 4 + 1 - 7 + 9,15,13,15,16,1690.5249536000192,1692.551481600036,1694.06680660008,1699.0851634000428,1701.6512549000329,1701.651260600076,1703.1677988000447,1704.1848597000353,w,15.0,2.5660914999898523,1,+10,374,7.987168280271824,0.5120434158704992,0.4550340462628628,1688573.0,-27.18721698257064,-0.15142270238327482,-0.0008022058715355662,1692107.0,,,,,1694.0649951765245,1690.5309951765246,
106,66,28,M,1,2,98.0,22,3,high,6 + 7 + 8 + 1 - 9,13,14,13,15,1705.7018453000346,1707.728110200027,1709.2433753999649,1714.261817599996,1715.1871111000655,1715.1871160999872,1716.7037626999663,1717.7211141000737,w,13.0,0.9252935000695288,1,+10,384,-37.792956659833195,-0.12280532868233829,0.17582595211981356,1703749.0,-0.2001067720797085,-0.1567863792583073,0.5069084077259061,1707283.0,,,,,1709.2409951765244,1705.7069951765245,
107,66,28,M,1,2,99.0,23,2,high,4 + 8 + 1 + 1 - 6,8,8,9,7,1719.238309700042,1721.2653505000053,1722.7802452000324,1727.798174099997,1731.283191399998,1731.2831968000391,1732.8000580000223,1733.817470300011,w,9.0,3.4850173000013456,0,+0,384,-38.62121453571022,-0.12392781845246592,-0.03911591461672215,1717287.0,20.962239119496736,-0.08168378530528964,0.11179454562499003,1720820.0,,,,,1722.7779951765244,1719.2449951765245,
108,66,28,M,1,2,100.0,24,3,low,7 - 1 + 8 - 6 + 4,12,13,12,11,1735.334514999995,1737.3620165999746,1738.8772839000449,1743.8956752000377,1746.0591242000228,1746.0591295000631,1747.57574130001,1748.592596200062,w,12.0,2.163448999985121,1,+1,385,-41.268439934682185,0.15847918004673645,0.30433993406159643,1733383.0,21.29334539399828,4.883281569755406,3.391739519914955,1736917.0,,,,,1738.8749951765244,1735.3409951765245,
109,66,28,M,1,2,101.0,25,4,low,2 + 9 - 6 + 8 - 4,9,7,9,11,1750.1097511000698,1752.137989400071,1753.6534464000724,1758.6820627000416,1759.7871315999655,1759.7871376000112,1761.3036328000017,1762.320542100002,w,9.0,1.1050688999239355,1,+1,386,-35.06923102106335,-0.18626584521528367,0.011530498518963928,1748159.0,9.891402117981952,-0.2889738207109076,0.11044941273710807,1751703.0,,,,,1753.6609951765245,1750.1169951765246,
110,66,28,M,1,2,102.0,26,2,high,3 + 9 + 1 - 5 + 1,9,8,9,7,1763.8374543000243,1765.8616544000106,1767.3766752000663,1772.394725900027,1776.395206999965,1776.3952135000145,1777.9121647999857,1778.9294479000382,q,8.0,4.0004810999380425,0,+0,386,24.6968471406245,0.06617890695199691,-0.004047916715284483,1761883.0,14.740508557423077,0.572684529928873,0.14436606659087148,1765416.0,,,,,1767.3739951765244,1763.8409951765245,
111,66,28,M,1,2,103.0,27,3,high,5 + 6 - 4 - 1 + 8,14,16,15,14,1780.4462677000556,1782.4734757000117,1783.9886277000187,1789.007806800073,1791.5470978000667,1791.5471030999906,1793.0634314999916,1794.080653800047,w,15.0,2.539290999993682,0,+0,386,-17.27853702861394,0.5684792940371728,0.0011284290535948927,1778495.0,21.61229908539209,-0.2055686093627025,-1.5199203460437856,1782029.0,,,,,1783.9869951765245,1780.4529951765244,
112,66,28,M,1,2,104.0,28,4,high,3 + 8 - 4 + 9 + 7,23,22,23,24,1795.59688680002,1797.6205615999645,1799.1357090000529,1804.1543756000465,1807.739237700007,1807.739243600052,1809.255879900069,1810.272643500008,e,24.0,3.5848620999604464,0,+0,386,-0.28369941576054103,-0.07414657965309424,-0.2709594853351791,1793642.0,-27.648675232435895,0.024323879961360984,-0.1338589393250076,1797176.0,,,,,1799.1339951765244,1795.5999951765245,
113,66,28,M,1,2,105.0,29,4,high,9 + 7 - 5 + 8 + 6,25,25,24,27,1811.7895048999928,1813.815753599978,1815.3315993000288,1820.351734300028,1822.4191128000384,1822.4191183000803,1823.9453216000693,1824.9625779000344,e,27.0,2.0673785000108182,0,+0,386,-7.2363155208458005,0.05594347768711705,0.6771885007107787,1809837.0,-17.533471699319378,0.11047977714669033,0.1911540047850533,1813373.0,,,,,1815.3309951765245,1811.7949951765245,
114,66,28,M,1,2,106.0,30,4,low,7 + 6 - 9 + 8 - 3,9,8,7,9,1826.4794607000656,1828.505870299996,1830.021051699994,1835.039217100013,1837.8430074000496,1837.8430126999735,1839.3592287000504,1840.3759557000596,e,9.0,2.8037903000367805,1,+1,387,-4.876794634420822,-0.2872216547336848,-0.014932167084207304,1824527.0,-89.58688901883525,0.25333143967738136,-0.14611443811768776,1828061.0,,,,,1830.0189951765244,1826.4849951765245,
115,66,28,M,1,2,107.0,31,1,high,7 + 1 + 4 + 1 - 1,12,12,13,11,1841.892772200052,1843.9184200000016,1845.433692099992,1850.4540551999817,1851.251067699981,1851.251073500025,1852.767534499988,1853.784625099972,q,12.0,0.7970124999992549,1,+10,397,12.214947112709794,-0.4851530637813499,0.5500638391887773,1839939.0,7.696880297563435,0.03630636021225042,0.05829904830723942,1843475.0,,,,,1845.4329951765244,1841.8969951765246,
116,66,28,M,1,2,108.0,32,3,low,5 + 6 - 4 - 1 + 7,13,14,13,15,1855.301458399976,1857.325632699998,1858.8408762000035,1863.8591916000005,1865.7070047999728,1865.707010400016,1867.2231703000143,1868.240655099973,w,13.0,1.8478131999727336,1,+1,398,-12.79141138132696,-0.3060167102564524,-1.2024543217158694,1853347.0,38.36026812666974,-0.22239668029708337,0.03113172695226374,1856880.0,,,,,1858.8379951765246,1855.3049951765245,
117,66,28,M,1,2,109.0,33,2,high,3 + 9 - 1 - 5 + 1,7,7,6,5,1869.7576619000172,1871.784351899987,1873.3003392000685,1878.3181702999864,1879.6909826999763,1879.690987900016,1881.225045199972,1882.2419342000503,e,5.0,1.372812399989925,0,+0,398,44.825867587487295,-0.5949319001754874,4.355195180330483,1867805.0,-4.992280052730538,9.104281278634195,9.882491099651325,1871340.0,,,,,1873.2979951765244,1869.7629951765246,
118,66,28,M,1,2,110.0,34,4,high,9 + 8 - 5 - 7 + 6,11,10,13,11,1883.759599199984,1885.787185500027,1887.3022932000456,1892.32106950006,1894.435049099964,1894.4350547000067,1895.951709200046,1896.9696353999896,e,11.0,2.113979599904269,1,+10,408,-53.381611710432054,-0.017694812074275035,-0.4957279475238343,1881808.0,-8.113062233617761,-0.023500051513878795,0.06948588328238614,1885342.0,,,,,1887.2999951765246,1883.7659951765245,
119,66,28,M,1,2,111.0,35,4,high,6 + 9 + 7 - 3 - 5,14,14,15,13,1898.4862067999784,1900.508007699973,1902.0232315000608,1907.041862600017,1909.4029667000289,1909.4029721000695,1910.9194215000607,1911.9366520000624,e,13.0,2.361104100011289,0,+0,408,-4.786846012643828,0.251367943563785,0.1387155010977612,1896529.0,-7.107655566698238,0.6470169155675474,9.84571063113764,1900063.0,,,,,1902.0209951765246,1898.4869951765245,
120,66,28,M,1,2,112.0,36,4,low,8 + 4 + 7 - 5 - 6,8,6,8,9,1913.453792000073,1915.4763365000251,1916.991604299983,1922.0107761999825,1923.9237555,1923.9237617000472,1925.4401389000705,1926.4573935000224,e,9.0,1.9129793000174689,0,+0,408,25.326252979486647,5.831550844502155,2.5552473687821244,1911497.0,12.36555784177693,3.7017133011528127,3.961995932487822,1915031.0,,,,,1916.9889951765244,1913.4549951765246,
121,66,28,M,1,2,113.0,37,1,low,8 + 1 + 1 + 1 - 3,8,6,8,9,1927.9747596000088,1930.0020869000584,1931.5170898999784,1936.535341000068,1939.571018900024,1939.5710249000692,1941.0873984000648,1942.104111899971,w,8.0,3.035677899955772,1,+1,409,11.193698169913532,-0.05363943506926283,-0.03474653632851554,1926023.0,19.094930505771803,0.08397330365840627,-0.008937165839593364,1929556.0,,,,,1931.5139951765245,1927.9809951765244,
122,66,28,M,1,3,114.0,0,1,low,3 + 1 + 8 + 1 + 1,14,16,14,13,1995.023156500072,1997.0494232000783,1998.5648944000716,2003.5842042000727,2005.490861200029,2005.49086660007,2007.0074417999715,2008.041915900074,w,14.0,1.906656999955885,1,+1,410,8.989829888536939,-21.888245075981068,-23.827139274969397,1993070.0,14.088166640575654,0.6664721015578436,0.1221085127207151,1996605.0,,,,,1998.5629951765245,1995.0279951765244,
123,66,28,M,1,3,115.0,1,1,low,2 + 1 + 9 + 1 - 1,12,11,12,13,2009.558585599996,2011.5843247000596,2013.0995572999816,2018.1180491000412,2018.9628926999867,2018.96289840003,2020.4794814999916,2021.496457500034,w,12.0,0.8448435999453068,1,+1,411,-35.374978426152424,-0.1638556800888491,0.13743261482067393,2007605.0,5.614284821514367,-0.19973493759251948,-0.04915806953058244,2011139.0,,,,,2013.0969951765244,2009.5629951765245,
124,66,28,M,1,3,116.0,2,3,low,2 + 1 + 9 - 5 + 6,13,13,11,14,2023.0130212000804,2025.054084300064,2026.569583200035,2031.598687299993,2034.01885350002,2034.0188595000652,2035.535655500018,2036.5529589999933,w,11.0,2.4201662000268698,0,+0,411,-7.4932506121952756,0.4485042671491497,-0.021808123680586267,2021075.0,19.24893060458526,0.16125124143594993,-0.1321864548591103,2024619.0,,,,,2026.5769951765244,2023.0329951765245,
125,66,28,M,1,3,117.0,3,2,low,2 + 9 - 4 + 1 + 1,9,8,11,9,2038.0697460999943,2040.095704599982,2041.610678200028,2046.6307093000505,2047.57882090006,2047.5788264999865,2049.0954449999845,2050.1124333000043,e,9.0,0.9481116000097244,1,+1,412,-26.704445965296777,0.027241152760372422,0.15869663958294344,2036116.0,2.3967935491994687,0.04179211432013563,0.33040960580422096,2039651.0,,,,,2041.6089951765246,2038.0739951765245,
126,66,28,M,1,3,118.0,4,3,low,6 - 1 + 7 - 8 + 9,13,13,12,11,2051.629371099989,2053.6564649000065,2055.172221300076,2060.190592000028,2061.858886200004,2061.8588919000467,2063.375170700019,2064.3926274999976,e,11.0,1.6682941999752074,0,+0,412,-0.13969043227497302,-0.037895829153437255,-1.433650846745108,2049677.0,3.893727829703839,-0.04518941911957963,-0.3727900206344845,2053212.0,,,,,2055.1699951765245,2051.6349951765246,
127,66,28,M,1,3,119.0,5,1,high,4 + 7 + 1 - 1 - 1,10,9,11,10,2065.9098883999977,2067.9327674000524,2069.448282300029,2074.466426400002,2075.538786199992,2075.538791400031,2077.0552982999943,2078.0725850000745,e,10.0,1.0723597999894992,1,+10,422,-7.3006869858276815,-0.4390287422705086,-1.9866331880083345,2063953.0,-51.90498336458306,-0.3229229749336433,-0.075459362463135,2067487.0,,,,,2069.4449951765246,2065.9109951765245,
128,66,28,M,1,3,120.0,6,2,high,7 + 5 + 1 + 9 + 1,23,21,22,23,2079.5893672000384,2081.6137776999967,2083.128799700062,2088.1470057000406,2089.1387656000443,2089.138770999969,2090.6548225000734,2091.672956399969,e,23.0,0.9917599000036716,1,+10,432,0.60631609090367,0.3591743087157506,-0.035881525460401686,2077634.0,15.770767921398537,0.15260016318193292,-2.025751515722257,2081167.0,,,,,2083.1249951765244,2079.5919951765245,
129,66,28,M,1,3,121.0,7,4,low,8 + 5 - 4 + 7 + 9,25,26,24,25,2093.189823499997,2095.215515900054,2096.7311187000014,2101.7498625000007,2104.818858899991,2104.8188654000405,2106.3355274000205,2107.3531372,w,24.0,3.068996399990283,0,+0,432,29.782328264180556,-0.16719908732565303,0.04405561559970206,2091236.0,5.858530388479636,0.42870777150859896,3.280050063446084,2094770.0,,,,,2096.7279951765245,2093.1939951765244,
130,66,28,M,1,3,122.0,8,3,high,5 + 7 + 1 - 4 + 6,15,15,13,17,2108.869925700012,2110.897232800024,2112.4124062000774,2117.432154100039,2120.1387229000684,2120.138728699996,2121.655974099994,2122.673258700059,w,13.0,2.706568800029345,0,+0,432,13.303833434068059,-0.23839701668886715,-0.11404528840484707,2106917.0,15.146722851783117,-1.7897895567236963,-4.91276673795763,2110453.0,,,,,2112.4109951765245,2108.8749951765244,
131,66,28,M,1,3,123.0,9,2,low,2 + 1 + 9 - 4 + 1,9,11,9,8,2124.1900281000417,2126.2173098999774,2127.732548500062,2132.750918400008,2133.682731000008,2133.68273650005,2135.1992620000383,2136.2161190999905,w,9.0,0.93181259999983,1,+1,433,79.9083107686753,0.772457772823822,1.5198225452138048,2122238.0,15.99645206401469,0.03405718149133463,0.17230056370756852,2125771.0,,,,,2127.7289951765247,2124.1959951765243,
132,66,28,M,1,3,124.0,10,3,low,3 - 7 + 5 + 1 + 9,11,13,12,11,2137.7329089000123,2139.7588308000704,2141.274109399994,2146.294174400042,2149.1147113000043,2149.1147171000484,2150.631627500057,2151.649028300075,w,12.0,2.8205368999624625,0,+0,433,15.800964692373007,-0.495811781900807,-0.46915246630397167,2135779.0,-10.743511450705345,-0.706569437180713,0.2733467264244225,2139315.0,,,,,2141.2729951765245,2137.7369951765245,
133,66,28,M,1,3,125.0,11,1,low,3 + 1 + 1 + 9 - 1,13,14,12,13,2153.16601549997,2155.193006800022,2156.708043599967,2161.7268288000487,2163.722654400044,2163.7226594999665,2165.2392762000677,2166.256022299989,e,13.0,1.9958255999954415,1,+1,434,26.938967497564985,0.13901977645021368,0.0672564175787862,2151213.0,4.817560136633466,-0.09925582553280865,0.36393806929144423,2154747.0,,,,,2156.7049951765243,2153.1709951765247,
134,66,28,M,1,3,126.0,12,1,high,3 + 1 + 9 + 1 - 1,13,12,14,13,2167.7727772999788,2169.7997338999994,2171.314660100033,2176.3326572000515,2177.354803800001,2177.354809200042,2178.8715277999872,2179.8886727000354,e,13.0,1.0221465999493375,1,+10,444,-0.971550196985961,0.26511205759672984,0.11573046387128016,2165820.0,-28.950650983184808,-0.7191933653506473,-0.14308658944885133,2169353.0,,,,,2171.3109951765246,2167.7779951765247,
135,66,28,M,1,3,127.0,13,2,low,3 + 8 - 5 + 1 + 1,8,6,9,8,2181.406566699967,2183.4332651000004,2184.94856160006,2189.9671840000665,2191.002629099996,2191.0026346000377,2192.5192258000607,2193.5512476000004,e,8.0,1.0354450999293476,1,+1,445,-3.443806636066057,-0.48225610002412456,0.07022761593989646,2179454.0,3.972550089067603,-0.36921477390737856,0.12394264261904198,2182987.0,,,,,2184.9449951765246,2181.4119951765247,
136,66,28,M,1,3,128.0,14,4,high,4 + 7 + 9 - 5 + 7,22,23,24,22,2195.068083400023,2197.0953065999784,2198.610462200013,2203.6286598000443,2205.1546500000404,2205.154655499966,2206.6712485000025,2207.688490999979,q,23.0,1.5259901999961585,0,+0,445,13.765883969956612,0.38062967287075766,-2.4148280751740865,2193115.0,-25.410186358061498,-0.19448321666923318,0.2037977993109532,2196649.0,,,,,2198.6069951765244,2195.0729951765243,
137,66,28,M,1,3,129.0,15,2,high,6 + 8 + 1 + 1 - 7,9,11,9,8,2209.205158500001,2211.231833399972,2212.7471035000635,2217.7654603000265,2219.01875310007,2219.0187589999987,2220.535383600043,2221.5524399999995,w,9.0,1.2532928000437096,1,+10,455,-16.46419470083567,-0.20325406261473145,-0.8322309280465965,2207252.0,-10.065484928372733,16.286668177941348,4.697570531669259,2210786.0,,,,,2212.7439951765245,2209.2099951765244,
138,66,28,M,1,3,130.0,16,2,high,4 + 9 + 1 - 7 - 1,6,8,5,6,2223.069045000011,2225.0939045000123,2226.6092661999865,2231.6284404000035,2232.4506372000324,2232.450642600073,2233.9670870000264,2234.984418099979,e,6.0,0.8221968000289053,1,+10,465,0.2941822866764632,0.46653300074170945,0.07781275062154203,2221114.0,8.465536307072792,-0.3127039689392861,0.3013244948834668,2224649.0,,,,,2226.6069951765244,2223.0719951765245,
139,66,28,M,1,3,131.0,17,3,high,3 + 8 - 7 - 1 + 9,12,13,14,12,2236.5012557000155,2238.528484300012,2240.0434421000537,2245.062150100013,2245.818672599969,2245.8186780000106,2247.335871899966,2248.3527759000426,e,12.0,0.7565224999561906,1,+10,475,-3.00008462211502,-0.06306056914315228,0.0438245729699136,2234549.0,-12.982096592541051,-0.25959876314246166,-0.06347358554421456,2238082.0,,,,,2240.0399951765244,2236.5069951765245,
140,66,28,M,1,3,132.0,18,1,low,5 + 9 - 1 + 1 + 1,15,13,17,15,2249.8695905000204,2251.8969448000425,2253.412214100012,2258.430392700014,2259.3226205999963,2259.3226264000405,2260.8397865999723,2261.85681310005,e,15.0,0.8922278999816626,1,+1,476,1.3731444719119157,-0.05270191339102759,-0.3853868234796418,2247917.0,-4.209688340016644,0.2661033797681469,-0.10868841769244897,2251451.0,,,,,2253.4089951765245,2249.8749951765244,
141,66,28,M,1,3,133.0,19,4,low,8 + 4 - 5 + 7 - 6,8,8,6,7,2263.373434200068,2265.3988353000022,2266.914025000064,2271.934100800077,2272.738676600042,2272.738681799965,2274.2549182999646,2275.2724649000447,q,8.0,0.8045757999643683,1,+1,477,-7.367886681115969,7.930246459471871,2.1911248933759846,2261419.0,-31.12213025690498,-0.7313584926663514,-0.015238967239366463,2264954.0,,,,,2266.9119951765247,2263.3769951765244,
142,66,28,M,1,3,134.0,20,2,high,6 + 1 + 1 + 8 - 9,7,5,9,7,2276.789463400026,2278.813415699988,2280.3282828000374,2285.346308300039,2286.09058129997,2286.090586700011,2287.607626400073,2288.6250662000384,e,7.0,0.7442729999311268,1,+10,487,-4.588191789988416,0.20857412914637496,-0.5449611321373458,2274834.0,10.553739883013218,0.12619309512301546,-0.3778850040976822,2278366.0,,,,,2280.3239951765245,2276.7919951765243,
143,66,28,M,1,3,135.0,21,4,low,5 + 8 - 4 - 6 + 9,12,13,14,12,2290.142043799977,2292.1675974000245,2293.6836373000406,2298.7020493000746,2301.5065568999853,2301.506562900031,2303.023147800006,2304.0402134000324,w,14.0,2.804507599910721,0,+0,487,27.266767729167885,0.3735831818309592,0.120764639218085,2288188.0,17.787737043387935,0.2777395140543959,-0.3187568138883323,2291722.0,,,,,2293.6799951765247,2290.1459951765246,
144,66,28,M,1,3,136.0,22,2,low,6 + 1 + 7 - 8 - 1,5,7,4,5,2305.556934299995,2307.584644800052,2309.099757899996,2314.118220100063,2316.5225009999704,2316.522506100009,2318.039050100022,2319.0558586000698,e,5.0,2.4042808999074623,1,+1,488,-29.43386183808905,-0.5286480893842169,-0.04956210905158853,2303604.0,5.392477168930771,-0.11537294318136393,-0.3900101318942606,2307138.0,,,,,2309.0959951765244,2305.5619951765243,
145,66,28,M,1,3,137.0,23,4,high,2 + 9 - 4 + 8 + 7,22,21,23,22,2320.5722520999843,2322.5979295000434,2324.113094600034,2329.132323500002,2331.5066466999706,2331.506652400014,2333.02288970002,2334.0403306999942,w,23.0,2.374323199968785,0,+0,488,21.992124702751514,0.36744799871286293,-7.664098229243337,2318618.0,-3.593696484819006,40.264227758015736,16.711830832138862,2322153.0,,,,,2324.1109951765243,2320.5759951765244,
146,66,28,M,1,3,138.0,24,1,low,4 + 1 + 1 + 7 - 1,12,13,14,12,2335.5571471999865,2337.583693500026,2339.098973400076,2344.1173560000025,2345.226451999973,2345.226460200036,2346.743067300064,2347.7603323999792,e,12.0,1.109095999971032,1,+1,489,-0.40106936424507467,-0.06667285675173495,-0.11688321519261047,2333604.0,1.580537163651874,0.14745103315844865,0.11797933572268016,2337137.0,,,,,2339.0949951765247,2335.5619951765243,
147,66,28,M,1,3,139.0,25,3,high,6 - 1 + 7 - 8 + 9,13,11,12,13,2349.277000000002,2351.303507099976,2352.818730800064,2357.838919300004,2359.6984559000703,2359.698461199994,2361.2151085999794,2362.2321751000127,w,12.0,1.859536600066349,0,+0,489,20.083447903554926,0.1295465694850737,-0.5848806919471401,2347323.0,11.02502516816932,-0.2709293490096103,0.11974583531680105,2350859.0,,,,,2352.8169951765244,2349.2809951765244,
148,66,28,M,1,3,140.0,26,1,high,9 + 8 + 1 + 1 - 1,18,20,17,18,2363.748793400009,2365.772442299989,2367.2876756000333,2372.305875699967,2373.3544732000446,2373.3544784999685,2374.870734700002,2375.888211000012,e,18.0,1.0485975000774488,1,+10,499,-11.357320054784475,0.4557120198412745,0.06720209500822838,2361792.0,-19.944552771498962,-0.6014496679850763,1.9737517666128177,2365326.0,,,,,2367.2839951765245,2363.7499951765244,
149,66,28,M,1,3,141.0,27,2,high,8 + 1 + 9 + 1 - 4,15,14,15,16,2377.40508060006,2379.431202200009,2380.946359900059,2385.96427300002,2387.6664770999923,2387.666482800036,2389.1829923000187,2390.200370699982,w,15.0,1.7022040999727324,1,+10,509,-4.666381597541054,30.260340894423052,18.78057714226991,2375451.0,11.15213910983689,-0.8740771791568491,-0.16975474066618013,2378984.0,,,,,2380.9419951765244,2377.4089951765245,
150,66,28,M,1,3,142.0,28,3,low,4 + 7 - 3 + 5 - 1,12,11,13,12,2391.717096599983,2393.7445329000475,2395.259492099984,2400.2782698000083,2402.906540099997,2402.9065462000435,2404.4235273000086,2405.4402544000186,e,12.0,2.628270299988799,1,+1,510,3.8056986680859843,0.027853060650206984,0.02007184257657757,2389764.0,5.777916047297417,0.02945267870344459,0.07907543614854329,2393298.0,,,,,2395.2559951765243,2391.7219951765246,
151,66,28,M,1,3,143.0,29,1,low,3 + 1 + 9 + 1 + 1,15,15,17,14,2406.957916800049,2408.98427190003,2410.499488300062,2415.518533100025,2416.354477000073,2416.3544827000005,2417.8709118000697,2418.887898999965,q,15.0,0.8359439000487328,1,+1,511,-17.06712539483943,0.770352740688073,0.14412081895090645,2405004.0,-29.458983273112352,0.11582248370203718,0.21412893077895334,2408538.0,,,,,2410.4959951765245,2406.9619951765244,
152,66,28,M,1,3,144.0,30,2,low,8 + 1 + 9 + 1 - 5,14,13,15,14,2420.4050696999766,2422.432193399989,2423.94743629999,2428.9656060000416,2429.706510600052,2429.706515899976,2431.2237330999924,2432.241112400079,e,14.0,0.7409046000102535,1,+1,512,-10.6131370144173,0.14351613766175753,0.16130772240039937,2418452.0,9.63661497366876,-0.02862275049300589,-0.13203748499658463,2421986.0,,,,,2423.9439951765244,2420.4099951765247,
153,66,28,M,1,3,145.0,31,3,low,9 - 1 + 5 - 6 + 8,15,17,15,14,2433.7575545000145,2435.7842804000247,2437.2991804999765,2442.318382399972,2446.002484000055,2446.002489699982,2447.519944000058,2448.537272299989,e,14.0,3.6841016000835225,0,+0,512,21.77336697137833,0.476384929769313,0.11350737103607433,2431804.0,-37.503201103337226,-0.32428476971493403,-0.2544101787530466,2435338.0,,,,,2437.2959951765247,2433.7619951765246,
154,66,28,M,1,3,146.0,32,3,low,4 + 1 + 8 + 9 - 5,17,17,18,19,2450.0540085000684,2452.0767316999845,2453.592034499976,2458.6105370000005,2459.9143565000268,2459.9143616000656,2461.431084500044,2462.448399199988,q,17.0,1.303819500026293,1,+1,513,-28.518251725177052,0.4983230204101501,9.789037775400983,2448097.0,35.4227454449061,-0.6697819166326693,-1.0321094096666248,2451630.0,,,,,2453.5879951765246,2450.0549951765247,
155,66,28,M,1,3,147.0,33,3,high,2 + 9 + 1 - 5 + 7,14,15,14,12,2463.9654462999897,2465.988571200054,2467.503772599972,2472.5228910000296,2473.866523600067,2473.86652879999,2475.3831923999824,2476.400538500049,w,14.0,1.343632600037381,1,+10,523,-21.367349458628745,0.08874336314255205,0.12340060323711599,2462008.0,-25.810988967835705,0.22595590636031115,-0.03986470958904498,2465542.0,,,,,2467.4999951765244,2463.9659951765243,
156,66,28,M,1,3,148.0,34,3,low,7 + 1 + 9 + 5 - 6,16,16,15,14,2477.917774499976,2479.9395637999987,2481.454818499973,2486.473987800069,2488.754467100021,2488.754472400062,2490.2710279000457,2491.2883448000066,e,14.0,2.280479299952276,0,+0,523,-19.087463317829986,0.5288658903058545,-0.1379136584007412,2475959.0,-29.991854056533803,-0.09157153628089265,0.2110759327472027,2479493.0,,,,,2481.4509951765244,2477.9169951765243,
157,66,28,M,1,3,149.0,35,4,high,6 + 7 + 9 - 3 + 5,24,24,23,22,2492.8051214000443,2494.827372199972,2496.3423438000027,2501.360653700074,2504.034338199999,2504.034343400039,2505.550762800034,2506.568103200057,q,24.0,2.6736844999250025,1,+10,533,-44.98333786121292,38.33643563925263,18.87232953568356,2490847.0,8.850411452492047,-0.9747686568568432,-0.19718209795877506,2494380.0,,,,,2496.3379951765246,2492.8049951765247,
158,66,28,M,1,3,150.0,36,1,low,8 + 1 + 1 - 1 - 4,5,5,3,6,2508.0857412000187,2510.110022500041,2511.6252200000454,2516.644963699975,2517.386274700053,2517.386279599974,2518.902467100066,2519.9193419000367,q,5.0,0.7413110000779852,1,+1,534,7.882776888899698,-0.004816328071466369,0.07394597168788675,2506129.0,4.956727911985162,-0.10601992127683424,-0.003718719842599416,2509664.0,,,,,2511.6219951765247,2508.0869951765244,
159,66,28,M,1,3,151.0,37,4,high,5 + 9 - 4 + 7 + 6,23,25,24,23,2521.4359559000004,2523.4635879000416,2524.9788355000783,2529.9975352999754,2532.1462829000084,2532.1462884000503,2533.6627500000177,2534.6798265000107,w,24.0,2.148747600032948,0,+0,534,1.5010098859027106,-0.23713512013007598,0.026103451853432436,2519483.0,-44.54640422026443,0.10587477789210276,3.3554538931679416,2523017.0,,,,,2524.9749951765243,2521.4409951765247,
160,66,28,M,1,4,152.0,0,4,high,4 + 7 - 8 + 9 - 3,9,9,11,8,2615.6946943000657,2617.721315299976,2619.236592200002,2624.256925099995,2624.9862408000045,2624.986246100045,2626.502394500072,2627.519512400031,q,9.0,0.7293157000094652,1,+10,544,20.332442626821233,-18.877760380752157,-23.364806998928458,2613741.0,-49.23996514229786,-1.1628419137780703,4.620698712777238,2617276.0,,,,,2619.2339951765243,2615.6989951765245,
161,66,28,M,1,4,153.0,1,1,high,4 + 9 + 1 - 1 - 1,12,12,11,13,2629.0364152999828,2631.0625064000487,2632.577749000048,2637.595379500068,2638.514267700026,2638.5142728000646,2640.030446200049,2641.0476118000224,q,12.0,0.918888199958019,1,+10,554,9.07802870496549,-0.519449374411685,-6.23291427146936,2627082.0,-1.1612884298131192,7.934986935137198,3.2863621558923253,2630615.0,,,,,2632.5729951765243,2629.0399951765244,
162,66,28,M,1,4,154.0,2,1,high,7 + 1 + 6 + 1 + 1,16,18,17,16,2642.565475300071,2644.5923285000026,2646.1073105999967,2651.1257175999926,2652.36222130002,2652.36222660006,2653.8786673999857,2654.8958249000134,e,16.0,1.2365037000272423,1,+10,564,28.00633713512142,-2.664570916248918,-0.36113847602156923,2640612.0,4.452799425128205,0.2542158490252122,1.9338533987893909,2644145.0,,,,,2646.1029951765245,2642.5699951765246,
163,66,28,M,1,4,155.0,3,1,high,7 - 1 + 9 + 1 - 1,15,14,13,15,2656.413455400034,2658.439683199977,2659.9548361999914,2664.973330400069,2667.178201499977,2667.178207500023,2668.6945913999807,2669.7115434000734,w,13.0,2.204871099907905,0,+0,564,17.560912812957994,0.4303632117445333,0.6604506594852562,2654459.0,-9.189268991253835,-0.002276507738979472,0.379362614905856,2657993.0,,,,,2659.9509951765244,2656.4169951765243,
164,66,28,M,1,4,156.0,4,1,low,8 + 1 + 1 + 1 - 4,7,5,7,8,2671.2283558000345,2673.25520080002,2674.770465300069,2679.788152200053,2683.010238100076,2683.0102437000023,2684.5267714000074,2685.5436553000472,w,7.0,3.2220859000226483,1,+1,565,-11.873099710405517,0.4193998295182708,5.749879086866747,2669274.0,7.488149449907548,-6.821339891695242,-3.8658233836416036,2672808.0,,,,,2674.7659951765245,2671.2319951765244,
165,66,28,M,1,4,157.0,5,3,high,3 + 1 + 6 - 8 + 9,11,11,12,13,2687.06001190003,2689.0867054000264,2690.6019545000745,2695.6206922000274,2696.6822247999958,2696.6822306000395,2698.1988666000543,2699.2161403000355,q,11.0,1.0615325999679044,1,+10,575,-1.0854506092155418,-0.10334649390191908,0.0729946779191728,2685106.0,-10.809419879222643,-0.10189743816410424,-0.0331505587238099,2688640.0,,,,,2690.5979951765244,2687.0639951765247,
166,66,28,M,1,4,158.0,6,4,low,3 + 8 - 5 + 9 - 7,8,7,6,8,2700.732922299998,2702.758848299971,2704.2740387000376,2709.2922084999736,2711.066139600007,2711.0661453000503,2712.58278320008,2713.5999027000507,w,6.0,1.7739311000332236,0,+0,575,-5.218749483926157,0.4390387215943159,-0.16445869827360848,2698778.0,-23.257414203188837,0.025989890313226738,0.16870029082253946,2702312.0,,,,,2704.2699951765244,2700.7359951765243,
167,66,28,M,1,4,159.0,7,2,high,5 + 8 + 1 - 1 + 9,22,22,21,23,2715.116659500054,2717.1413522000657,2718.6566097000614,2723.6745121000567,2727.3302102000453,2727.330215999973,2728.846359200077,2729.8636283000237,q,22.0,3.6556980999885127,1,+10,585,-22.74986263685134,-0.5822884243587878,-0.03888882878214206,2713161.0,-19.212228901706013,-0.3922280483791458,-0.12482164309039101,2716694.0,,,,,2718.6519951765245,2715.1189951765245,
168,66,28,M,1,4,160.0,8,3,high,3 + 8 + 1 + 5 - 9,8,7,9,8,2731.380649800063,2733.409515400068,2734.924644100014,2739.9435607000487,2741.618160000071,2741.618165699998,2743.1348313000053,2744.152025400079,e,8.0,1.674599300022237,1,+10,595,-13.443098938620714,0.11244975165732551,0.12446570743981056,2729429.0,-17.081833448092496,0.005688273204393912,0.08579458717312693,2732963.0,,,,,2734.9209951765247,2731.3869951765246,
169,66,28,M,1,4,161.0,9,3,low,5 - 1 - 4 + 6 + 7,13,13,15,14,2745.668747900054,2747.6926027999725,2749.2079099999974,2754.226266700076,2755.1941987000173,2755.194204800064,2756.7108039000304,2757.727281200001,q,13.0,0.9679319999413564,1,+1,596,-40.73579499961366,-0.03593513718935748,-0.08407011596261871,2743712.0,21.161251545103028,-0.25942002488784466,-0.07426741302024609,2747245.0,,,,,2749.2029951765244,2745.6699951765245,
170,66,28,M,1,4,162.0,10,4,low,5 + 7 - 4 + 6 + 9,23,25,23,24,2759.2445103999926,2761.272321800003,2762.7875955000054,2767.805954199983,2770.946086000069,2770.9460915999957,2772.463135399972,2773.480439900072,e,24.0,3.140131800086237,0,+0,596,14.835548715268093,-0.029817070956631664,0.2377771162962885,2757291.0,40.118726102274685,0.19185008711426832,0.02970855094182845,2760825.0,,,,,2762.7829951765243,2759.2489951765247,
171,66,28,M,1,4,163.0,11,2,high,9 + 4 + 5 + 1 - 1,18,19,17,18,2774.997288100072,2777.022092600004,2778.537180299987,2783.556861900026,2784.594110000064,2784.594115999993,2786.111261700047,2787.1382015000563,e,18.0,1.0372481000376863,1,+10,606,21.173096753378523,-0.09936832586512434,-2.5869600981846634,2773041.0,26.92207131104859,2.0338384464603507,1.0362204361842138,2776575.0,,,,,2778.5329951765243,2774.9989951765247,
172,66,28,M,1,4,164.0,12,3,high,4 + 1 + 8 + 9 - 5,17,19,17,18,2788.654833300039,2790.6811740000267,2792.196371500031,2797.214639300015,2799.570050499984,2799.5700558000244,2801.087023400003,2802.104028700036,w,17.0,2.3554111999692395,1,+10,616,24.131712718151554,-0.010277131904581793,0.038253773687501935,2786700.0,-11.855182837489252,0.010351279387765366,-0.07297443232056788,2790234.0,,,,,2792.1919951765244,2788.6579951765243,
173,66,28,M,1,4,165.0,13,1,low,6 + 1 + 8 + 1 - 1,15,13,14,15,2803.6209076000378,2805.648552900064,2807.163729300024,2812.1818613000214,2813.042032900033,2813.0420387000777,2814.559376799967,2815.576285200077,e,15.0,0.8601716000121087,1,+1,617,30.818861590537896,0.5063727281415473,-1.6280397775869004,2801668.0,24.14303746667728,-0.02930553705827732,0.045744409317036716,2805201.0,,,,,2807.1589951765245,2803.6259951765246,
174,66,28,M,1,4,166.0,14,2,low,9 + 1 + 6 + 7 + 1,24,23,25,24,2817.0930281999754,2819.1207800999982,2820.635929999989,2825.653399500065,2830.6714066000422,2830.671409400064,2832.187963400036,2833.2066973000765,,,,0,Too Slow!,617,21.447765445529583,-0.3134491591087607,0.17775013324270583,2815140.0,7.634537279578987,-0.3963773827424255,-0.20898800815934204,2818673.0,,,,,2820.6309951765243,2817.0979951765244,
175,66,28,M,1,4,167.0,15,1,high,5 + 6 + 1 + 1 + 1,14,14,16,15,2834.723297000048,2836.747034200001,2838.2624389000703,2843.2801411000546,2843.961990199983,2843.9619955000235,2845.478537100018,2846.4955301000737,q,14.0,0.6818490999285132,1,+10,627,-23.730000046135014,0.029146925010949953,0.054024390667081645,2832766.0,0.9343821755668564,-0.2703312746099895,0.25405244220972745,2836299.0,,,,,2838.2569951765245,2834.7239951765246,
176,66,28,M,1,4,168.0,16,2,high,4 + 9 - 7 + 1 - 1,6,8,6,5,2848.0132577000186,2850.040816599969,2851.555795000051,2856.575038400013,2859.145957499976,2859.145963600022,2860.663237400004,2861.680418999982,e,5.0,2.570919099962339,0,+0,627,-41.3232581587161,-0.06736111915176357,0.02371885831526921,2846060.0,11.06664798682716,0.14094581977249954,-0.04280404843817398,2849594.0,,,,,2851.5519951765245,2848.0179951765244,
177,66,28,M,1,4,169.0,17,2,low,7 + 1 + 9 - 1 - 8,8,8,6,7,2863.1971884999657,2865.2234144000104,2866.738578199991,2871.756783799967,2872.706003100029,2872.706008300069,2874.22237069998,2875.238997300039,q,8.0,0.9492193000623956,1,+1,628,5.311634126793138,0.2109058019562675,0.8929848077921005,2861242.0,-26.703898751413206,-0.020984354568762686,-1.085004999846503,2864776.0,,,,,2866.7339951765243,2863.1999951765247,
178,66,28,M,1,4,170.0,18,4,low,3 + 8 - 7 + 9 - 5,8,9,8,7,2876.756086600013,2878.781481400016,2880.296563800075,2885.3151848000707,2887.6099655000726,2887.609970699996,2889.1265173000284,2890.143030200037,w,8.0,2.2947807000018656,1,+1,629,10.473523928534663,-0.6319914974690177,-2.7576441906002978,2874801.0,62.37462596761881,0.37397895854219554,-0.48683426056848633,2878334.0,,,,,2880.2919951765243,2876.7589951765244,
179,66,28,M,1,4,171.0,19,3,high,4 + 5 - 3 + 7 - 1,12,13,11,12,2891.66001360002,2893.688308299985,2895.203308900004,2900.221843700041,2902.418050399981,2902.418056000024,2903.9346412000014,2904.952133500017,e,12.0,2.196206699940376,1,+10,639,-0.8846254774710771,-0.3796264763014716,-2.4696780990389535,2889707.0,-24.962842081399348,0.03198599321954321,0.14899730393729382,2893241.0,,,,,2895.1989951765245,2891.6649951765244,
180,66,28,M,1,4,172.0,20,3,low,3 + 8 - 7 + 1 + 9,14,12,14,13,2906.469653100008,2908.4940669999924,2910.0087968000444,2915.0275770999724,2916.0100583999883,2916.010064100032,2917.526768799988,2918.544454200077,w,14.0,0.9824813000159338,1,+1,640,13.199552204798971,-27.398114726455784,-19.505613639700265,2904513.0,-13.924378062332996,-0.7444665913250779,0.11178944055412599,2908046.0,,,,,2910.0039951765243,2906.4709951765244,
181,66,28,M,1,4,173.0,21,4,low,7 + 8 - 4 + 6 + 5,22,23,21,22,2920.061633300036,2922.087426400045,2923.6026537000434,2928.621005599969,2930.5619233000325,2930.561929000076,2932.0784306999994,2933.096209399984,w,21.0,1.9409177000634368,0,+0,640,-6.162290111148973,0.18906385803496661,-0.07806380040577565,2918107.0,-9.702399067187471,0.18989618764909544,0.08370482347214603,2921640.0,,,,,2923.5979951765244,2920.0649951765245,
182,66,28,M,1,4,174.0,22,1,high,2 + 1 + 9 + 1 - 1,12,11,13,12,2934.6129372,2936.6415338000515,2938.1569146000547,2943.175600000075,2944.265983100049,2944.265988799976,2945.782504300005,2946.799898499972,e,12.0,1.090383099974133,1,+10,650,-24.842853842130676,11.424944393402786,10.045566463812772,2932659.0,22.346944786422753,0.21249503549835325,0.11599644962277678,2936194.0,,,,,2938.1519951765245,2934.6169951765246,
183,66,28,M,1,4,175.0,23,4,low,8 + 4 + 7 - 5 - 6,8,6,9,8,2948.316776599968,2950.344557099976,2951.859695699997,2956.8782478000503,2958.3538829999743,2958.353888100013,2959.870662900037,2960.8874967000447,e,8.0,1.4756351999239996,1,+1,651,3.96411974918621,-0.32667352882560063,-0.06908758474021592,2946363.0,25.320005740793125,-0.15611983678067798,0.08051070654947035,2949897.0,,,,,2951.8549951765244,2948.3209951765243,
184,66,28,M,1,4,176.0,24,4,low,4 + 7 - 8 + 9 - 4,8,9,8,7,2962.4045277000405,2964.427344799973,2965.942545600002,2970.961031000013,2972.969963600044,2972.9699691999704,2974.48647350003,2975.5033027000027,q,9.0,2.0089326000306755,0,+0,651,-15.860299647443053,0.1890304383923711,0.5983301354706096,2960447.0,2.623802722520537,-0.15778201728335617,-0.11362635249628283,2963980.0,,,,,2965.9379951765245,2962.4049951765246,
185,66,28,M,1,4,177.0,25,1,low,9 + 1 + 1 + 7 - 1,17,17,19,16,2977.020703700022,2979.048191000009,2980.5634348000167,2985.581590899965,2986.609815499978,2986.60982100002,2988.183080499992,2989.1999297,q,17.0,1.0282246000133457,1,+1,652,18.534165101661472,2.5839839166745886,-0.05288205978389415,2975067.0,6.0424702798102885,-1.476677694218953,2.219754474351929,2978601.0,,,,,2980.5589951765246,2977.0249951765245,
186,66,28,M,1,4,178.0,26,2,low,2 + 1 + 9 - 4 + 1,9,8,9,11,2990.71720980003,2992.7454276999924,2994.26061950007,2999.278904100065,3000.249852600042,3000.2498580999672,3001.766671400052,3002.7835536000784,w,9.0,0.9709484999766572,1,+1,653,-36.24696630876762,-2.1462301547208718,-4.411352211183734,2988764.0,-44.02749273666694,0.2034706155827002,1.0109156897433063,2992298.0,,,,,2994.2559951765243,2990.7219951765246,
187,66,28,M,1,4,179.0,27,2,high,3 + 8 + 1 - 5 + 1,8,8,9,6,3004.300321000046,3006.3265008999733,3007.841583700036,3012.8606842000736,3015.6578358999686,3015.6578413000097,3017.1743525000056,3018.191768400022,e,6.0,2.797151699895039,0,+0,653,5.240526499191236,0.07685340812658481,-0.2693063330896788,3002345.0,1.6700318824930847,-0.5736444302955679,-0.09802679490298916,3005880.0,,,,,3007.8379951765246,3004.3029951765243,
188,66,28,M,1,4,180.0,28,2,high,5 + 7 - 8 + 1 + 1,6,6,8,7,3019.712876899983,3021.7360099999933,3023.250889000017,3028.2703988000285,3029.1058907000115,3029.105896000052,3030.6225631000707,3031.639918199973,q,6.0,0.8354918999830261,1,+10,663,26.947414259195476,2.667393193471555,4.351525015579815,3017755.0,5.122103348193485,-1.0871549099447217,-0.4471443432002826,3021288.0,,,,,3023.2459951765245,3019.7129951765246,
189,66,28,M,1,4,181.0,29,4,high,8 + 7 - 4 + 5 + 9,25,25,26,24,3033.156807600055,3035.182383300038,3036.6976311000763,3041.716241799993,3043.3858135000337,3043.385818800074,3044.9025246000383,3045.9197826000163,w,26.0,1.669571700040251,0,+0,663,-9.17090238041226,0.16591258564442146,4.438873170331392,3031201.0,8.314242428340442,0.1082967377941082,0.5369086793614388,3034735.0,,,,,3036.6929951765246,3033.1589951765245,
190,66,28,M,1,4,182.0,30,1,low,5 + 1 + 1 + 9 + 1,17,17,16,19,3047.4361702000024,3049.4633491999703,3050.978562799981,3055.9960801000707,3057.2497838999843,3057.249790700036,3058.766696200008,3059.783571399981,q,17.0,1.2537037999136371,1,+1,664,5.38065124093597,-3.842676008673386,-3.3830161891968933,3045482.0,6.094179467160107,0.007747474086679418,-0.33408664498974083,3049015.0,,,,,3050.9729951765244,3047.4399951765245,
191,66,28,M,1,4,183.0,31,1,high,2 + 1 + 9 + 1 + 1,14,14,13,12,3061.300374899991,3063.3266660000663,3064.842027300037,3069.861286800005,3070.6658289000625,3070.665834299987,3072.182502200012,3073.200473000062,q,14.0,0.8045421000570059,1,+10,674,1.5297470430983449,0.1266824498441541,-0.0075161407321884255,3059345.0,21.618185827406947,-0.12606286992558458,0.06885894975119067,3062880.0,,,,,3064.8379951765246,3061.3029951765243,
192,66,28,M,1,4,184.0,32,1,low,6 + 1 + 1 + 9 - 1,16,15,16,14,3074.717271400033,3076.7445680999663,3078.2596590999747,3083.2778160000453,3084.1137343000155,3084.1137398000574,3085.630126400036,3086.6472324000206,w,16.0,0.835918299970217,1,+1,675,-10.335516049213538,0.21710342787285875,0.0687346707406955,3072763.0,24.502562059810312,0.5587548934377966,0.10855730552860399,3076296.0,,,,,3078.2539951765243,3074.7209951765244,
193,66,28,M,1,4,185.0,33,1,high,7 + 1 + 5 + 1 - 1,13,12,13,14,3088.164560100064,3090.190247499966,3091.7055706999963,3096.7388745000358,3097.7377619000617,3097.737766999984,3099.2549954999704,3100.2720646000234,w,13.0,0.9988874000264332,1,+10,685,-29.23132535903572,-0.1504776245703603,0.056101718258058764,3086209.0,16.570246200305483,-0.3380035170255482,0.1644785002217901,3089757.0,,,,,3091.7149951765246,3088.1669951765243,
194,66,28,M,1,4,186.0,34,1,high,6 + 1 + 1 + 7 - 1,14,13,12,14,3101.7888378000357,3103.8132956000045,3105.3284532000544,3110.347426000051,3111.161769600003,3111.1617752000457,3112.67804899998,3113.6949061000487,e,14.0,0.814343599951826,1,+10,695,9.951603232153822,0.05111091767744913,0.209417556672868,3099832.0,12.41917720665504,-0.06154417006867119,0.08858208172356008,3103366.0,,,,,3105.3239951765245,3101.7899951765244,
195,66,28,M,1,4,187.0,35,3,low,6 + 1 + 8 + 7 - 9,13,15,14,13,3115.21147400001,3117.235987100052,3118.751247300068,3123.7696717999643,3124.649708000012,3124.649713400053,3126.1664910999825,3127.184174300055,e,13.0,0.8800362000474706,1,+1,696,-14.07325664108313,-0.3331290195026839,0.025210159279109412,3113255.0,-5.522514719485514,-0.4478481465302906,1.6451896553830831,3116788.0,,,,,3118.7459951765245,3115.2129951765246,
196,66,28,M,1,4,188.0,36,2,high,3 - 1 + 9 - 5 + 1,7,7,5,6,3128.7014683000743,3130.726865099976,3132.242953700013,3137.260820699972,3138.497702899971,3138.4977086000144,3140.0146358000347,3141.032099700067,e,6.0,1.236882199998945,0,+0,696,2.185776002325712,0.04300296473887544,-0.20885858487234144,3126745.0,10.114915221799787,-0.3717397102953157,0.24709532159080405,3130280.0,,,,,3132.2379951765247,3128.7029951765244,
197,66,28,M,1,4,189.0,37,4,high,2 + 5 - 3 + 9 + 8,21,21,19,22,3142.5496921000304,3144.577621900011,3146.092913200031,3151.113085100078,3154.177754400065,3154.17775979999,3155.694368700031,3156.71161540004,w,19.0,3.0646692999871448,0,+0,696,20.48519566173703,0.09579040769810199,-0.7857227982351906,3140596.0,-31.045742051478932,-0.20971129693840407,0.3701222879143091,3144132.0,,,,,3146.0899951765246,3142.5539951765245,
198,66,28,M,1,5,190.0,0,1,low,8 + 1 + 4 + 1 + 1,15,15,14,16,3195.7578144000145,3197.785113000078,3199.3002165000653,3204.3191773999715,3205.281721599982,3205.281727700029,3206.798152000061,3207.81559880008,q,15.0,0.9625442000105976,1,+1,697,-17.33654378365322,13.65587862619389,6.714370773031105,3193804.0,17.24122746198703,-1.8847365536806415,-0.07768133930978571,3197338.0,,,,,3199.2959951765247,3195.7619951765246,
199,66,28,M,1,5,191.0,1,1,low,3 + 1 + 1 + 8 - 1,12,13,12,14,3209.3326908000745,3211.3550078000408,3212.870004200028,3217.887880500057,3218.897640299984,3218.8976461000275,3220.414334299974,3221.431254700059,w,12.0,1.0097597999265415,1,+1,698,9.82844654057883,0.13134987815696597,0.8254871469866458,3207373.0,24.379446829696246,-0.07320877635246781,-0.2255790883717772,3210907.0,,,,,3212.8649951765246,3209.3309951765245,
