,id,age,sex,cued,block,trial,trialinblock,efflev,rewlev,calc,corAns,option1,option2,option3,tstart,ITI1Time,probTime,respTime,selectTime,ITI2Time,fbTime,ITI3Time,key_press,chosenAns,RT,acc,feedback,total_points,cuescr,cuecor,cuezyg,cuetime,probscr,probcor,probzyg,probtime,fbscr,fbcor,fbzyg,fbtime,probtime_c,cuetime_c,fbtime_c
0,67,25,m,0,Practice,,0,1,0,4 + 1 + 9 + 1 + 1,16,15,14,16,24.18661910004448,,24.186621300061237,29.213699100073427,30.782642300007865,30.78264890005812,32.29986260004807,33.32078690000344,e,16,1.568943199934438,1,Correct,0,,,,,11.2000786503087,-0.027217539535435264,-0.002882503217771948,23289.0,-16.206393533107544,0.003410867902020165,0.07814815414617393,31396.0,24.199886918042207,,32.30688691804221
1,67,25,m,0,Practice,,1,1,0,3 + 1 + 1 + 8 - 1,12,10,11,12,34.837548900046386,,34.83755200006999,39.85860849998426,44.15057560009882,44.1505821000319,45.66803040006198,46.686438400065526,e,12,4.291967100114562,1,Correct,0,,,,,-27.694396647564428,-0.34321714264510206,-0.01967829221515416,33933.0,-3.0822304634935342,0.5455201845524242,0.8207590678740684,44761.0,34.84388691804221,,45.67188691804221
2,67,25,m,0,Practice,,2,2,0,8 + 1 + 6 + 1 - 4,12,11,10,12,48.20439660002012,,48.2044034000719,53.22464340005536,58.07858120009769,58.07858730002772,59.59576709999237,60.61384550004732,e,12,4.853937800042331,1,Correct,0,,,,,-0.3704393429381643,0.13703578837332575,-0.1795264858914991,47299.0,-13.424929737471148,0.8168715786679228,-0.010848494399958053,58689.0,48.20988691804221,,59.59988691804221
3,67,25,m,0,Practice,,3,2,0,9 + 4 - 6 + 1 - 1,7,6,7,5,62.13138060003985,,62.13138350006193,67.15154089999851,69.31835050007794,69.3183568000095,70.83577860007063,71.85302929999307,w,7,2.166809600079432,1,Correct,0,,,,,-12.483589001507571,0.10329599115545429,0.02304784604390342,61227.0,18.471831935365184,-0.24823892291850713,-0.18797172559737008,69928.0,62.137886918042206,,70.8388869180422
4,67,25,m,0,Practice,,4,3,0,9 + 3 - 5 + 6 + 7,20,21,22,20,73.36982950009406,,73.36983250000048,78.38890550006181,79.7423624000512,79.74236909998581,81.25888340000529,82.27602600003593,e,20,1.3534568999893963,1,Correct,0,,,,,16.566999764856533,-0.03877372957627756,-0.021223947960112177,72464.0,19.627973292721755,-0.4367096963536543,-0.34747385425374255,80351.0,73.37488691804221,,81.26188691804221
5,67,25,m,0,Practice,,5,3,0,2 + 1 + 9 - 7 + 6,11,9,10,11,83.79300050006714,,83.79300350008998,88.81218910007738,89.85446060006507,89.85446719999891,91.37236680008937,92.3906343000708,e,11,1.0422714999876916,1,Correct,0,,,,,-5.583426357862569,0.23153727043624217,0.044091299129097594,82887.0,4.588931974994685,0.120742781974017,0.02140246862810624,90465.0,83.79788691804221,,91.37588691804221
6,67,25,m,0,Practice,,6,4,0,4 + 8 + 5 - 3 + 7,21,22,21,23,93.9075224000262,,93.90752540004904,98.92809180007316,102.4544885000214,102.45449490007012,103.97147640003824,104.99174780002797,q,22,3.5263966999482363,0,Incorrect,0,,,,,37.64952030422655,0.1415780715506605,0.183920654727316,93003.0,15.575975296193903,0.37919812526923824,0.25000106826299495,103067.0,93.91388691804221,,103.9778869180422
7,67,25,m,0,Practice,,7,4,0,5 + 8 - 4 + 6 + 9,24,22,23,24,106.5088332000887,,106.50883659999818,111.5290731000714,112.92656510008965,112.92657150002196,114.44355120009276,115.46172390005086,e,24,1.3974920000182465,1,Correct,0,,,,,-34.138291472090955,0.17704900162726123,0.17859403719700184,105604.0,5.027199828576267,0.37255784903725253,-0.04522324330809857,113536.0,106.51488691804221,,114.44688691804221
8,67,25,m,1,0,0.0,0,3,low,3 + 8 - 7 + 1 + 9,14,14,13,12,205.59591340005863,207.62275370000864,209.1380807000678,214.15691360004712,215.88402560004036,215.8840307000792,217.40073960006703,218.4177284000907,e,12,1.7271119999932123,0,+0,0,15.49314504559381,0.6567976090067256,0.1084296386627146,204697.0,19.752126139119763,0.8972533419134567,0.22233557990113018,208231.0,-13.31615920734372,0.20445249048062664,0.3424466663371557,286708.0,209.1418869180422,205.6078869180422,287.6188869180422
9,67,25,m,1,0,1.0,1,1,high,3 + 1 + 8 - 1 + 1,12,12,10,13,219.93448830000125,221.95681360003076,223.47211910004265,228.49026290001348,229.7240146000404,229.72401980008,231.2407325000968,232.2589998000767,q,12,1.2337517000269145,1,+10,10,6.196735159035594,0.12031776504381275,0.1025029720295958,219031.0,-26.386978176398475,-0.06889154717592039,0.2114520899170358,222565.0,-2.3756832956011493,-0.26393451571093607,0.07979494647052432,230332.0,223.4758869180422,219.9418869180422,231.2428869180422
10,67,25,m,1,0,2.0,2,1,low,4 + 9 + 1 - 1 - 1,12,12,13,11,233.77583679999225,235.80025339999705,237.31517800001893,242.33344720001327,243.4360304999864,243.43603580002676,244.9528210000135,245.96967200003564,q,12,1.1025832999730485,1,+1,11,2.430091571111305,0.4238897293766941,0.035309147073657066,232874.0,4.699292495965903,0.32289344584143986,0.04524052578198079,236408.0,7.175397355037831,-0.3457739822255941,0.06679355749315885,244044.0,237.31888691804218,233.7848869180422,244.9548869180422
11,67,25,m,1,0,3.0,3,4,low,6 + 9 + 7 - 3 - 5,14,15,14,13,247.52802670001984,249.5548508000793,251.0700243000174,256.08882430009544,258.62791000003926,258.6279149000766,260.14402330003213,261.1612835000269,e,13,2.5390856999438256,0,+0,11,42.516969925372585,2.140956300524156,0.0578547540643799,246628.0,23.187957820661175,0.8848006822141139,0.1604142663724164,250163.0,-53.88887330989531,-0.48998879310269494,-0.0030240161514580866,372652.0,251.0738869180422,247.53888691804218,373.5628869180422
12,67,25,m,1,0,4.0,4,1,low,7 + 1 + 4 + 1 - 1,12,13,12,11,262.6782668000087,264.7023869000841,266.217427900061,271.23752750002313,272.4598666999955,272.45987200003583,273.9761654000031,274.9931512000039,w,12,1.222339199972339,1,+1,12,13.975445709228833,-0.2383073000151068,0.09147332488156046,261777.0,18.541184159794142,0.3387132997705593,-0.06087139916767237,265312.0,28.348897297389374,-0.6227593317967943,0.00038505802135957445,273067.0,266.2228869180422,262.6878869180422,273.9778869180422
13,67,25,m,1,0,5.0,5,3,high,5 + 6 + 7 - 1 - 9,8,9,7,8,276.50988530006725,278.5373009000905,280.05249470006675,285.07125909999013,286.0999187000561,286.09992390009575,287.6164463000605,288.6334179000696,e,8,1.028659600066021,1,+10,22,31.22948141956648,0.4806520564195771,0.011807962251878079,275611.0,8.741792311463023,0.7011821109726264,0.16143077010446683,279145.0,-2.068152692604972,-0.14075654931476977,-0.10550542169206212,402244.0,280.0558869180422,276.5218869180422,403.1548869180422
14,67,25,m,1,0,6.0,6,1,high,6 + 1 + 1 + 7 - 1,14,12,13,14,290.1502783000469,292.17469840007834,293.6898102000123,298.70907480001915,300.0519210000057,300.0519265000476,301.5684891000856,302.5862172000343,e,14,1.3428461999865249,1,+10,32,-2.9561750254750194,0.09910819323310083,0.02157186432227265,289249.0,14.19392031075863,0.18805375959321324,-0.0300745302423584,292783.0,-13.405132574590688,0.112984728914165,0.017112382650423807,300660.0,293.6938869180422,290.1598869180422,301.5708869180422
15,67,25,m,1,0,7.0,7,4,high,5 + 8 - 4 - 6 + 9,12,14,13,12,304.1029641000787,306.12639079999644,307.6417112000054,312.66029280005023,315.9639216000214,315.96392720006406,317.48035610001534,318.498023900087,w,13,3.303628799971193,0,+0,32,-20.166531579468323,0.37235464500279347,-0.06424979685783927,303200.0,7.493429970640932,0.7252571616226917,0.1294863665723205,306734.0,22.51083763037191,-0.2973695405958474,0.05036532989333331,461555.0,307.6448869180422,304.1108869180422,462.4658869180422
16,67,25,m,1,0,8.0,8,2,low,3 - 1 + 9 - 5 + 1,7,5,7,6,320.0150049000513,322.0429780000122,323.5582460000878,328.578259000089,329.60381380002946,329.60381900006905,331.1206848000875,332.1375360999955,w,7,1.025554799940437,1,+1,33,-10.308678955258527,0.7976677552112839,0.09018650838086462,319117.0,-17.28964305392968,1.147145175389864,0.05704001525557523,322652.0,-21.316330073820104,0.234602137254869,-0.9987276350641956,330211.0,323.5628869180422,320.0278869180422,331.1218869180422
17,67,25,m,1,0,9.0,9,1,low,8 + 1 + 1 - 1 - 4,5,5,6,3,333.6543846999993,335.6810415000655,337.1963066000026,342.2147340000374,343.3878002000274,343.38780530006625,344.9040099000558,345.9208241000306,q,5,1.1730661999899894,1,+1,34,24.113327672957745,0.14020268921879442,-0.17614006566910612,332755.0,6.194686736822765,0.11332491456052818,0.21098187258205825,336289.0,5.860109360162539,0.14543230714371136,-0.23185118137244887,343995.0,337.1998869180422,333.6658869180422,344.9058869180422
18,67,25,m,1,0,10.0,10,4,high,8 + 3 - 4 + 5 + 9,21,21,22,23,347.4373013000004,349.464324300061,350.9796287000645,355.99788660008926,358.195844400092,358.1958494000137,359.7126092000399,360.72999390005134,w,22,2.1979578000027686,0,+0,34,0.4481317208893074,0.3598674335890548,0.009591224123308484,346538.0,3.7267713756298733,0.6494869713789995,0.07604518547331307,350072.0,21.438371017476257,-0.7110652982300061,0.06219445585741279,687067.0,350.9828869180422,347.4488869180422,687.9778869180423
19,67,25,m,1,0,11.0,11,4,low,8 + 7 - 4 + 5 + 9,25,26,24,25,362.2467019000324,364.2738258000463,365.7890971000306,370.8075578000862,372.0438086000504,372.0438135000877,373.5610762999858,374.5788622000255,e,25,1.236250799964182,1,+1,35,-16.273003872709154,1.0702135082729267,0.11470150808192314,361347.0,17.47128985828364,0.8326871731201155,0.10333254088782207,364881.0,16.245701837167708,-0.09026746718100576,0.01188079832000577,728490.0,365.79188691804217,362.2578869180422,729.4008869180423
20,67,25,m,1,0,12.0,12,2,high,2 + 9 - 4 + 1 + 1,9,9,11,8,376.0955901000416,378.1197998999851,379.6350518000545,384.6536151000764,387.763802700094,387.76381090004,389.2798272999935,390.2970862000948,q,9,3.1101876000175253,1,+10,45,15.70163695140282,0.5759824010058385,0.01067029315291923,375194.0,17.16613423464654,0.7034879201517055,0.023795501010642095,378727.0,3.153998884640937,-0.5880240411553279,0.1230441985849966,388371.0,379.63788691804217,376.1048869180422,389.2818869180422
21,67,25,m,1,0,13.0,13,3,low,7 + 1 + 9 + 5 - 6,16,14,15,16,391.8140320000239,393.8414517000783,395.3566121000331,400.3763244000729,401.6358317000559,401.63583690009546,403.153312999988,404.169884400093,e,16,1.2595072999829426,1,+1,46,-6.371912895305808,0.7981849844933206,0.11450006889589681,390915.0,-6.894653240744448,1.1070786709126081,-3.1247840307248973,394450.0,7.7212081134747965,-0.4695824881821853,0.035324030018518915,432915.0,395.3608869180422,391.8258869180422,433.8258869180422
22,67,25,m,1,0,14.0,14,4,high,2 + 9 - 3 + 5 + 8,21,23,22,21,405.6868274000008,407.71121400000993,409.2264978000894,414.2449625000591,416.8438600000227,416.8438656000653,418.36061259999406,419.3779252000386,q,23,2.598897499963641,0,+0,46,3.899816068037378,0.1687265752770366,0.279183493680774,404784.0,-8.0176378804866,0.5195183907026086,-0.04977005054253825,408319.0,-3.8614558292596355,0.07072541897841189,0.07537157194786692,894161.0,409.2298869180422,405.6948869180422,895.0718869180422
23,67,25,m,1,0,15.0,15,3,low,2 + 9 - 3 + 4 + 1,13,11,14,13,420.8945760000497,422.9200031000655,424.43534309999086,429.45395150000695,432.3077588999877,432.3077640000265,433.8244726000121,434.8412962000584,e,13,2.853807399980724,1,+1,47,-12.145839806579875,0.7334128363991512,0.3576179487837705,419993.0,-47.51346641574916,1.0958263418909917,0.21616569596785706,423528.0,-4.128941716177217,-0.2123271243992768,0.08997173665346248,446659.0,424.4388869180422,420.9038869180422,447.5698869180422
24,67,25,m,1,0,16.0,16,3,high,9 - 1 + 5 - 6 + 8,15,17,15,14,436.3573902000208,438.3842076000292,439.8992843000451,444.9172508000629,446.0517284000525,446.0517334000906,447.56825910008047,448.5855779000558,w,15,1.1344775999896228,1,+10,57,-22.53278463565755,0.4392609951997346,0.07841995330102813,435458.0,-29.94436809490391,0.8242309665015459,0.15062312073113815,438991.0,-15.952752311447915,0.1585392252862241,0.09752519621468303,531995.0,439.9018869180422,436.3688869180422,532.9058869180423
25,67,25,m,1,0,17.0,17,4,high,3 + 8 - 7 + 9 - 5,8,8,7,9,450.1025245999917,452.1273019000655,453.6425289000617,458.6613735000137,460.94774229999166,460.9477473000297,462.4642779000569,463.4816296000499,q,8,2.286368799977936,1,+10,67,9.666636151073156,0.5341356647059721,0.23565409564091966,449200.0,-45.52860156382206,0.6822209248775395,-0.11593407860796079,452735.0,7.9061750784884754,-0.3702955084060706,-0.09477876847240196,907873.0,453.6458869180422,450.1108869180422,908.7838869180423
26,67,25,m,1,0,18.0,18,1,low,5 + 1 + 1 + 9 + 1,17,17,16,19,464.9995257999981,467.0262984000146,468.5415947000729,473.559142800048,474.7078103000531,474.7078159000957,476.2245648000389,477.2417489000363,q,17,1.1486675000051036,1,+1,68,1.0023425891264814,0.7552874778064669,0.13444037559835165,464100.0,-27.768312524066356,0.6038529081161559,0.2300577881476007,467633.0,25.148698606581622,-0.05047623271764312,0.1865742169605853,475315.0,468.5438869180422,465.0108869180422,476.2258869180422
27,67,25,m,1,0,19.0,19,1,high,9 + 8 + 1 + 1 - 1,18,17,18,19,478.7585271000862,480.7855621000053,482.30093140003737,487.3190958000487,488.4758113999851,488.4758167000255,489.9924275000813,491.01002990000416,w,18,1.1567155999364331,1,+10,78,-6.776971428205428,-0.12585026216866346,-0.07919990315996683,477859.0,-44.68690613461723,0.3429423836590866,-4.637778497964377,481392.0,-39.658572967714356,-0.20514620183167542,0.07265199172320669,489083.0,482.3028869180422,478.7698869180422,489.9938869180422
28,67,25,m,1,0,20.0,20,4,low,7 + 8 - 4 + 6 - 5,12,11,13,12,492.5267177000642,494.5540550000733,496.0693373000249,501.0880735000828,503.92374960007146,503.9237545999931,505.44049920002,506.45769529999234,q,11,2.835676099988632,0,+0,78,-13.098598805976554,1.3680871705452269,-0.3384872842393465,491628.0,23.090017547273643,0.9089246169434069,0.03289060608644023,495161.0,17.65437750896848,-0.06417139607221856,-0.05232004839892612,1047712.0,496.0718869180422,492.5388869180422,1048.6228869180422
29,67,25,m,1,0,21.0,21,2,high,3 + 9 + 1 - 5 + 1,9,7,8,9,507.9747033000458,509.9965207000496,511.5122574000852,516.5304558000062,517.7076394000323,517.7076444000704,519.2241179000121,520.2413844000548,e,9,1.1771836000261828,1,+10,88,15.348185937719968,-0.3928104324733819,-0.8679817122873208,507070.0,11.834821123627782,0.6585242093178065,0.21655556003835885,510604.0,-10.164898835447556,-0.6839703521427318,0.020138184707891416,518315.0,511.5148869180422,507.9808869180422,519.2258869180423
30,67,25,m,1,0,22.0,22,3,high,6 - 1 + 7 - 8 + 9,13,12,11,13,521.7578058000654,523.7850097999908,525.3003142999951,530.3190462000202,531.3876739999978,531.3876790000359,532.9041908000363,533.9217064999975,e,13,1.0686277999775484,1,+10,98,-7.971559650687041,0.314942975239882,0.14411633995118867,520859.0,-10.52518014674546,0.7079789418200182,0.06555812926780002,524392.0,2.8937315644116026,0.06713193707720322,0.023519755785006202,587602.0,525.3028869180423,521.7698869180423,588.5128869180422
31,67,25,m,1,0,23.0,23,1,high,4 + 8 + 1 - 1 - 1,11,13,11,9,535.4383532000938,537.4627730000066,538.9778628000058,543.9962190000806,545.1797985000303,545.1798033000669,546.6958112000721,547.7131152000511,w,11,1.1835794999497011,1,+10,108,25.748831742183622,-0.4442325421880997,-0.06309804460132074,534536.0,15.49082686172773,0.07481970373601854,0.09275125088576952,538069.0,-55.726271758476294,-0.422629601470355,-0.007978212458467526,545786.0,538.9798869180422,535.4468869180422,546.6968869180422
32,67,25,m,1,0,24.0,24,2,low,8 + 1 + 4 - 7 + 1,7,6,7,5,549.2299278000137,551.2571102000074,552.77236120007,557.7918358000461,559.0516669000499,559.0516721000895,560.5682910000905,561.5851460000267,w,7,1.2598311000037938,1,+1,109,2.683813936273829,0.6483207009369103,0.09220162728227432,548329.0,5.949143364258238,0.8970915962959234,0.11156415456545599,551864.0,7.513474786579906,0.28833446230724835,-0.10629985041320889,559658.0,552.7748869180423,549.2398869180422,560.5688869180423
33,67,25,m,1,0,25.0,25,4,high,5 + 7 - 4 - 6 + 9,11,13,12,11,563.1019974000519,565.1297201000853,566.6450063000666,571.6639019000577,573.3876268999884,573.3876319000265,574.9044585000956,575.921857300098,q,13,1.7237249999307096,0,+0,109,17.48241389074449,0.5099138547953737,-0.038139667019396084,562203.0,11.637565191252524,0.6547269058951208,-0.09575471500374366,565737.0,23.999094733452033,-0.27364593043440655,0.14204782573176766,1355297.0,566.6478869180422,563.1138869180422,1356.2078869180423
34,67,25,m,1,0,26.0,26,3,low,4 + 1 + 8 + 9 - 5,17,19,17,18,577.4390849000774,579.4650759000797,580.9802632000064,585.9984552999958,586.9956171000376,586.995622400078,588.5123500000918,589.5292610999895,w,17,0.9971618000417948,1,+1,110,-1.020757096411292,1.712409155920803,-0.5699414082393961,576538.0,41.58169670099217,1.2099333761365587,0.6768329073029609,580072.0,7.1367208563194175,-0.13276481997969913,0.11075337308760536,631410.0,580.9828869180423,577.4488869180423,632.3208869180422
35,67,25,m,1,0,27.0,27,4,low,8 + 4 + 7 - 5 - 6,8,7,8,9,591.0460601000814,593.0723798000254,594.5884847000707,599.6072570000542,602.9156217999989,602.9156270000385,604.4320708999876,605.4491844000295,q,7,3.308364799944684,0,+0,110,34.319948752828836,0.5053087631544364,-0.2302827645020562,590145.0,-12.690136907585998,1.0785134056264605,0.22901311444208972,593680.0,25.17536801502577,-0.4624878063778879,-0.0043605721294439626,1441415.0,594.5908869180422,591.0558869180422,1442.3258869180422
36,67,25,m,1,0,28.0,28,1,low,4 + 1 + 1 + 7 - 1,12,14,13,12,606.9659652999835,608.9920212000143,610.5073959000874,615.5259035000345,616.6515388999833,616.6515437000198,618.1679616000038,619.1847885000752,e,12,1.1256353999488056,1,+1,111,5.1273528712968535,0.41383732616287006,0.2271569236417541,606065.0,10.791324641444568,0.6654613531523053,0.2640967128242533,609599.0,0.2038131745270313,0.10821370547010867,-0.07171092132819723,617258.0,610.5098869180423,606.9758869180423,618.1688869180423
37,67,25,m,1,0,29.0,29,3,high,7 - 1 + 9 - 5 + 4,14,15,14,13,620.7020404000068,622.7286625000415,624.2436510000844,629.2628139000153,630.8036562000634,630.8036611999851,632.3202376000118,633.3374884000514,w,14,1.540842300048098,1,+10,121,17.85725012012481,0.8145755729736197,-0.016712361619491523,619801.0,33.715642837894826,0.8973447060492146,-0.117121293882406,623335.0,13.947993070494686,0.28763769397431194,-0.08051673977762652,644994.0,624.2458869180423,620.7118869180423,645.9048869180423
38,67,25,m,1,0,30.0,30,3,low,5 - 1 - 4 + 6 + 7,13,13,15,14,634.8540071999887,636.8793046000646,638.394665400032,643.4132868000306,644.3874919000082,644.3874971000478,645.9040958000114,646.9207072000718,q,13,0.9742050999775528,1,+1,122,-11.263192817338007,0.6790336500429182,0.0170368536641059,633952.0,-51.68901350286242,0.6328737606228199,0.04678665534522519,637486.0,-27.33663763726075,-0.19064472364410312,-0.00747894475884836,783186.0,638.3968869180422,634.8628869180422,784.0968869180423
39,67,25,m,1,0,31.0,31,1,low,6 + 9 + 1 + 1 - 1,16,16,14,15,648.4372263000114,650.4640279000159,651.9792358999839,656.9977819999913,658.1794784000376,658.179483700078,659.6961542000063,660.7131096000085,q,16,1.1816964000463486,1,+1,123,2.11490915301464,0.9406262953668008,0.030523215856853803,647537.0,-31.289833679044754,0.056422289617352295,0.0007616223269910627,651070.0,20.921609077392418,-0.15436984671830567,0.18021094592352682,658786.0,651.9808869180423,648.4478869180423,659.6968869180422
40,67,25,m,1,0,32.0,32,1,low,6 + 9 + 1 + 1 - 1,16,16,15,14,662.2296986000147,664.2541894000024,665.7705628999975,670.7885313000297,672.051557000028,672.0515621000668,673.5682631999953,674.5852667000145,q,16,1.263025699998252,1,+1,124,9.630890823752722,0.15088033680717672,0.4794155979004593,661327.0,-50.5776496467486,0.46330391090558765,0.11495254372643782,664862.0,27.024434580563998,-0.008912492103217762,-0.13645064495755865,672658.0,665.7728869180422,662.2378869180422,673.5688869180423
41,67,25,m,1,0,33.0,33,4,high,9 + 7 - 5 + 8 + 6,25,24,25,27,676.1020914000692,678.1300535000628,679.6451409000438,684.6636906000786,686.4594980999827,686.4595029000193,687.9763760000933,688.9938817000948,w,25,1.7958074999041855,1,+10,134,-31.176358728132918,0.30021471756311957,0.08463689542751629,675203.0,12.764961712459478,1.0796579010301088,-0.41469477386173637,678736.0,-13.6706326044289,0.060362385229454585,-0.034720804590612664,1538406.0,679.6468869180422,676.1138869180422,1539.3168869180422
42,67,25,m,1,0,34.0,34,2,high,8 + 1 + 9 + 1 - 4,15,16,15,14,690.5106494000647,692.535917500034,694.0513338000746,699.0706891000737,700.2195431999862,700.2195481000235,701.736146899988,702.7535088000586,w,15,1.148854099912569,1,+10,144,-15.752499282160052,0.8093468455518691,0.054180500072385396,689608.0,-26.784333956132123,0.9548985411809183,0.13801639973927426,693143.0,8.889250178890432,5.021954360409081,-0.2917759601713663,700826.0,694.0538869180423,690.5188869180422,701.7368869180423
43,67,25,m,1,0,35.0,35,2,low,4 + 9 + 1 - 7 - 1,6,5,8,6,704.2702833000803,706.2983640000457,707.8134458999848,712.8316794000566,713.9954668000573,713.9954715000931,715.5121155000525,716.5292222000426,e,6,1.1637874000007289,1,+1,145,-25.614047937025468,-0.7737527998611284,0.22112121569860088,703371.0,-1.1243920256018214,1.2207302476762942,-0.16457118933082526,706905.0,-2.8327766788852173,-0.14369340839949318,0.1891184442562872,714602.0,707.8158869180422,704.2818869180422,715.5128869180422
44,67,25,m,1,0,36.0,36,4,high,9 + 4 - 6 + 8 + 7,22,22,24,21,718.0457633000333,720.0718960000668,721.5871366000501,726.6055234000087,727.8834824000951,727.8834876000183,729.4001116000582,730.417801200063,q,22,1.2779590000864118,1,+10,155,-42.80669076094367,0.6796591055631267,-0.04937093345293353,717144.0,49.13238935666251,0.48281583433758213,-0.10630183340104171,720678.0,51.79004151188174,-0.3771918152717668,0.12948474227182505,1608838.0,721.5888869180422,718.0548869180423,1609.7488869180422
45,67,25,m,1,0,37.0,37,1,low,5 + 6 + 1 + 1 + 1,14,13,16,14,731.9350858000107,733.9629710000008,735.4781565000303,740.4960063000908,741.723430300015,741.7234357000561,743.2400818000315,744.2570847000461,e,14,1.2274239999242127,1,+1,156,-23.960177522810095,0.5725845449326319,0.2494691362954804,731035.0,-16.913414508972963,0.5576687702252201,0.2617157463584725,734569.0,-3.375638851017591,-0.2668139679953403,-0.04164905599123281,742330.0,735.4798869180422,731.9458869180422,743.2408869180423
46,67,25,m,1,1,38.0,0,4,low,3 + 8 - 4 + 9 + 6,22,21,23,22,757.0234511999879,759.0517839000095,760.5673876000801,765.5876541000325,768.3794736000709,768.3794793999987,769.8965818000725,770.9139690999873,w,23,2.7918195000384003,0,+0,156,29.436592274168284,0.7229903088166161,-0.157195277246998,756124.0,-4.815859308530417,0.7215797751036575,0.2584663788915913,759659.0,5.021673707125056,-0.011683674783418141,0.13672100079923144,1636494.0,760.5698869180422,757.0348869180423,1637.4048869180422
47,67,25,m,1,1,39.0,1,3,high,7 + 5 + 9 + 1 - 6,16,15,16,14,772.4308502000058,774.4589396000374,775.9738807000685,780.9921453000279,782.5794631000608,782.5794684999855,784.096283400082,785.1141873000888,w,16,1.5873178000329062,1,+10,166,8.861130983402143,0.44538826625504013,-0.14045381492184505,771531.0,-19.453229640725752,0.6409918934780205,-0.03196132731929646,775065.0,-5.74040418290117,-0.27954931321655296,0.06823614867429684,825337.0,775.9758869180423,772.4418869180422,826.2478869180422
48,67,25,m,1,1,40.0,2,3,low,3 + 1 + 6 - 8 + 9,11,12,11,13,786.635254300083,788.6569843000034,790.172665100079,795.1918530000839,797.267392000067,797.2673971999902,798.7837864999892,799.8010467999848,e,13,2.075538999983109,0,+0,166,-7.35005637050207,0.9581392450327209,0.09494966249101422,785729.0,-11.387846405372073,1.1874844785935963,-0.05785283342109926,789264.0,-20.155107458572605,-0.13584818041351454,0.01515771397433241,880137.0,790.1748869180423,786.6398869180423,881.0478869180422
49,67,25,m,1,1,41.0,3,1,low,9 + 1 + 1 + 7 - 1,17,17,16,19,801.3180947999936,803.3408986000577,804.8562385000987,809.8751079000067,810.9713599000825,810.9713652000064,812.4878075000597,813.5045451000333,q,17,1.096252000075765,1,+1,167,12.674400868410766,0.18766931894494387,0.0863118303587953,800413.0,-0.7785893541022002,0.44110590250113635,-8.166752674356228,803947.0,15.997270794042336,0.6435367271100962,1.2698312281207684,811577.0,804.8578869180423,801.3238869180423,812.4878869180422
50,67,25,m,1,1,42.0,4,3,low,4 + 8 - 3 + 5 - 1,13,12,13,14,815.021109100082,817.0470016000327,818.5624069999903,823.581847500056,824.731427700026,824.731432700064,826.2481204000069,827.2647862000158,w,13,1.1495801999699324,1,+1,168,-20.85741114759729,0.8659516842072197,0.08159733629826338,814119.0,3.6341434392404004,0.9689728794534536,0.19227716559375874,817654.0,-9.442521852802162,0.19960343338168673,0.0006563773773167192,921537.0,818.5648869180422,815.0298869180423,922.4478869180423
51,67,25,m,1,1,43.0,5,2,high,3 + 8 + 1 - 5 + 1,8,9,8,6,828.7815165000502,830.8074155000504,832.3232808000175,837.3429928000551,838.4673076000763,838.4673126999987,839.9837133000838,841.0011110000778,w,8,1.1243148000212386,1,+10,178,7.029370720717505,0.8296433959728859,0.1426035854834662,827880.0,-0.7706179670691347,0.42945512512910655,0.04217305870606736,831415.0,-0.9619477545296964,-0.08513314914613801,-0.03430811589929794,839073.0,832.3258869180422,828.7908869180422,839.9838869180422
52,67,25,m,1,1,44.0,6,2,low,5 + 1 + 7 - 6 + 1,8,6,7,8,842.5180990000954,844.5454269000329,846.0607236000942,851.0795256000711,852.0993069000542,852.0993124000961,853.6158542000921,854.6326657000463,e,8,1.0197812999831513,1,+1,179,6.536113831498129,0.9534589134558074,-0.09851790929662374,841618.0,-20.764937519463587,0.6952459899445489,0.07760047485457022,845152.0,0.5449366219533189,0.22525603381823167,0.8709869196185638,852705.0,846.0628869180423,842.5288869180423,853.6158869180423
53,67,25,m,1,1,45.0,7,2,low,7 + 6 + 1 + 8 + 1,23,22,23,21,856.1494107000763,858.1721031999914,859.6873365000356,864.7059135000454,865.8113863000181,865.8113915000577,867.328306499985,868.3451237000991,w,23,1.105472799972631,1,+1,180,7.919178881013854,1.1624737288851739,4.88318990381876,855244.0,-8.854605052087955,1.6577094650753839,-0.4902238291778809,858778.0,10.031633953670767,0.08540253442707924,0.08214724723146682,866418.0,859.6888869180423,856.1548869180423,867.3288869180423
54,67,25,m,1,1,46.0,8,3,low,2 + 1 + 9 - 5 + 6,13,11,14,13,869.8619308000198,871.8863057000563,873.4016278000781,878.4200635000598,879.5313049000688,879.531310099992,881.0480083000148,882.0653391000815,e,13,1.1112414000090212,1,+1,181,-17.067864034603634,0.08434339174817929,0.021494008645077223,868958.0,-7.128770849508825,1.1269559641669056,0.23399839794399035,872492.0,0.07425937908780611,-0.20635523218043517,-0.10749572059518675,950361.0,873.4028869180422,869.8688869180422,951.2718869180422
55,67,25,m,1,1,47.0,9,4,low,9 + 3 - 5 + 8 + 6,21,21,23,19,883.5820330000715,885.609195600031,887.1244709000457,892.1437645000406,893.555340000079,893.5553451000014,895.0716827000724,896.0885687000118,q,21,1.4115755000384524,1,+1,182,5.206491769116454,0.971305818418664,-0.06528546003209934,882681.0,-8.680249797094964,1.154489075832546,0.14507916577297797,886216.0,12.641162332922164,-0.07262922318340692,0.037760413538307835,1650254.0,887.1268869180423,883.5918869180423,1651.1648869180422
56,67,25,m,1,1,48.0,10,4,high,8 + 5 - 4 + 7 + 9,25,24,26,25,897.6052377000451,899.6320306999842,901.1472538000672,906.1656835000032,907.2672682000556,907.2672734000952,908.783678200096,909.801055500051,e,25,1.1015847000526264,1,+10,192,-16.260625450571496,0.23826078660730765,0.175881869769126,896704.0,-6.5172104616369495,0.8502397431524766,-0.04652491729677122,900238.0,-5.4097185400455,-0.021738267702529068,-0.14607887665083963,1693158.0,901.1488869180423,897.6148869180422,1694.0688869180422
57,67,25,m,1,1,49.0,11,3,high,3 + 1 + 8 - 5 + 9,16,17,16,15,911.3174710000168,913.342287000036,914.8583705000348,919.8768138000742,920.931301600067,920.9313066999894,922.4478652999968,923.4650962000014,w,16,1.0544877999927849,1,+10,202,-14.363737430675158,0.40079340666527097,-0.010412473792205779,910415.0,-15.095674424556925,0.546156228596415,0.09703402898996139,913949.0,29.241727872766802,-0.06106916002521379,0.04916529900842659,977681.0,914.8598869180422,911.3258869180422,978.5918869180423
58,67,25,m,1,1,50.0,12,1,low,4 + 7 + 1 - 1 - 1,10,11,9,10,924.9819542000768,927.0095893000253,928.5248046000488,933.5435391000938,935.0031873000552,935.003192400094,936.519957600045,937.5374930000398,q,11,1.4596481999615207,0,+0,202,6.980016141295279,0.5164626994147206,-0.03136157158516206,924081.0,7.085733120078911,0.5010043960826103,0.14922477924731892,927616.0,-2.216518964382548,-0.11677214928091795,0.2553989005383652,991296.0,928.5268869180422,924.9918869180423,992.2068869180423
59,67,25,m,1,1,51.0,13,3,high,4 + 8 - 9 + 1 + 7,11,11,13,9,939.0542398000836,941.0815887000643,942.5969708000777,947.615617500036,949.7552090000828,949.7552141000052,951.27184400009,952.2891095000086,q,11,2.139591500046663,1,+10,212,-73.7982126574292,0.7906496945346051,-0.15854670208145083,938153.0,7.223416166885882,0.850599579339061,0.08148599749322516,941688.0,-13.714214351039999,-0.6553207036124822,0.0970762294172649,1018921.0,942.5988869180422,939.0638869180423,1019.8318869180423
60,67,25,m,1,1,52.0,14,2,high,4 + 1 + 9 + 1 - 6,9,8,7,9,953.805737900082,955.8333768000592,957.3490652000764,962.3669984000736,963.4432415000628,963.4432468999876,964.9598512999946,965.9770706000272,e,9,1.0762430999893695,1,+10,222,-30.235823210495628,0.354752007388226,0.07916725536842417,952905.0,8.620898347387092,0.78985512842578,-0.020489297715331478,956439.0,-22.030332970632614,-6.495397729455859,-9.711845833593436,964049.0,957.3498869180422,953.8158869180422,964.9598869180422
61,67,25,m,1,1,53.0,15,3,high,5 + 6 - 4 - 1 + 8,14,16,15,14,967.4938807000872,969.5213091000916,971.0365449000384,976.0547584000742,977.0751988000702,977.0752036999912,978.591706700041,979.6090987999924,e,14,1.020440399996005,1,+10,232,-4.059664427118831,0.3878622396765672,-0.029095600188741244,966593.0,-31.92242770439595,0.5118488898835758,0.29372266573144157,970127.0,15.957338820770008,-0.10936028102043638,0.20979014233094762,1103208.0,971.0378869180422,967.5038869180422,1104.1188869180423
62,67,25,m,1,1,54.0,16,1,low,2 + 9 + 1 + 1 + 1,14,12,14,13,981.1259455000982,983.152007100056,984.6673550000414,989.6863996000028,990.6911942000734,990.691199199995,992.2076522000134,993.2242513000964,w,14,1.0047946000704542,1,+1,233,1.8335849805791238,0.16102496475020978,-0.007299441943746432,980224.0,26.711474397208583,-0.15652151484650467,0.00925300096382431,983759.0,-16.077906408440132,-0.10541202069108335,0.04670061840876194,1061369.0,984.6698869180423,981.1348869180423,1062.2798869180422
63,67,25,m,1,1,55.0,17,1,high,9 + 7 + 1 + 1 + 1,19,20,19,18,994.7412677000976,996.768232600065,998.2836057000096,1003.3017972999952,1004.5631430000068,1004.5631482000464,1006.0794674000936,1007.0964933000504,e,18,1.2613457000115886,0,+0,233,3.3640215410434937,0.484194111949638,-0.02729647797615864,993840.0,24.383629531077254,-0.022857456107193475,-0.02622116654401907,997374.0,18.110831921771414,-0.02954151183759457,-1.0826258169452228,1200185.0,998.2848869180423,994.7508869180423,1201.0958869180422
64,67,25,m,1,1,56.0,18,3,high,3 + 1 + 8 - 5 + 6,13,15,13,14,1008.6132713000987,1010.6364946000976,1012.152178300079,1017.1701093000592,1018.3151593999936,1018.3151642000304,1019.8319351000246,1020.8495760000078,w,13,1.1450500999344513,1,+10,243,-24.767400373461175,0.6115217537795896,0.019893802136993433,1007708.0,-10.13390302143915,0.6116408243531222,0.05337259524435112,1011242.0,5.133301482438647,0.085473020664661,-0.13079610916843554,1158336.0,1012.1528869180422,1008.6188869180422,1159.2468869180423
65,67,25,m,1,1,57.0,19,3,high,2 + 1 + 9 - 7 + 6,11,12,13,11,1022.3665987000568,1024.3891072000845,1025.9044595999876,1030.9228715000208,1033.3791773000266,1033.3791828000683,1034.8957111000782,1035.912908700062,w,13,2.4563058000057936,0,+0,243,3.633496206435831,0.697644594240197,0.1301794600306998,1021461.0,19.905008939565175,0.7397628933529665,0.08167689352918917,1024995.0,20.831176675270076,0.32548204586302054,-0.18480405949748646,1482799.0,1025.9058869180421,1022.3718869180423,1483.7098869180422
66,67,25,m,1,1,58.0,20,4,low,3 + 9 - 4 + 7 + 6,21,20,21,19,1037.4297031000024,1039.4571433000965,1040.9723722999915,1045.9909248000477,1047.107061100076,1047.107065899996,1048.62318590004,1049.6399589000505,w,21,1.1161363000283018,1,+1,244,28.798145042658927,0.9604298741556287,0.17230628121021896,1036529.0,-12.129308916767373,0.8754877400561951,-0.18045852660326678,1040063.0,-16.864023863185032,0.10895314750916452,-0.028811535876544392,1984933.0,1040.9738869180424,1037.4398869180422,1985.8438869180422
67,67,25,m,1,1,59.0,21,1,high,9 + 8 + 1 + 1 - 1,18,17,20,18,1051.156836500042,1053.1848998999922,1054.7001497000456,1059.717928000027,1060.7630591000195,1060.763064000057,1062.2795257000253,1063.2969887000509,e,18,1.0451310999924317,1,+10,254,-10.95992255494005,-0.13651403361241377,-0.07514006550356656,1050256.0,11.340532900710182,0.09965938721232126,0.07650834757533409,1053790.0,-38.12697648221418,0.1539128157805969,0.9931992047511438,1341480.0,1054.7008869180422,1051.1668869180423,1342.3908869180423
68,67,25,m,1,1,60.0,22,3,low,4 + 7 + 1 + 9 - 5,16,17,18,16,1064.814063500031,1066.8394310000583,1068.3544135000557,1073.372937200009,1075.0911493999884,1075.091155400034,1076.6079015000723,1077.6250938000155,w,18,1.7182121999794615,0,+0,254,-12.833542619979507,1.1017750659262768,0.03780971631205143,1063911.0,5.166586949563431,0.6678712229230164,-0.053371379239657735,1067444.0,-14.65341686384017,0.3068538606165667,0.011289049003988527,1496455.0,1068.3548869180422,1064.8218869180423,1497.3658869180422
69,67,25,m,1,1,61.0,23,3,high,6 + 7 + 8 + 1 - 9,13,15,13,14,1079.1418430000776,1081.1687078000978,1082.68400020001,1087.7027477000374,1088.8670439000707,1088.8670487999916,1090.3835239000618,1091.4008217999944,q,15,1.1642962000332773,0,+0,254,-15.234667801683113,0.21806677643654204,0.1590950140419367,1078240.0,-4.6647652196415486,0.884035567720078,0.12320387800950483,1081774.0,5.316190042997102,0.2638751264609338,0.11687758394381542,1779766.0,1082.6848869180421,1079.1508869180423,1780.6768869180423
70,67,25,m,1,1,62.0,24,3,high,8 + 3 + 1 - 7 + 9,14,12,14,15,1092.9182048999935,1094.9454355000053,1096.461128200055,1101.479584200075,1102.603062500013,1102.603067600052,1104.1194660000035,1105.136839700048,w,14,1.1234782999381423,1,+10,264,-25.071991338736375,0.4577544177233204,0.07018458272142025,1092017.0,30.641045683076328,0.6763485794754693,0.12462364851460306,1095551.0,-9.950772877780649,-0.35291337333659323,-0.05876186773808234,1793422.0,1096.4618869180422,1092.9278869180423,1794.3328869180423
71,67,25,m,1,1,63.0,25,2,high,6 + 8 + 1 + 1 - 7,9,11,8,9,1106.653787999996,1108.6805712000933,1110.195732000051,1115.21443120006,1116.2910948999925,1116.2911004000343,1117.807850499987,1118.8249851000728,e,9,1.0766636999323964,1,+10,274,68.16402648958162,0.5166956164294678,0.059842427902747186,1105752.0,-9.52163593332023,0.783934491315172,-0.14632982976060216,1109286.0,10.05364312835002,0.5562018595345637,-4.366057246656636,1116896.0,1110.1968869180423,1106.6628869180422,1117.8068869180422
72,67,25,m,1,1,64.0,26,2,high,3 + 8 - 5 + 1 + 1,8,8,6,9,1120.3418003000552,1122.364055700018,1123.8792830000166,1128.897425900097,1129.9950996000553,1129.9951048000949,1131.5118991000345,1132.529522900004,q,8,1.09767369995825,1,+10,284,28.678657601840467,0.7713095589653522,-1.5377414335593191,1119436.0,10.998912072406151,0.5053324517139051,-0.03635009463186201,1122969.0,-17.350486035449443,-0.04624431728177347,-0.02036124953385321,1130601.0,1123.8798869180423,1120.3468869180422,1131.5118869180424
73,67,25,m,1,1,65.0,27,4,low,4 + 7 + 9 - 5 + 7,22,22,24,23,1134.0463163000531,1136.0688762000063,1137.583757400047,1142.6024638999952,1143.9550964999944,1143.9551016000332,1145.4717476000078,1146.4890191000886,w,24,1.3526325999991968,0,+0,284,12.595687524016446,0.867822095029227,-0.11074711033640572,1133141.0,15.690353396486064,1.0406820998005584,0.09532609895902788,1136674.0,1.1817872983361717,0.10494778485333711,0.1673622815770881,2000141.0,1137.5848869180422,1134.0518869180423,2001.0518869180423
74,67,25,m,1,1,66.0,28,3,high,5 + 1 + 7 - 8 + 6,11,9,11,13,1148.0057308000978,1150.0329098000657,1151.5483914000215,1156.5676277000457,1157.7310397000983,1157.7310452000238,1159.2475995999994,1160.2652122,w,11,1.163412000052631,1,+10,294,-1.9459828085489264,0.509407028349766,0.21511216022928514,1147104.0,-4.415297024053725,0.7154667610213088,0.014241954666125878,1150639.0,-8.1367244628983,0.0989629891912096,0.27112588920093894,1807637.0,1151.5498869180421,1148.0148869180423,1808.5478869180422
75,67,25,m,1,1,67.0,29,2,high,9 + 5 - 6 + 1 - 1,8,8,7,9,1161.7821581000462,1163.8097542000469,1165.3249969000462,1170.3429943000665,1171.3949545000214,1171.394959300058,1172.911412000074,1173.9288998000557,q,8,1.0519601999549195,1,+10,304,-13.55219623295041,2.3766183150226112,0.10683261273960643,1160881.0,0.1017312178177221,0.5493332280552252,-0.08425836294939004,1164415.0,-8.886247185403363,-0.19375990944257104,-0.052113062093193996,1172000.0,1165.3258869180422,1161.7918869180423,1172.9108869180423
76,67,25,m,1,1,68.0,30,2,low,4 + 9 - 7 + 1 - 1,6,6,8,5,1175.445616699988,1177.4727335000644,1178.9879857000196,1184.00817809999,1185.1949970000423,1185.1950019000797,1186.7113598000724,1187.7284167000323,q,6,1.186818900052458,1,+1,305,-9.100883675732625,0.2592984081579268,0.06003132274636891,1174544.0,4.280024635138847,0.8655527391848987,-0.015476055566190139,1178080.0,14.485685543260004,0.06723005878709865,0.16854529990202582,1185800.0,1178.9908869180422,1175.4548869180423,1186.7108869180422
77,67,25,m,1,1,69.0,31,1,high,7 + 1 + 6 + 1 + 1,16,17,18,16,1189.245089800097,1191.272332600085,1192.7872611000205,1197.805231400067,1199.5790119000012,1199.5790173000423,1201.0963917000918,1202.1135546000442,e,16,1.7737804999342188,1,+10,315,35.482578197273156,-0.02633785233542163,-0.16133744736421396,1188344.0,-13.94626902184691,-0.1810673724038212,6.851477627689562e-06,1191877.0,-2.8507210114871686,-0.41997599806569186,0.010767481849717875,1384743.0,1192.7878869180422,1189.2548869180423,1385.6538869180422
78,67,25,m,1,1,70.0,32,4,low,7 + 6 - 4 + 9 - 5,13,13,12,14,1203.6309759999858,1205.6572367000626,1207.1723035000032,1212.1925349000376,1213.6910246000623,1213.6910295999842,1215.20772340009,1216.2252167999975,w,12,1.4984897000249475,0,+0,315,-3.0366727555274906,0.7474704666118925,0.20703796064746371,1202728.0,14.297052349854006,1.0068054812605194,0.05853236013002139,1206264.0,44.648633751356954,-0.058892079887701065,-0.04067935787515298,2057924.0,1207.1748869180421,1203.6388869180423,2058.8348869180422
79,67,25,m,1,1,71.0,33,2,low,6 + 1 + 7 + 5 - 1,18,18,17,16,1217.7418392000254,1219.768940200098,1221.284190500039,1226.3029550000792,1227.539002800011,1227.5390078000491,1229.0557186000517,1230.0720956000732,q,18,1.236047799931839,1,+1,316,29.25908428857482,0.964601930001106,0.1662112813320784,1216840.0,14.006199287072729,0.9226823122359371,-0.0034536839248471285,1220374.0,5.56433898942845,-0.11591765324619763,0.10770116601760016,1228144.0,1221.2848869180423,1217.7508869180422,1229.0548869180423
80,67,25,m,1,1,72.0,34,2,low,7 + 1 + 9 - 1 - 8,8,8,7,6,1231.5888706000987,1233.6108177000424,1235.1260984000985,1240.144420000026,1241.2829810000258,1241.2829861000646,1242.7997344000032,1243.816433400032,q,8,1.138560999999754,1,+1,317,-33.212410336214084,0.9038066862713805,-0.029058397141114467,1230682.0,-8.877223059786305,0.616846683421393,-0.011920671146972817,1234216.0,0.5458660091079928,-0.10944234094997496,-0.01731297589238623,1241888.0,1235.1268869180421,1231.5928869180423,1242.7988869180422
81,67,25,m,1,1,73.0,35,2,low,8 + 1 + 1 + 9 - 4,15,15,14,16,1245.333203200018,1247.3549761000322,1248.8702707000775,1253.8887399000814,1254.9789120000787,1254.9789171000011,1256.495767000015,1257.5125305000693,q,15,1.0901720999972897,1,+1,318,-6.278570204283395,0.7933204226478594,0.17218912376377715,1244426.0,-43.336025120488586,0.614798143938891,0.03843833946382125,1247960.0,-4.630311284480291,-0.8797326878755931,-0.04139585667146184,1255584.0,1248.8708869180423,1245.3368869180422,1256.4948869180423
82,67,25,m,1,1,74.0,36,4,low,4 + 7 + 8 - 3 + 9,25,25,24,26,1259.028544700006,1261.0556055000052,1262.5708920999896,1267.589932700037,1269.9628846000414,1269.9628896000795,1271.4794282000512,1272.4965306000086,e,26,2.3729519000044093,0,+0,318,17.69421670009171,1.3289268405267451,0.1453247838116727,1258127.0,11.887138541065735,1.0298143691980624,0.11790993548541584,1261661.0,20.69306703036598,-1.492922903132778,-0.22786072733051888,2139900.0,1262.5718869180423,1259.0378869180422,2140.8108869180423
83,67,25,m,1,1,75.0,37,2,high,6 + 1 + 8 + 7 - 1,21,23,19,21,1274.0133466999978,1276.0376901000272,1277.55266460008,1282.5711987999966,1284.3708718999987,1284.37087730004,1285.8874524000566,1286.9050994000863,e,21,1.79967310000211,1,+10,328,24.393809392040684,0.8128424834651264,-0.0542025501680945,1273109.0,26.172495419770865,0.6375596324299178,-0.01990701985438026,1276642.0,21.150722225751664,0.6596972539181278,-0.06257488303448988,1284976.0,1277.5528869180423,1274.0198869180422,1285.8868869180424
84,67,25,m,1,2,76.0,0,2,high,2 + 1 + 9 - 4 + 1,9,8,9,11,1302.7992453000045,1304.8253976000706,1306.3406055000378,1311.3610196000664,1312.3308800000232,1312.330885100062,1313.8475282000145,1314.8649255000057,w,9,0.969860399956815,1,+10,338,26.539550337564624,0.6152867766028178,0.02140018488834894,1301896.0,10.410626589667803,0.19319747993728642,0.2771894333007996,1305432.0,4.266093271644545,0.6636123799734843,2.3222213678763604,1312936.0,1306.3428869180423,1302.8068869180422,1313.8468869180422
85,67,25,m,1,2,77.0,1,4,low,3 + 8 - 4 + 9 + 7,23,24,23,22,1316.3824477000162,1318.4039660000708,1319.9192148000002,1324.9378647999838,1327.306911300053,1327.306916300091,1328.823529800051,1329.8412952000508,e,22,2.369046500069089,0,+0,338,16.768084236041844,1.1085122619816672,-0.3856360385912856,1315475.0,-2.055540558338283,0.93887255258208,0.14205741334345579,1319009.0,-17.114598094893868,-0.3614470352990957,0.27746271453967575,2225628.0,1319.9198869180423,1316.3858869180422,2226.5388869180424
86,67,25,m,1,2,78.0,2,1,low,6 + 1 + 8 + 1 - 1,15,13,14,15,1331.35791910009,1333.3851207999978,1334.9001578000607,1339.9185820000712,1340.8756385000888,1340.8756448000204,1342.3921940000728,1343.4090066000354,e,15,0.957056500017643,1,+1,339,-25.400000455045184,0.5928569852493051,-0.012544302459949197,1330456.0,-18.625639742252755,0.28511911325354466,0.05478640409951341,1333989.0,4.756061392629665,-0.3383848582227782,0.0790809640915009,1412751.0,1334.8998869180423,1331.3668869180422,1413.6618869180422
87,67,25,m,1,2,79.0,3,4,high,2 + 5 - 3 + 9 + 8,21,21,19,22,1344.9258384000275,1346.9533351000864,1348.4684456000105,1353.487080699997,1354.6909277000232,1354.6909333000658,1356.2083716000195,1357.226633500075,q,21,1.203847000026144,1,+10,349,-9.743013652277146,0.5713024459019769,-0.0029656703967648745,1344024.0,-22.861794194550605,0.36760499604246677,0.17538363704616433,1347558.0,19.766768684089925,0.11039179494732565,0.15402089289599874,2296388.0,1348.4688869180422,1344.9348869180421,2297.298886918042
88,67,25,m,1,2,80.0,4,2,high,6 + 1 + 7 - 8 - 1,5,7,5,4,1358.743287499994,1360.7697961000958,1362.2845885000424,1367.303152400069,1369.9627873999998,1369.962792400038,1371.4794135000557,1372.496719900053,w,5,2.6596349999308586,1,+10,359,-23.21818534073531,0.45558840891266206,0.27042683586188576,1357841.0,13.453489754682522,0.762583426037847,0.16667131693584536,1361374.0,-12.294752108697093,-1.0536908601168067,0.16569656955399603,1370567.0,1362.2848869180423,1358.7518869180421,1371.4778869180423
89,67,25,m,1,2,81.0,5,1,high,3 + 1 + 1 + 8 - 1,12,14,13,12,1374.0137396000791,1376.042069200077,1377.5572185000638,1382.575423900038,1384.1388244000264,1384.138830000069,1385.6553636000026,1386.672627300024,e,12,1.5634004999883473,1,+10,369,27.595818138168543,-0.3108392325472833,-0.08568037478876755,1373113.0,34.00071135707438,0.2536722856315925,0.14536225544072057,1376646.0,-3.000706704314805,-4.949834595039816,-11.099750945523077,1426591.0,1377.5568869180422,1374.0238869180423,1427.5018869180421
90,67,25,m,1,2,82.0,6,4,high,7 + 6 + 8 - 4 + 5,22,22,23,21,1388.1894433000125,1390.213931799983,1391.7296495999908,1396.748199100024,1398.5228245999897,1398.5228301000316,1400.039492700016,1401.0570413999958,e,21,1.774625499965623,0,+0,369,-14.939012489297658,0.525628182145367,0.20810994598626675,1387285.0,15.44336650600905,1.0608332166768872,-0.11435922508886898,1390819.0,-1.3446734929457769,-2.960352324358264,0.09939126320854719,2353420.0,1391.7298869180422,1388.1958869180423,2354.3308869180423
91,67,25,m,1,2,83.0,7,1,high,6 + 1 + 8 + 1 + 1,17,16,17,15,1402.577523300075,1404.6025600000285,1406.1177399000153,1411.1360384,1412.1466849000426,1412.1466901000822,1413.6632878000382,1414.6806242000312,w,17,1.0106465000426397,1,+10,379,18.817739324731203,-0.1729612451985898,-0.10506944547425645,1401673.0,-15.054870841036372,0.25880916844617996,-0.27379104668533993,1405207.0,17.849903743565307,-0.13359989395082073,-0.015420618417130605,1469167.0,1406.1178869180424,1402.5838869180423,1470.0778869180422
92,67,25,m,1,2,84.0,8,1,high,5 + 8 - 1 + 1 + 1,14,12,16,14,1416.1985754000489,1418.2242242000066,1419.739517900045,1424.7583818000276,1425.986757100094,1425.9867619000142,1427.503347599995,1428.5206492000725,e,14,1.2283753000665456,1,+10,389,13.105968833623809,-0.08878878749979435,0.18794932248778395,1415294.0,27.460154104034785,-0.046408780261316895,-0.8424564270529187,1418828.0,9.396619102171309,3.6447068428677465,0.23310592406014918,1594750.0,1419.7388869180422,1416.2048869180423,1595.6608869180423
93,67,25,m,1,2,85.0,9,4,high,2 + 9 - 4 + 8 + 7,22,23,21,22,1430.037391900085,1432.064351900015,1433.5797003000043,1438.5981316000689,1440.810730700032,1440.81073570007,1442.327226400026,1443.3448228000198,e,22,2.212599099962972,1,+10,399,-1.2618311490946752,1.6428121340762676,1.051687351704854,1429134.0,12.79168921049774,0.8845538895852059,0.24243026114985944,1432669.0,-2.091823154874593,0.2828788007631595,0.13836736279807593,2659595.0,1433.5798869180423,1430.0448869180423,2660.505886918042
94,67,25,m,1,2,86.0,10,2,high,9 + 6 + 1 + 7 + 1,24,24,25,23,1444.861431700061,1446.8890814000042,1448.4044761999976,1453.4227612999966,1455.026738399989,1455.026743400027,1456.5432435000548,1457.5611176000675,e,23,1.6039770999923348,0,+0,399,-81.90501107355752,0.6265779212832832,-0.1290206765128925,1443959.0,12.201625384973232,0.5704323466893455,0.18187908783711149,1447493.0,-24.55921943230543,-0.02313576780331683,0.04408190978637516,1509998.0,1448.4038869180422,1444.8698869180423,1510.9088869180423
95,67,25,m,1,2,87.0,11,1,high,2 + 1 + 9 + 1 - 1,12,11,13,12,1459.0776599000674,1461.1044221000047,1462.6206338000484,1467.6405955000082,1468.5627371000592,1468.5627423000988,1470.0793857000535,1471.0966085999971,e,12,0.9221416000509636,1,+10,409,15.462272517676517,-0.1819037628064475,0.05100610676528605,1458175.0,-15.880432420558428,0.07610459960938298,-0.14966732745799116,1461711.0,16.44033741341906,-0.7124203493365959,-0.03607907610407657,1750941.0,1462.6218869180423,1459.0858869180422,1751.8518869180423
96,67,25,m,1,2,88.0,12,3,low,8 + 4 + 1 - 7 + 9,15,16,15,13,1472.613417100045,1474.638077700045,1476.1532876000274,1481.1716473000124,1482.1946563000092,1482.1946612000463,1483.711470899987,1484.7284951000474,w,15,1.0230089999968186,1,+1,410,-6.78338379855494,0.8726297514164467,0.08102811322728454,1471708.0,-11.387703921472571,-0.27260356985974443,0.2563156315838513,1475242.0,-11.21527906000108,-0.37153491464866306,-0.058869646302272205,1859117.0,1476.1528869180422,1472.6188869180423,1860.0278869180422
97,67,25,m,1,2,89.0,13,3,high,7 - 6 + 8 + 1 + 7,17,17,16,15,1486.2453259000322,1488.2708667000988,1489.7859203000553,1494.8044822000666,1495.8506643000292,1495.8506693000672,1497.367376600043,1498.384504500078,q,17,1.046182099962607,1,+10,420,10.816560522673768,0.47999155924651093,-0.029159121140146738,1485341.0,-35.13467736563015,0.5472323149171596,0.0898154799040789,1488875.0,10.98013991155046,-0.2028831685126522,-0.17084176251928795,1887621.0,1489.7858869180423,1486.2518869180421,1888.5318869180423
98,67,25,m,1,2,90.0,14,2,low,9 + 4 - 6 + 1 - 1,7,9,7,8,1499.9016525000334,1501.928273800062,1503.4436084000629,1508.4619152999949,1509.394700700068,1509.3947060999926,1510.911260800087,1511.928161400021,w,7,0.932785400073044,1,+1,421,6.900986047798394,0.26959471342303143,-0.26132199733092554,1498999.0,3.1860991970605532,1.2104132967599166,0.0816146648833771,1502532.0,2.605568889895096,-0.15664658924701724,0.3652509484620756,1566599.0,1503.4428869180422,1499.9098869180423,1567.5098869180422
99,67,25,m,1,2,91.0,15,4,low,4 + 7 + 8 - 3 + 9,25,24,26,25,1513.4449310000057,1515.4726711000549,1516.987718300079,1522.006678200094,1524.1307625999907,1524.1307681000326,1525.6473635000875,1526.6643554000184,q,24,2.124084399896674,0,+0,421,30.95859064368232,0.8664571619596688,0.08326924442899353,1512543.0,13.232568101649472,1.066915131440711,-0.02903540298595697,1516077.0,-30.397645219264316,-4.2410266231196925,0.3836889968706103,2760402.0,1516.9878869180422,1513.4538869180421,2761.3128869180423
100,67,25,m,1,2,92.0,16,4,low,5 + 7 - 4 + 8 + 6,22,22,24,23,1528.1814749999903,1530.207676500082,1531.72291900008,1536.7416453000624,1537.8026047000894,1537.802611000021,1539.318839600077,1540.3358266000869,q,22,1.060959400027059,1,+1,422,-11.955823452514132,2.3504510853642,0.0707480369300908,1527278.0,-25.998552500490202,0.7105716143051364,0.08307439923666471,1530812.0,-2.8867579988390677,32.1889064378713,0.11605692185285243,2774210.0,1531.7228869180421,1528.1888869180423,2775.1208869180423
101,67,25,m,1,2,93.0,17,4,low,2 + 9 - 6 + 8 - 4,9,9,11,7,1541.852685400052,1543.878808800015,1545.3939703000942,1550.413322800072,1552.1706733000465,1552.1706784000853,1553.687121200026,1554.7051454000175,e,7,1.7573504999745635,0,+0,422,23.298363225206444,1.0235248119949025,0.05007249247419421,1540949.0,-4.470537833367452,0.6283652228831458,0.008841231014681705,1544483.0,1.0633590428031923,0.10172102333490196,0.04361469578689681,2858258.0,1545.3938869180422,1541.8598869180423,2859.168886918042
102,67,25,m,1,2,94.0,18,2,high,4 + 9 - 7 + 1 - 1,6,6,8,5,1556.2217114000814,1558.247739000013,1559.7627517000074,1564.7814009999856,1565.9946658000115,1565.9946709000506,1567.5113134999992,1568.528658300056,q,6,1.2132648000260815,1,+10,432,15.404866878778225,0.39987038301084077,-0.0760575680166018,1555318.0,4.454054343801904,0.6982027261254253,-3.6309627454235613,1558852.0,37.941019330010484,-0.12653891640587211,0.034582558173336775,1580511.0,1559.7628869180423,1556.2288869180422,1581.4218869180422
103,67,25,m,1,2,95.0,19,2,high,6 + 1 + 1 + 7 - 9,6,4,6,8,1570.0454189000884,1572.071461900021,1573.5865878000625,1578.6048240000382,1579.9066552000586,1579.9066608999856,1581.423293900094,1582.440908199991,w,6,1.3018312000203878,1,+10,442,-6.667297446557135,-2.253633197761059,-10.007273578393328,1569142.0,24.831445117674782,0.3336328976437066,0.1079807430397055,1572675.0,19.628265434816775,0.05981262471777127,0.11371404418961673,1622734.0,1573.5858869180422,1570.0528869180423,1623.6448869180422
104,67,25,m,1,2,96.0,20,1,low,2 + 9 + 1 + 1 + 1,14,14,12,13,1583.9579826000845,1585.9847496000584,1587.5000525000503,1592.5179598000832,1594.1465617000358,1594.1465666000731,1595.662900299998,1596.6797029000008,q,14,1.6286018999526275,1,+1,443,2.808197265265836,0.5183137506457136,0.09484580595682912,1583055.0,-21.31502252207617,0.3554298084329566,0.10867038252278727,1586588.0,-20.34264278391405,-0.11288588005403799,0.13802830804340926,1764854.0,1587.4988869180422,1583.9658869180423,1765.7648869180423
105,67,25,m,1,2,97.0,21,4,high,7 + 8 - 4 + 6 + 5,22,22,23,21,1598.1965187999886,1600.222963700071,1601.738259100006,1606.7582284000237,1608.2345548000883,1608.2345597000094,1609.7509021000003,1610.7683568000791,q,22,1.4763264000648633,1,+10,453,12.043978698094133,0.799299265619748,0.12078877414524025,1597293.0,-23.804761794427343,0.7142753301955409,0.16353166047285184,1600828.0,,,,,1601.7388869180422,1598.2038869180421,
106,67,25,m,1,2,98.0,22,2,high,6 + 1 + 8 + 5 - 1,19,19,18,17,1612.2849762000842,1614.3123211000348,1615.8275091000833,1620.8457270000365,1622.1305966000073,1622.1306018000469,1623.64712660003,1624.6646642000414,q,19,1.284869599970989,1,+10,463,18.66508577918569,0.14955712134878407,0.001240457757852198,1611382.0,-8.636872336967738,0.960478611724179,-0.023004242085424842,1614916.0,7.271982456661874,-0.4319718687418419,0.04762080935197188,1679246.0,1615.8268869180422,1612.2928869180423,1680.1568869180423
107,67,25,m,1,2,99.0,23,4,high,8 + 4 - 5 + 7 - 6,8,6,7,8,1626.1816648000386,1628.2085425000405,1629.723819300067,1634.744023100007,1635.8905937999953,1635.890598800033,1637.4072077000749,1638.4244376000715,e,8,1.146570699987933,1,+10,473,29.532493729159583,0.8063507094279112,0.021527392080229024,1625278.0,4.962493940380353,0.5426488465067929,0.18207990763979987,1628814.0,,,,,1629.7248869180423,1626.1888869180423,
108,67,25,m,1,2,100.0,24,4,low,6 + 7 + 9 - 3 + 5,24,23,22,24,1639.941323600011,1641.9675335000502,1643.4828914999962,1648.5014559000265,1649.650462300051,1649.6504672000883,1651.1672137000132,1652.1840969000475,e,24,1.1490064000245184,1,+1,474,15.72976780109431,1.3061232817757773,0.5913960091747867,1639037.0,-28.563312935086437,1.0450965666694847,-0.14233830144959891,1642571.0,,,,,1643.4818869180422,1639.9478869180423,
109,67,25,m,1,2,101.0,25,4,high,6 + 9 + 7 - 3 - 5,14,14,12,13,1653.7008435000898,1655.7260412999894,1657.2416840000078,1662.261658600066,1664.6264890000457,1664.626494700089,1666.1432357000886,1667.1594390000682,w,12,2.364830399979837,0,+0,474,-13.10647273496241,0.35349540830191195,-0.027063744735246642,1652796.0,4.005274161135748,0.7822133186038882,0.06289169614667589,1656332.0,,,,,1657.2428869180424,1653.7068869180423,
110,67,25,m,1,2,102.0,26,2,high,7 + 8 + 1 + 9 + 1,26,24,26,25,1668.6763657000847,1670.7023631000193,1672.21764789999,1677.2360439000186,1678.6424667000538,1678.6424715000903,1680.1590440000873,1681.1763447000412,w,26,1.406422800035216,1,+10,484,13.662025883740824,0.6912171065192063,0.20964848519233348,1667772.0,20.359632831369186,0.243532887689077,0.15189402536699737,1671306.0,-2.7860313500891554,0.020507065435915184,0.09256862837641511,1735926.0,1672.2168869180423,1668.6828869180422,1736.8368869180422
111,67,25,m,1,2,103.0,27,4,high,3 + 9 - 5 + 8 - 7,8,8,9,7,1682.6929058000678,1684.719916400034,1686.234833399998,1691.253614300047,1692.554407800082,1692.554413100006,1694.0708836000413,1695.0886638000377,q,8,1.30079350003507,1,+10,494,-22.411874318890426,1.526000117778692,0.27397781671935806,1681790.0,32.57345278608673,0.7482312412050915,-0.4641358488969447,1685323.0,,,,,1686.2338869180423,1682.7008869180422,
112,67,25,m,1,2,104.0,28,4,low,3 + 8 - 5 + 9 - 7,8,8,7,6,1696.6055080000078,1698.6329864000436,1700.1482228999955,1705.1667287000455,1706.9625687000807,1706.9625738000032,1708.4790745000355,1709.4962523999857,e,6,1.7958400000352412,0,+0,494,2.210169855788158,0.8457108181065744,0.1149937923559492,1695703.0,20.215636923590075,0.8522576471907732,-0.020288603429164054,1699236.0,,,,,1700.1468869180424,1696.6138869180422,
113,67,25,m,1,2,105.0,29,3,low,6 + 8 + 7 + 1 - 9,13,15,13,14,1711.0128967000635,1713.0407237000763,1714.555902400054,1719.574418800068,1721.5304309000494,1721.5304364000913,1723.0468667000532,1724.0640636000317,e,14,1.956012099981308,0,+0,494,-0.35365510500440944,-1.7743353276089069,-0.07555420182538941,1710110.0,-1.057707790808836,0.547473682353516,0.029492567405628334,1713644.0,1.256978690377327,0.2652028119167773,0.6873144869857708,1915941.0,1714.5548869180423,1711.0208869180422,1916.8518869180423
114,67,25,m,1,2,106.0,30,2,high,8 + 1 + 9 + 1 - 5,14,15,13,14,1725.5808634000132,1727.6070278000552,1729.122566700098,1734.140280200052,1735.3224738000426,1735.3224821999902,1736.8390292000258,1737.8563666000264,e,14,1.182193599990569,1,+10,504,6.111890120997168,-0.5731841857712441,1.9444924407276312,1724676.0,-1.4887282790965481,0.4124575047438177,-1.6214733740676004,1728210.0,-41.16918819919855,2.7448985116747315,1.2983058644027716,1872837.0,1729.1208869180423,1725.5868869180422,1873.7478869180422
115,67,25,m,1,2,107.0,31,1,low,2 + 1 + 1 + 9 - 1,12,11,13,12,1739.3729031000985,1741.405225800001,1742.920553700067,1747.9408066000324,1750.3384937000228,1750.3384993000657,1751.854931000038,1752.8718147000764,e,12,2.397687099990435,1,+1,505,24.46540288260309,0.12477836691840549,0.022738330462509948,1738475.0,4.7277856252127535,0.27482982926142485,0.02044362376674691,1742010.0,25.839990043864056,-0.23248478684200702,0.06704072005925865,1821525.0,1742.9208869180422,1739.3858869180422,1822.4358869180423
116,67,25,m,1,2,108.0,32,1,high,2 + 1 + 9 + 1 - 1,12,11,12,13,1754.388350400026,1756.4148844000883,1757.9299593000906,1762.9485047000926,1764.250368500012,1764.2503737000516,1765.7670024000108,1766.7844389000677,w,12,1.3018637999193745,1,+10,515,7.939543570759584,0.08881205629165123,-0.01423451810743348,1753485.0,0.4216242129836534,-0.0014617070390170461,0.030059187555084188,1757018.0,-25.79345756484961,-0.3197055023850752,0.08189034026862507,1835887.0,1757.9288869180423,1754.3958869180422,1836.7978869180422
117,67,25,m,1,2,109.0,33,3,low,2 + 1 + 9 - 4 + 6,14,16,14,15,1768.3014876000816,1770.32654550008,1771.8418812000891,1776.860987400054,1779.1624574000016,1779.1624637000496,1780.679163300083,1781.6961040000897,w,14,2.301469999947585,1,+1,516,10.232710920328472,0.6479412724248323,-0.06726290575201488,1767395.0,-8.014715775294581,0.9298222791312352,0.06233468538714759,1770930.0,14.341367653342925,0.046035687207524045,-1.9647891131830906,1970852.0,1771.8408869180423,1768.3058869180422,1971.7628869180423
118,67,25,m,1,2,110.0,34,3,high,8 - 7 + 9 + 1 + 4,15,15,14,16,1783.2129607000388,1785.2390524999937,1786.7541985000717,1791.7727475999857,1792.8184154999908,1792.8184211000334,1794.334952000063,1795.3524646000003,q,15,1.0456679000053557,1,+10,526,13.371991114921864,-0.1860818217764697,-9.290926237585635,1782309.0,-8.544015469054408,0.49557196092785816,-0.16121315610495435,1785842.0,8.596609932856557,-0.07734886933811058,0.0023763516506372095,2013804.0,1786.7528869180423,1783.2198869180422,2014.7148869180423
119,67,25,m,1,2,111.0,35,3,high,6 + 1 + 8 + 7 - 9,13,15,14,13,1796.8691933000227,1798.8935806000372,1800.408454600023,1805.427115000086,1807.0343422000296,1807.0343474000688,1808.550523800077,1809.567460500053,e,13,1.6072271999437362,1,+10,536,23.847937626548703,0.6743310396406086,-0.11727110451948408,1795963.0,-37.01620994955336,0.7274102299431586,0.027487028320113627,1799497.0,29.459301333775073,-0.0003704910998227895,2.0931974034196212,2085300.0,1800.4078869180423,1796.8738869180422,2086.2108869180424
120,67,25,m,1,2,112.0,36,1,low,3 + 1 + 8 + 1 + 1,14,13,14,12,1811.0843038000169,1813.1111622999888,1814.625731699984,1819.6438734000549,1820.9223883000668,1820.9223936999915,1822.438867000048,1823.4557155000512,w,14,1.2785149000119418,1,+1,537,20.70496412494968,0.6295137345387132,0.2203325999365804,1810181.0,-16.172109108034594,0.36253208976138085,-0.0012279996202724242,1813713.0,21.018307158839022,0.1553355842626285,0.043230364771554175,1901358.0,1814.6238869180422,1811.0918869180423,1902.2688869180422
121,67,25,m,1,2,113.0,37,1,low,5 + 6 + 1 + 1 + 1,14,15,16,14,1824.972708699992,1826.9943859000923,1828.509546300047,1833.5273290000623,1835.2824127000056,1835.282417700044,1836.8000409000088,1837.8172222999856,e,14,1.7550836999434978,1,+1,538,-0.9230225292387715,0.09777473037354056,0.03731414166018521,1824064.0,-7.290812980938116,0.4452895395052332,-0.056384617151818084,1827597.0,34.17729205535534,-0.36382576392904387,1.5973488300011496,1929301.0,1828.5078869180422,1824.9748869180423,1930.2118869180422
122,67,25,m,1,3,114.0,0,3,low,8 - 1 + 6 - 7 + 5,11,11,12,13,1849.1588461000936,1851.1862928000048,1852.7015400000384,1857.7222721000437,1858.514219900011,1858.5142249000487,1860.0309908000052,1861.0479967000429,q,11,0.7919477999676019,1,+1,539,3.830832581199944,1.0684820500722365,-0.3009997894899694,1848256.0,16.775376183711412,1.074945271685181,0.06252763192477184,1851791.0,6.279517607977578,1.976043084576415,4.363534809639781,2099021.0,1852.7018869180422,1849.1668869180423,2099.9318869180424
123,67,25,m,1,3,115.0,1,2,low,7 + 5 + 1 - 1 - 8,4,4,3,2,1862.577114499989,1864.6033166000848,1866.1184679000871,1871.1371208000928,1872.2343542000744,1872.2343589999944,1873.751129399985,1874.768058200017,q,4,1.0972333999816328,1,+1,540,3.8755837539039746,1.3413588581735216,0.04735438026273475,1861673.0,11.027522625723986,1.0518643140037263,0.19938970152274504,1865206.0,-61.42703798690643,0.33362099723632443,0.02798629663923924,2042868.0,1866.1168869180422,1862.5838869180423,2043.7788869180422
124,67,25,m,1,3,116.0,2,3,low,2 - 4 + 9 + 7 + 1,15,16,13,15,1876.2849217000185,1878.3116015000269,1879.826586500043,1884.846372500062,1887.0183077000547,1887.0183128000936,1888.53521760006,1889.5522048000712,e,15,2.171935199992731,1,+1,541,-47.872472432229614,1.0206633032004704,0.0787760384463585,1875381.0,-8.636148963633048,0.4991135303139962,0.04983781542223653,1878916.0,-18.620292714562424,-0.05118779000502727,0.06826869932641477,2339571.0,1879.8268869180422,1876.2918869180423,2340.481886918042
125,67,25,m,1,3,117.0,3,1,high,8 + 1 + 1 + 1 - 3,8,8,9,6,1891.068909600028,1893.093086900073,1894.6080467000136,1899.6266502999931,1900.7542869000465,1900.754291800084,1902.2715220000828,1903.2882180000888,q,8,1.127636600052938,1,+10,551,-0.9163543648685106,-0.025167269627968558,-0.045361883958569216,1890162.0,8.978022939598498,0.2962315737111152,-0.09400763759409636,1893696.0,-5.81420294275846,-0.11826518032920541,0.1577319414845164,1943253.0,1894.6068869180422,1891.0728869180423,1944.1638869180422
126,67,25,m,1,3,118.0,4,3,low,5 + 7 + 1 - 4 + 6,15,13,17,15,1904.8056510000024,1906.8275130999973,1908.342430900084,1913.360853600083,1915.3382020000136,1915.3382075000557,1916.854878699989,1917.872281000018,e,15,1.9773483999306336,1,+1,552,14.459563710039465,0.8281700302933674,0.11476910132337603,1903897.0,-26.003222141237586,0.6408934420728358,0.04849199970221463,1907430.0,-13.137180965581402,-0.5580830566513262,-0.043514032517706136,2380804.0,1908.3408869180423,1904.8078869180422,2381.7148869180423
127,67,25,m,1,3,119.0,5,1,high,5 + 9 - 1 + 1 + 1,15,13,15,17,1919.3900917000135,1921.4168507000431,1922.9322246999943,1927.950248200097,1928.6981653000691,1928.6981700999893,1930.214503400028,1931.231699099997,w,15,0.7479170999722555,1,+10,562,-3.782176349083331,-0.13573055399513345,-0.07719713140030726,1918485.0,-5.727106392912287,-0.03245825116400036,0.1588230147346319,1922019.0,-18.52860749492381,-0.03797504677565344,0.23596123242676947,1956941.0,1922.9298869180423,1919.3958869180422,1957.8518869180423
128,67,25,m,1,3,120.0,6,1,low,5 + 1 + 1 + 6 + 1,14,14,16,13,1932.747765300097,1934.774724500021,1936.2900185000617,1941.3075045000296,1942.650229700026,1942.650235200068,1944.1669271000428,1945.1839627000736,q,14,1.3427251999964938,1,+1,563,-8.437605054301942,0.6425561356141025,-0.14331567636300924,1931844.0,38.914638827584106,0.3066555077424997,0.18744626648511997,1935377.0,-3.2779543302655716,0.19998362667745395,0.0973130340706978,2027645.0,1936.2878869180422,1932.7548869180423,2028.5558869180422
129,67,25,m,1,3,121.0,7,1,high,7 - 1 + 9 + 1 - 1,15,14,13,15,1946.7008129000897,1948.7265299999851,1950.2417497000424,1955.2613959000448,1956.3382705000693,1956.3382757999932,1957.8549695000984,1958.872278099996,e,15,1.076874600024894,1,+10,573,23.353327975361637,-0.22883280003497708,-0.06627351137157955,1945796.0,-30.076833233319483,-0.021290825328053042,0.05218267201200266,1949331.0,8.012916739555068,-0.14072960981076243,-0.45599481157444277,2112675.0,1950.2418869180422,1946.7068869180423,2113.5858869180424
130,67,25,m,1,3,122.0,8,3,low,7 - 1 + 8 - 6 + 4,12,12,13,11,1960.3889679000715,1962.4130151000568,1963.9282517000104,1968.9476990000112,1970.2501915000607,1970.2501964999828,1971.7667012000456,1972.78354850004,q,12,1.3024925000499934,1,+1,574,14.495662069162083,0.8494334925660305,0.17897736316427726,1959482.0,-9.289655279138657,1.0292226356733356,0.12587615775902727,1963016.0,1.1493063491773947,-1.9527325622705822,-0.18212306656025645,2433875.0,1963.9268869180423,1960.3928869180422,2434.7858869180423
131,67,25,m,1,3,123.0,9,4,high,4 + 7 - 8 + 9 - 3,9,11,9,8,1974.300319700036,1976.3259874000212,1977.8421176000263,1982.8608235000863,1984.3301961000543,1984.330201300094,1985.846811000025,1986.8642096000256,w,9,1.4693725999677554,1,+10,584,0.4502935372703565,0.38096398507812523,0.20679011322392093,1973395.0,9.738089645492863,0.6232483807910705,0.15528473041881696,1976930.0,,,,,1977.8408869180423,1974.3058869180422,
132,67,25,m,1,3,124.0,10,4,low,5 + 7 - 4 + 6 + 9,23,23,25,24,1988.3811203000369,1990.4085242000876,1991.92459900002,1996.942566600046,1999.538224800024,1999.5382313000737,2001.0550526999868,2002.0718908000272,q,23,2.595658199978061,1,+1,585,-50.629761825212306,1.0167161033987813,0.12483452814799323,1987477.0,5.665276322080343,0.919063565766884,0.030535115302979587,1991012.0,,,,,1991.9228869180422,1988.3878869180423,
133,67,25,m,1,3,125.0,11,3,low,3 - 7 + 5 + 1 + 9,11,12,13,11,2003.588598500006,2005.6132895000048,2007.128489100025,2012.14869260008,2013.202214500052,2013.2022202000956,2014.7185751000648,2015.7355641000904,e,11,1.053521899972111,1,+1,586,9.273502598832309,0.8770142102750964,0.031131555029379365,2002683.0,5.350568416335214,0.8148644075516791,-0.15758544363009586,2006217.0,32.45929716996963,0.7155692901591757,0.0911040843027835,2447444.0,2007.1278869180423,2003.5938869180422,2448.354886918042
134,67,25,m,1,3,126.0,12,1,high,8 - 1 + 1 + 6 + 1,15,15,14,16,2017.2523829999843,2019.274203000008,2020.78944730002,2025.8077448999973,2027.0420566000976,2027.0420614000177,2028.558494500001,2029.5758715000704,q,15,1.2343117001000792,1,+10,596,7.523643514746869,-0.12223338780888326,-0.07996676926898227,2016343.0,9.846587798888315,0.14230922483343722,0.09993477148887298,2019876.0,-37.9810676177471,0.1457968865385837,0.23287692098967439,2126365.0,2020.7868869180422,2017.2538869180423,2127.275886918042
135,67,25,m,1,3,127.0,13,2,low,4 + 7 + 1 + 1 - 8,5,4,7,5,2031.0926551000448,2033.1157259000463,2034.6308606000384,2039.6497667999936,2042.2661375000607,2042.2661422000965,2043.7826598000247,2044.79961690004,e,5,2.616370700066909,1,+1,597,-38.7728827319625,0.6863129505586376,0.1228898196908812,2030185.0,-0.5022135487308095,-1.0036638552333619,0.06587127888140332,2033719.0,2.922397794672314,0.10321717695223409,0.08693012868358907,2071557.0,2034.6298869180423,2031.0958869180422,2072.467886918042
136,67,25,m,1,3,128.0,14,4,high,7 + 6 - 9 + 8 - 3,9,7,8,9,2046.316476900014,2048.342831599992,2049.8602647000225,2054.8795562000014,2057.3220380999846,2057.322043000022,2058.838210400077,2059.8557904000627,e,9,2.4424818999832496,1,+10,607,14.016304841278275,0.5251682572965959,-0.07750603204822015,2045411.0,18.52387474432785,0.8906181218705225,0.06917956575397555,2048948.0,,,,,2049.858886918042,2046.3218869180423,
137,67,25,m,1,3,129.0,15,2,low,9 + 6 + 1 + 7 + 1,24,23,24,25,2061.3724938000087,2063.398728500004,2064.914110100013,2069.9331729999976,2070.954133599997,2070.954138900037,2072.471458300017,2073.4885821000207,w,24,1.0209605999989435,1,+1,608,-22.28616235323722,0.9276255723178433,0.05314160478004504,2060467.0,-2.2458982587442495,1.1077812545176036,0.1338595405719869,2064002.0,7.595782109427609,-0.3415382821891817,-0.000687160483341609,2167380.0,2064.912886918042,2061.3778869180423,2168.2908869180424
138,67,25,m,1,3,130.0,16,3,low,8 + 5 + 1 - 7 + 9,16,14,16,17,2075.0063181000296,2077.033259000047,2078.549367300002,2083.5677836000687,2084.698156700004,2084.698161600041,2086.214846900082,2087.231912099989,w,16,1.130373099935241,1,+1,609,-11.662710921369793,0.9935438973276884,0.01980797822223246,2074102.0,26.613271305552292,1.1643111462575773,0.086869807543549,2077637.0,11.92184511705601,-0.23043046584906035,0.11103983053590616,2476244.0,2078.5478869180424,2075.012886918042,2477.1548869180424
139,67,25,m,1,3,131.0,17,3,high,6 - 1 + 7 - 8 + 9,13,11,13,12,2088.748695000075,2090.771925700013,2092.2870982000604,2097.3059704999905,2098.419047100004,2098.419052200042,2099.9356426000595,2100.9535728000337,w,13,1.1130766000133008,1,+10,619,31.835143738331592,1.4956185178428996,-0.45172242078386127,2087840.0,8.176768549644938,0.8978279326094021,-0.12047137085215298,2091375.0,9.170206521607987,0.5529647632413619,0.10983083653362224,2517995.0,2092.2858869180423,2088.7508869180424,2518.905886918042
140,67,25,m,1,3,132.0,18,1,low,8 + 1 + 5 + 1 + 1,16,16,17,15,2102.4705773000605,2104.4941496000392,2106.009266600013,2111.02823070006,2112.074229300022,2112.074235800072,2113.590163100045,2114.6069907000056,q,16,1.0459985999623314,1,+1,620,15.972159456836597,-0.16879170730766901,-0.677094350805679,2101562.0,-3.519521169680857,0.4764009842075274,0.006101095390826039,2105096.0,-15.243553115923282,-0.020432390634651743,0.20824442140656574,2153597.0,2106.0068869180423,2102.472886918042,2154.5078869180425
141,67,25,m,1,3,133.0,19,1,high,8 + 1 + 4 + 1 + 1,15,15,16,14,2116.12341130001,2118.150774699985,2119.6660756000783,2124.6840292999987,2125.7620201000245,2125.762025300064,2127.2787220000755,2128.2962953000097,q,15,1.0779908000258729,1,+10,630,-29.20324927983823,1.0559914587684591,-0.042319388026478943,2115219.0,-12.845947111332311,0.21631100456984198,-0.015129193832159382,2118753.0,-19.610337095298643,-0.13908471006070755,0.18403581369972022,2239452.0,2119.6638869180424,2116.1298869180423,2240.3628869180425
142,67,25,m,1,3,134.0,20,4,low,5 + 8 - 6 + 7 + 4,18,19,18,17,2129.8133209000807,2131.8387809999986,2133.354070000001,2138.3737033000216,2139.2980586000485,2139.298063900089,2140.8146085999906,2141.8315215000184,w,18,0.9243553000269458,1,+1,631,1.3307769393906668,1.3593209987843244,0.06418367953307769,2128907.0,46.68258933347958,1.3527872728313524,0.04786180920992544,2132442.0,,,,,2133.3528869180423,2129.8178869180424,
143,67,25,m,1,3,135.0,21,1,high,7 + 1 + 5 + 1 - 1,13,12,13,14,2143.348354000016,2145.3754081000807,2146.8906921000453,2151.9095808999846,2152.9940054999897,2152.9940107000293,2154.511546800029,2155.529800100019,w,13,1.0844246000051498,1,+10,641,18.649529797953566,1.8205522091269826,0.1994899762568383,2142444.0,27.95853160362205,-0.5666313178092333,-0.028936001719313875,2145978.0,8.604762841320925,0.6652004987567706,-0.31887559245239716,2253300.0,2146.8888869180423,2143.354886918042,2254.2108869180424
144,67,25,m,1,3,136.0,22,2,low,7 + 5 + 1 + 9 + 1,23,23,22,21,2157.046697700047,2159.074050200056,2160.5892478000605,2165.607779100072,2166.7780634000665,2166.778068799991,2168.294646400027,2169.311676000012,q,23,1.1702842999948189,1,+1,642,3.268281750312082,0.9898074212693033,-0.03449422058622997,2156142.0,6.393736450385731,0.9629168116465756,-0.06647036983223309,2159676.0,15.527272639143337,0.13331182291271348,2.3274605806054653,2209611.0,2160.586886918042,2157.052886918042,2210.521886918042
145,67,25,m,1,3,137.0,23,3,low,9 + 3 - 4 + 6 + 7,21,21,23,22,2170.828301600064,2172.856270899996,2174.371604899992,2179.390759000089,2181.274033099995,2181.274038200034,2182.7907054000534,2183.8079509000527,w,23,1.8832740999059752,0,+0,642,1.614953269404241,1.1433271983531226,0.08475490408183783,2169925.0,-3.136574818421421,1.1623286417688772,-0.06965481854187616,2173459.0,16.44089447442948,-0.7302321478905367,0.21520200131738032,2560267.0,2174.369886918042,2170.8358869180424,2561.177886918042
146,67,25,m,1,3,138.0,24,3,low,4 + 7 - 3 + 5 - 1,12,11,12,13,2185.3245368000357,2187.3493191000307,2188.865578200086,2193.8843859999906,2195.33793030004,2195.3379353000782,2196.8542731000343,2197.8715820000507,e,13,1.4535443000495434,0,+0,642,-0.7079888689784362,0.9698403918844583,6.896902425332796,2184418.0,8.508761019042565,0.5589052714333893,-4.477885008806873,2187953.0,15.820938750677701,-0.17939136532194278,0.16103710761654977,2731642.0,2188.863886918042,2185.3288869180424,2732.552886918042
147,67,25,m,1,3,139.0,25,2,low,4 + 8 + 1 + 1 - 5,9,11,9,8,2199.3884524999885,2201.415893300087,2202.9308540000347,2207.949241399998,2209.0099034000887,2209.0099087000126,2210.5263631000416,2211.5432606000686,w,9,1.0606620000908151,1,+1,643,14.147104974201783,1.6158647888439956,-0.12029925264237518,2198484.0,-21.95065256456376,1.2096685138521495,0.047603841692536175,2202017.0,16.79809938200299,-0.7414272246779916,0.3688353161588047,2281596.0,2202.927886918042,2199.394886918042,2282.5068869180423
148,67,25,m,1,3,140.0,26,4,high,4 + 9 - 7 + 8 + 5,19,21,20,19,2213.060135700041,2215.087491300073,2216.6032428999897,2221.6224610999925,2225.0260122000477,2225.02601780009,2226.5426865000045,2227.5602201999864,e,19,3.403551100054756,1,+10,653,-9.393299475941749,0.6359743462081329,-0.526206425696925,2212156.0,1.3729909371376632,0.30766628204412827,0.05458337550400971,2215691.0,,,,,2216.601886918042,2213.066886918042,
149,67,25,m,1,3,141.0,27,1,high,7 - 1 + 8 + 1 - 1,14,13,14,12,2229.07660660008,2231.103261100012,2232.619324600091,2237.637625600095,2238.849968500086,2238.8499748000177,2240.366632400081,2241.3846220000414,w,14,1.2123428999911994,1,+10,663,25.460588375635183,0.09972791196686082,-0.18578862969215315,2228171.0,8.288169514351523,-0.06860590896536367,0.03331225970854157,2231706.0,8.028449337787265,0.1760333349271206,0.06010726199777605,2267908.0,2232.6168869180424,2229.081886918042,2268.818886918042
150,67,25,m,1,3,142.0,28,1,high,3 + 1 + 9 + 1 - 1,13,12,13,14,2242.9018611999927,2244.928963500075,2246.443779800087,2251.4620618000627,2252.697917300044,2252.69792210008,2254.2146851000143,2255.2320651999908,w,13,1.2358554999809712,1,+10,673,39.89131023204923,-0.012571259324329453,-0.01501970345114545,2241997.0,-0.3180880212476884,0.4379052397775318,-0.10591366538981073,2245530.0,14.53388805804524,-0.35585796178980944,0.02817840779926839,2504139.0,2246.4408869180425,2242.907886918042,2505.0498869180424
151,67,25,m,1,3,143.0,29,1,high,3 + 1 + 1 + 9 - 1,13,14,13,12,2256.749159900006,2258.776515900041,2260.291875800001,2265.310272500036,2267.306020500022,2267.306025600061,2268.822564000031,2269.839961200021,w,13,1.9957479999866337,1,+10,683,17.456598344378868,0.06034353308927942,0.09076576655016666,2255844.0,13.515175198045986,1.8900901874417197,0.13697551473790592,2259378.0,1.9753249875897811,10.515322544826233,-0.10859849216816286,2531868.0,2260.2888869180424,2256.7548869180423,2532.778886918042
152,67,25,m,1,3,144.0,30,2,high,5 - 8 + 7 + 1 + 1,6,6,7,8,2271.3560889000078,2273.3843269000063,2274.899309300002,2279.917875500046,2280.993868399993,2280.9938735000324,2282.511147200013,2283.528384100064,q,6,1.0759928999468684,1,+10,693,38.54718540480619,0.7461695238106953,0.08012987142052963,2270452.0,-21.769159244929845,0.801054547880601,-1.5439921065135187,2273986.0,-1.032942532426686,1.8027609549741128,4.944088584544113,2310108.0,2274.896886918042,2271.3628869180425,2311.0188869180424
153,67,25,m,1,3,145.0,31,4,high,7 + 6 - 9 + 8 - 3,9,8,9,7,2285.045275500044,2287.0706718000583,2288.585930900066,2293.605974700069,2295.785797700053,2295.7858026000904,2297.3025131000904,2298.319648600067,w,9,2.179822999984026,1,+10,703,14.009868876057556,0.983540437722703,0.05338936500651115,2284139.0,5.694441230041558,0.879683601978684,0.07162701501718272,2287674.0,,,,,2288.5848869180422,2285.0498869180424,
154,67,25,m,1,3,146.0,32,2,low,9 + 1 + 6 + 7 + 1,24,23,24,25,2299.836457700003,2301.863600300043,2303.378443100024,2308.3966944999997,2309.5058895000257,2309.505894900067,2311.0224172000308,2312.039938400034,w,24,1.109195000026375,1,+1,704,-1.7576081282960274,1.0609556344551625,0.0011381406714821019,2298932.0,-4.773172364086619,1.066583941404756,-0.01752167853348774,2302465.0,-11.915877654448416,3.088390873804798,-0.06664191714679824,2324076.0,2303.3758869180424,2299.842886918042,2324.9868869180423
155,67,25,m,1,3,147.0,33,2,high,5 + 7 - 8 + 1 + 1,6,6,8,7,2313.5572575000115,2315.584129700088,2317.099305800046,2322.119416600093,2323.473870799993,2323.4738756000297,2324.990646100021,2326.008354400052,q,6,1.354454199899919,1,+10,714,6.357494606981666,1.5158155435611875,0.5678662772781022,2312652.0,-22.59362867322352,0.48497361749677914,0.07074057575726167,2316187.0,10.629594156453862,-1.8260478397108617,-9.852072254260719,2367115.0,2317.097886918042,2313.5628869180423,2368.025886918042
156,67,25,m,1,3,148.0,34,3,high,4 + 1 + 8 + 9 - 5,17,19,17,18,2327.5249824000057,2329.55228370009,2331.067310900078,2336.0854119000724,2338.969924000092,2338.969929300016,2340.4862284000264,2341.503301699995,w,17,2.884512100019492,1,+10,724,-21.008759868863425,1.3654651005763396,0.1224719760831674,2326620.0,11.118175663228753,0.6005205095409623,0.0029570165892780498,2330153.0,-26.838822434882466,0.3025107489507448,0.12283451896889108,2815434.0,2331.063886918042,2327.530886918042,2816.3448869180424
157,67,25,m,1,3,149.0,35,4,high,8 + 4 + 7 - 5 - 6,8,9,8,6,2343.020388900069,2345.043987000012,2346.5591425000457,2351.577968400088,2352.8179093000945,2352.8179146000184,2354.334584300057,2355.3515876000747,w,8,1.2399409000063315,1,+10,734,-8.911812145976315,0.4084727985427645,0.03482162037287084,2342112.0,4.380516501043667,0.465456792141163,0.1189021932852441,2345646.0,,,,,2346.5568869180424,2343.0228869180423,
158,67,25,m,1,3,150.0,36,2,low,6 + 1 + 1 + 7 - 9,6,4,6,8,2356.8682135000126,2358.891761900042,2360.4069732000357,2365.425388600095,2366.5137263000943,2366.513731200015,2368.0301010000985,2369.046985200024,w,6,1.0883376999991017,1,+1,735,-3.8632702071089504,0.5121347125180029,0.05506394941936743,2355960.0,5.007200322469244,0.5494415330867142,-0.028302532681599324,2359493.0,7.527362783677651,0.29960317004728365,0.03806008705935171,2405531.0,2360.403886918042,2356.8708869180423,2406.441886918042
159,67,25,m,1,3,151.0,37,3,high,4 + 5 - 3 + 7 - 1,12,12,11,13,2370.563724000007,2372.5917776999995,2374.1071270999964,2379.126762000029,2380.201853600098,2380.20185870002,2381.718258799985,2382.735543000046,q,12,1.0750916000688449,1,+10,745,-38.98828539053513,0.011309107506487948,0.04434688715822155,2369659.0,20.347597864253505,0.05751456021597523,0.01847328978855689,2373194.0,-10.034873027498952,3.362553603757048,-0.030079872691282317,2844458.0,2374.104886918042,2370.5698869180424,2845.3688869180423
160,67,25,m,1,4,152.0,0,2,low,6 + 1 + 1 + 8 - 9,7,5,7,9,2394.958388500032,2396.98578940006,2398.500997400028,2403.520369600039,2404.929992599995,2404.9299979000352,2406.446648500045,2407.46369470004,w,7,1.4096229999559,1,+1,746,-20.982499037779696,2.9648017742587967,1.5281977618729656,2394054.0,13.201381870808554,0.21603805073988447,-0.510178439872095,2397587.0,2.118711470314153,-0.12475603409602654,-0.03928854432201723,2462523.0,2398.4978869180422,2394.9648869180423,2463.4338869180424
161,67,25,m,1,4,153.0,1,2,high,2 + 1 + 9 - 4 + 1,9,11,8,9,2408.980474299984,2411.005485300091,2412.520626100013,2417.5407736999914,2418.6097520000767,2418.609757500002,2420.1258919000397,2421.1421921000583,q,11,1.0689783000852913,0,+0,746,-3.907061449579855,0.9276650386189536,0.1988116479298725,2408073.0,3.4388176035254414,0.43849223486044187,0.10074789143237517,2411608.0,-29.68605945416796,0.08911768204885773,0.02103417726157919,2490084.0,2412.5188869180424,2408.983886918042,2490.994886918042
162,67,25,m,1,4,154.0,2,3,high,2 + 9 + 1 - 5 + 7,14,12,15,14,2422.6589331000578,2424.6861542999977,2426.2013289000606,2431.2198896000627,2433.273733400041,2433.273738900083,2434.790192299988,2435.807580600027,e,14,2.053843799978494,1,+10,756,3.3955434246324474,-0.06024585271123861,0.060065375661638276,2421754.0,7.274148420522071,0.36095675753993994,-0.03613349346902539,2425287.0,,,,,2426.197886918042,2422.664886918042,
163,67,25,m,1,4,155.0,3,3,high,7 - 1 + 8 - 6 + 4,12,12,13,11,2437.324270599988,2439.347426500055,2440.862649800023,2445.8824603999965,2446.8417172000045,2446.8417226000456,2448.3584047000622,2449.3753766000737,q,12,0.9592568000080064,1,+10,766,-2.0210598947529697,0.8028671247185519,-0.003490215636288818,2436415.0,15.74834755691817,0.5721046388810267,-0.014725435809098908,2439950.0,,,,,2440.860886918042,2437.325886918042,
164,67,25,m,1,4,156.0,4,2,low,7 + 6 + 1 - 1 - 8,5,3,4,5,2450.8922931000125,2452.920153300045,2454.435352000058,2459.4545106000733,2461.9217389000114,2461.921744100051,2463.4382423000643,2464.4554858000483,e,5,2.4672282999381423,1,+1,767,-59.919823908838815,0.6385805957002848,0.10805147332861664,2449988.0,-4.5511976750772405,1.4526082816284802,-0.08191900575000322,2453521.0,10.183801834959247,0.10695047963445337,0.15923898789399504,2545699.0,2454.4318869180424,2450.898886918042,2546.6098869180423
165,67,25,m,1,4,157.0,5,3,high,7 - 5 + 9 + 1 - 4,8,9,7,8,2465.9724634999875,2467.9974047000287,2469.512786700041,2474.5327379000373,2475.641642200062,2475.641647199984,2477.158757600002,2478.1755914000096,e,8,1.108904300024733,1,+10,777,-13.323607292152676,1.7337728232793634,-0.0003516940507530819,2465065.0,7.738069062649474,0.932090914621063,0.03960277067014517,2468600.0,,,,,2469.510886918042,2465.9758869180423,
166,67,25,m,1,4,158.0,6,2,low,3 + 9 - 1 - 5 + 1,7,5,6,7,2479.692496900097,2481.720200000098,2483.234920000076,2488.252979299985,2489.481705400045,2489.481710800086,2490.9992613000795,2492.0160900000483,e,7,1.2287261000601577,1,+1,778,-13.487424598784308,0.912720520168584,0.10461671533182137,2478788.0,-54.694730209691976,0.9974211659421641,-0.004636311458144249,2482321.0,6.16388195415645,-1.3272671884750507,0.3716201815242466,2588850.0,2483.231886918042,2479.6988869180423,2589.760886918042
167,67,25,m,1,4,159.0,7,1,low,6 + 1 + 1 + 9 - 1,16,16,15,14,2493.5328518000897,2495.5599334000144,2497.0753513000677,2502.093608700088,2503.5376945000608,2503.537699699984,2505.0542743999977,2506.071193800075,q,16,1.4440857999725267,1,+1,779,-14.388673437627304,0.268039531444352,-0.459107067265065,2492627.0,6.693522506215,0.5071414015453839,-0.05254456451590439,2496161.0,-16.19320293192415,-5.156590700790717,-0.029620668133658157,2602730.0,2497.0718869180423,2493.537886918042,2603.6408869180423
168,67,25,m,1,4,160.0,8,3,low,6 - 1 + 7 - 8 + 9,13,13,11,12,2507.588050600025,2509.615435000044,2511.1306828000816,2516.149704499985,2517.393689400051,2517.393694400089,2518.909962300095,2519.9262028000085,q,13,1.2439849000656975,1,+1,780,0.26088254946733613,1.6442026059155985,1.2395575828141974,2506683.0,18.33546211166901,1.2770972097997992,0.04413649277189036,2510217.0,,,,,2511.1278869180423,2507.5938869180422,
169,67,25,m,1,4,161.0,9,1,high,3 + 1 + 8 + 1 + 1,14,14,16,13,2521.44338130008,2523.467386900098,2524.9824635999976,2530.00106020004,2531.24961300008,2531.2496178,2532.766032900079,2533.8005347000435,q,14,1.2485528000397608,1,+10,790,-24.88847411907541,-0.5974883878231432,0.5090374059180656,2520535.0,-0.544708932643033,0.0737109579721138,0.11458805728752997,2524068.0,-5.147751675434579,0.4800713439924129,-0.04490717862551752,2645707.0,2524.9788869180425,2521.445886918042,2646.617886918042
170,67,25,m,1,4,162.0,10,2,high,3 + 1 + 8 - 5 - 1,6,6,7,5,2535.317352300044,2537.344037700095,2538.8592348000966,2543.87761090009,2545.0978383000474,2545.097843500087,2546.6140385000035,2547.631702700048,q,6,1.2202273999573665,1,+10,800,-11.060800384642953,2.543342034059759,0.10433200050789271,2534411.0,19.713475510969765,0.49448757368920404,0.2288485846497732,2537945.0,-18.33774308169274,-0.6569883959024692,-0.7209268358439225,2616442.0,2538.8558869180424,2535.3218869180423,2617.3528869180423
171,67,25,m,1,4,163.0,11,3,high,3 + 8 + 1 + 5 - 9,8,7,9,8,2549.1484287000494,2551.1754533000058,2552.69071320002,2557.708728000056,2559.665597700048,2559.6656030000886,2561.1822931000497,2562.1995325000025,e,8,1.9568696999922397,1,+10,810,5.480714995765719,2.1657831217622228,-0.19198282013046541,2548243.0,-6.250156609758296,-0.04265324113513502,5.709142606665319,2551776.0,,,,,2552.686886918042,2549.153886918042,
172,67,25,m,1,4,164.0,12,4,high,9 + 8 - 5 - 7 + 6,11,10,11,13,2563.7164193000644,2565.742065700004,2567.2573653000877,2572.276050399989,2574.2655535000376,2574.2655590000795,2575.782333499985,2576.799799200031,e,13,1.9895031000487504,0,+0,810,-24.937621139956228,0.35080311341038684,0.0984596927726249,2562809.0,12.861384359108634,0.3340286722454473,-0.07300858496158336,2566343.0,,,,,2567.253886918042,2563.7198869180424,
173,67,25,m,1,4,165.0,13,2,low,5 - 1 + 1 + 8 + 9,22,21,23,22,2578.316315300064,2580.343610499985,2581.8576420000754,2586.8757248000475,2588.249620800023,2588.249626100064,2589.76591419999,2590.782662700047,e,22,1.3738959999755025,1,+1,811,-12.33066966595419,0.8689829489549736,0.01639666248255467,2577411.0,37.02883129196909,1.0578276805176157,-0.22361402244626594,2580943.0,1.468373092005395,0.31191994023555125,0.5524412520386246,2630418.0,2581.8538869180425,2578.3218869180423,2631.3288869180424
174,67,25,m,1,4,166.0,14,1,low,7 - 1 + 1 + 9 - 1,15,14,13,15,2592.299298200058,2594.32643190003,2595.841567000025,2600.859898200026,2602.129543200019,2602.129548200057,2603.646194400033,2604.6631369000534,e,15,1.2696449999930337,1,+1,812,-58.85331658764856,1.1991511097341814,-0.22369054497695817,2591394.0,-35.8311694245975,1.5986449688739586,0.3095158018462718,2594927.0,20.38827998308467,-0.32301736277747883,-0.9405691889121504,2673170.0,2595.8378869180424,2592.304886918042,2674.0808869180423
175,67,25,m,1,4,167.0,15,2,low,4 + 8 + 1 + 1 - 6,8,7,8,9,2606.1797911000904,2608.207229600055,2609.722627100069,2614.741760500008,2615.841604000074,2615.841609299998,2617.357823700062,2618.374724299996,w,8,1.0998435000656173,1,+1,813,-16.530350886179612,-1.420151942279289,0.20771283743107727,2605274.0,0.004238420352699279,1.3632039090006693,0.04451158676333078,2608808.0,-23.978103868618614,0.1856618102981944,-0.14855596746905664,2745402.0,2609.7188869180422,2606.184886918042,2746.3128869180423
176,67,25,m,1,4,168.0,16,2,low,8 + 1 + 7 + 1 - 4,13,12,13,14,2619.8918373000342,2621.916717400076,2623.431995299994,2628.450954400003,2629.817500200006,2629.8175055000465,2631.3339233000297,2632.350946700084,w,13,1.3665458000032231,1,+1,814,-1.044182425979443,1.871812714224672,0.00910276640496055,2618984.0,-7.846701532766065,-0.0747762837134811,-0.12895426712349556,2622518.0,1.3238568375624435,1.304487578727691,3.2669624421593264,2801858.0,2623.4288869180423,2619.894886918042,2802.7688869180424
177,67,25,m,1,4,169.0,17,1,low,8 + 1 + 1 + 1 - 4,7,5,7,8,2633.867863300024,2635.89535970008,2637.4112092000432,2642.429114800063,2645.1055393000133,2645.1055447000545,2646.622414399986,2647.6392137000803,w,7,2.676424499950372,1,+1,815,-3.107015299400798,0.6680530050275251,0.027640481712035703,2632963.0,20.571471566505465,-1.234158769928798,0.14788827029618812,2636496.0,-26.024488274899834,0.28806466506066686,-1.4703273625851248,2717074.0,2637.4068869180423,2633.8738869180424,2717.9848869180423
178,67,25,m,1,4,170.0,18,4,low,8 + 4 + 7 - 5 - 6,8,6,8,9,2649.1562251000432,2651.182801800081,2652.698007000028,2657.7166502000764,2658.993561799987,2658.993567000027,2660.510565400007,2661.52761260001,w,8,1.276911599910818,1,+1,816,12.718622850997269,0.6459754189313629,0.4153092657449269,2648249.0,-1.1090146412599218,0.5898800393005676,0.07377793068050287,2651784.0,,,,,2652.6948869180424,2649.159886918042,
179,67,25,m,1,4,171.0,19,1,high,6 + 9 + 1 + 1 - 1,16,15,16,14,2663.0442960000364,2665.0727826000657,2666.5879672000883,2671.6061744000763,2672.569440399995,2672.5694457000354,2674.0860796000343,2675.103283600067,w,16,0.9632659999188036,1,+10,826,26.689105215844904,1.6372027403185037,0.03975431248802197,2662139.0,21.54536581393053,0.28660064664179785,-1.086227564454345,2665673.0,15.261028350501292,0.026800217841319807,-1.4639468018234616,2788162.0,2666.583886918042,2663.0498869180424,2789.072886918042
180,67,25,m,1,4,172.0,20,3,low,9 - 5 - 1 - 6 + 8,5,7,4,5,2676.6200727000837,2678.644659299985,2680.160188500071,2685.178498800029,2687.6174360000296,2687.6174411000684,2689.1340122000547,2690.1511471000267,q,7,2.4389372000005096,0,+0,826,27.997359874258322,0.8872772599989367,-0.15613566193814354,2675712.0,-1.5527888198495292,1.6521334252563742,1.0723920242321217,2679246.0,,,,,2680.1568869180423,2676.6228869180422,
181,67,25,m,1,4,173.0,21,4,low,6 + 5 - 7 + 8 - 9,3,3,4,5,2691.6682585000526,2693.695335000055,2695.2104281000798,2700.2294186000945,2702.769474900095,2702.7694812000263,2704.285955900093,2705.303103000042,w,4,2.540056300000288,0,+0,826,26.104547856247784,0.8062017205048715,0.2371827253644272,2690762.0,19.781202928162976,0.2892557794878523,-0.003822998597222238,2694296.0,,,,,2695.206886918042,2691.6728869180424,
182,67,25,m,1,4,174.0,22,1,low,7 + 1 + 4 + 1 - 1,12,14,12,13,2706.8199157000054,2708.846923400066,2710.3619820000604,2715.380264000036,2716.473472999991,2716.473478400032,2717.990078300005,2719.006716700038,w,12,1.0932089999550954,1,+1,827,25.440885565478347,-0.15803952324597326,0.19202062514611629,2705914.0,-19.624016092407828,0.04038060940211974,0.22765832852203838,2709447.0,0.038154585759295756,-0.9120093739270536,0.08878410897659639,2885721.0,2710.3578869180424,2706.8248869180425,2886.6318869180423
183,67,25,m,1,4,175.0,23,3,low,5 + 6 - 4 - 1 + 7,13,14,15,13,2720.524414799991,2722.5519764000783,2724.067217800068,2729.08549670002,2731.042333999998,2731.042340300046,2732.558675999986,2733.5756214000285,e,13,1.9568372999783603,1,+1,828,16.860970353376967,1.0766676576713614,0.1239216539186907,2719619.0,-37.19003070297686,1.8980443336838233,-0.08231902633124388,2723152.0,,,,,2724.0628869180423,2720.5298869180424,
184,67,25,m,1,4,176.0,24,2,low,9 + 4 + 5 + 1 - 1,18,19,17,18,2735.092400200083,2737.119517000043,2738.6345184000675,2743.6524291000096,2744.8014170000097,2744.80142230005,2746.317939000088,2747.3357335000765,e,18,1.1489879000000656,1,+1,829,15.807747708030636,1.110857969573122,0.10982610063258491,2734186.0,-5.752443030875277,1.1185837011494981,0.14859235923254333,2737719.0,0.941515628460543,-0.02541743162661403,0.0974552182950763,2872170.0,2738.6298869180423,2735.0968869180424,2873.0808869180423
185,67,25,m,1,4,177.0,25,4,low,4 + 7 - 8 + 9 - 4,8,7,8,9,2748.852458800073,2750.879349700059,2752.3945965000894,2757.413722400088,2759.801355700009,2759.8013608000474,2761.3179243000923,2762.3349659000523,w,8,2.387633299920708,1,+1,830,24.868129836822906,0.49480714467599896,-0.03780147903816,2747946.0,30.105873476680507,0.9475273407332874,0.038654440881929375,2751480.0,,,,,2752.3908869180423,2748.856886918042,
186,67,25,m,1,4,178.0,26,4,low,4 + 8 + 9 - 3 + 7,25,24,26,25,2763.851938800072,2765.8769969000714,2767.391953199985,2772.410351400031,2773.609345200006,2773.6093501000432,2775.125903800013,2776.1428440000163,e,25,1.198993799975142,1,+1,831,-6.554148636321697,1.316445795171529,-0.4039838469791961,2762944.0,-16.6748346067547,0.8110155530817029,0.16929671898497967,2766477.0,,,,,2767.387886918042,2763.854886918042,
187,67,25,m,1,4,179.0,27,1,low,2 + 1 + 9 + 1 + 1,14,13,12,14,2777.660314799985,2779.6856841000263,2781.201395999989,2786.219450100092,2787.561408100068,2787.56141319999,2789.0779713999946,2790.0948577000527,e,14,1.3419579999754203,1,+1,832,25.44288167204394,-0.1724893746567604,0.027608897210632533,2776753.0,-3.708523306504217,0.6456725400816201,0.13066845657702397,2780286.0,4.388774003936366,0.6247184233792673,3.2322506257468597,2975457.0,2781.1968869180423,2777.6638869180424,2976.367886918042
188,67,25,m,1,4,180.0,28,2,high,5 + 8 + 1 - 1 + 9,22,23,22,21,2791.6115339000244,2793.640099200071,2795.1549349999987,2800.173600399983,2801.257261599996,2801.2572669000365,2802.773870300036,2803.791066000005,w,22,1.0836612000130117,1,+10,842,14.710665655460428,0.18564294280567406,-0.0035616262103277396,2790707.0,12.629629976756439,0.6963561914411303,-0.01748180017292489,2794240.0,19.540956799724867,-0.33470131928172275,-0.11549042827670863,2929945.0,2795.150886918042,2791.617886918042,2930.8558869180424
189,67,25,m,1,4,181.0,29,3,low,3 + 8 - 7 - 1 + 9,12,13,12,14,2805.3079361000564,2807.334242800018,2808.849343499984,2813.8679687000117,2814.833370600012,2814.833375800052,2816.35007470008,2817.366905900068,w,12,0.9654019000008702,1,+1,843,5.9772791484449606,1.188629642349019,-0.5253448877736338,2804401.0,-5.980336602855576,0.7609880914495126,0.01882421578377458,2807935.0,,,,,2808.845886918042,2805.311886918042,
190,67,25,m,1,4,182.0,30,4,high,5 + 9 - 4 + 7 + 6,23,23,24,25,2818.883699400001,2820.9076065000845,2822.422888200032,2827.441335299984,2829.8973066000035,2829.89731140004,2831.4138970000204,2832.431619800045,e,25,2.4559713000198826,0,+0,843,27.556559737270266,1.956875362546116,-0.08793843672431856,2817975.0,-9.88104442300305,0.00278609954642306,0.242845057216599,2821508.0,,,,,2822.418886918042,2818.885886918042,
191,67,25,m,1,4,183.0,31,3,high,8 + 6 - 7 + 1 - 4,4,3,4,5,2833.948344000033,2835.9754487000173,2837.490727800061,2842.509797200095,2843.857470100047,2843.8574754000874,2845.374284600024,2846.3916648000013,w,4,1.3476728999521583,1,+10,853,-8.961656412986347,16.016750065991342,0.6042737011144457,2833041.0,-4.381337349308338,-0.05847358822074078,0.04713484832825232,2836576.0,,,,,2837.4868869180423,2833.9518869180424,
192,67,25,m,1,4,184.0,32,4,high,5 + 6 - 4 + 7 + 9,23,25,23,24,2847.908433700097,2849.935178300017,2851.450414900086,2856.468550699996,2857.6572654000483,2857.6572703000857,2859.173674700083,2860.190991600044,w,23,1.188714700052515,1,+10,863,-27.032133774382636,0.5932870081810826,0.09966631658203484,2847002.0,17.77041640245255,0.5235769477372507,0.03416169597752039,2850535.0,,,,,2851.445886918042,2847.912886918042,
193,67,25,m,1,4,185.0,33,2,high,5 + 9 - 8 + 1 + 1,8,9,8,7,2861.7076531000203,2863.736414300045,2865.251780600054,2870.270831800066,2871.5692573999986,2871.5692621000344,2873.085994800087,2874.1031802000944,w,8,1.2984255999326706,1,+10,873,-42.17893898297823,0.7724427758506898,-0.26759294553885504,2860803.0,-33.63547265541801,0.5700450638923438,0.08578269757505352,2864337.0,,,,,2865.2478869180422,2861.713886918042,
194,67,25,m,1,4,186.0,34,1,low,7 + 1 + 4 + 1 - 1,12,11,12,13,2875.619946400053,2877.647143100039,2879.162505300017,2884.183123600087,2885.1211918999907,2885.1211971000303,2886.637811499997,2887.654657500097,w,12,0.9380682999035344,1,+1,874,1.9173918193320612,0.024978727865777373,0.10624841989858091,2874713.0,4.378138008681942,0.33871659912738883,0.1116743793347299,2878249.0,,,,,2879.159886918042,2875.6238869180424,
195,67,25,m,1,4,187.0,35,4,low,3 + 9 - 5 + 6 + 8,21,21,22,23,2889.171562900068,2891.1990945000434,2892.713974300073,2897.7324018999934,2899.5693088000407,2899.5693140000803,2901.085853000055,2902.103173500044,w,22,1.8369069000473248,0,+0,874,23.349364873200013,1.1906997737108966,0.10585574524113084,2888266.0,-4.330330555994083,0.9748620755367927,-0.052774700514251816,2891799.0,,,,,2892.7098869180422,2889.1768869180423,
196,67,25,m,1,4,188.0,36,4,high,5 + 7 - 4 - 6 + 9,11,13,11,12,2903.619757000008,2905.647635200061,2907.162700999994,2912.181452800054,2914.225198500091,2914.2252036000136,2915.7414779000683,2916.7584876000183,q,13,2.043745700037107,0,+0,874,10.343533927936097,0.5575499486255615,0.5547420552056024,2902714.0,4.0502151311172065,0.9260609894075098,-0.3500730880327252,2906248.0,,,,,2907.1588869180423,2903.624886918042,
197,67,25,m,1,4,189.0,37,2,high,2 + 9 + 1 + 1 - 5,8,7,6,8,2918.2750983000733,2920.3024037000723,2921.817629200057,2926.835949000088,2929.3452642000047,2929.3452694000443,2930.861801900086,2931.8791090000886,e,8,2.5093151999171823,1,+10,884,29.758029720150674,0.6033832663229863,-0.27234243630241073,2917369.0,-5.670161492388022,0.38629905112742424,0.20380200286591044,2920902.0,,,,,2921.8128869180423,2918.2798869180424,
198,67,25,m,1,5,190.0,0,1,high,3 + 1 + 9 + 1 + 1,15,15,14,17,2965.333677900024,2967.3601114000194,2968.875393200084,2973.894683200051,2974.857221600017,2974.857227600063,2976.3736275000265,2977.3910385000054,q,15,0.9625383999664336,1,+10,894,-39.932754180324395,-0.35437812882957154,0.2630285991271899,2964426.0,-3.2408937306760848,-0.6411059894848732,0.32039425377739716,2967961.0,,,,,2968.871886918042,2965.336886918042,
199,67,25,m,1,5,191.0,1,4,low,6 + 9 - 7 + 8 - 5,11,13,11,12,2978.9070942000253,2980.934513400076,2982.449815000058,2987.4685349999927,2988.993184800027,2988.9931900000665,2990.509785400005,2991.5275108000496,q,13,1.52464980003424,0,+0,894,0.5992589161825528,0.6446507393317473,0.16265908603034207,2978001.0,-10.177601061477645,0.9152813363388832,0.06586481309051129,2981535.0,,,,,2982.445886918042,2978.9118869180425,
