,id,age,sex,cued,block,trial,trialinblock,efflev,rewlev,calc,corAns,option1,option2,option3,tstart,ITI1Time,probTime,respTime,selectTime,ITI2Time,fbTime,ITI3Time,key_press,chosenAns,RT,acc,feedback,total_points,cuescr,cuecor,cuezyg,cuetime,probscr,probcor,probzyg,probtime,fbscr,fbcor,fbzyg,fbtime,probtime_c,cuetime_c,fbtime_c
0,6,21,f,0,Practice,,0,1,0,4 + 1 + 9 + 1 + 1,16,14,16,15,128.20521330001066,,128.20521540002665,133.23352319997502,153.44133860000875,153.44134479999775,154.95832819998031,155.97916420002002,w,16.0,20.207815400033724,1,Correct,0,,,,,-3.0179480978982376,1.3416243977805635,-0.19049968060067535,104895.0,20.87849555498449,0.2208209860021202,3.816814145594721,131641.0,128.22262787249838,,154.96862787249836
1,6,21,f,0,Practice,,1,1,0,3 + 1 + 1 + 8 - 1,12,11,12,10,157.4956621999736,,157.4956652999972,162.5170360999764,169.16916049999418,169.16916659998242,170.68585820001317,171.70391009998275,w,12.0,6.652124400017783,1,Correct,0,,,,,8.081834936202359,4.566755992509808,-1.355268577999718,134179.0,7.268104310151705,5.863915578436578,-0.26540357029137285,147365.0,157.50662787249837,,170.69262787249838
2,6,21,f,0,Practice,,2,2,0,8 + 1 + 6 + 1 - 4,12,10,12,11,173.22199920000276,,173.22200549999252,178.2418620000244,182.4813341000117,182.48133979999693,183.99833889998263,185.016834900016,w,12.0,4.239472099987324,1,Correct,0,,,,,-27.327125896770816,-0.0010980945721552615,0.02696187590310828,149904.0,24.279099218236745,3.344875447317574,-0.5212947750868713,160678.0,173.23162787249836,,184.00562787249837
3,6,21,f,0,Practice,,3,2,0,9 + 4 - 6 + 1 - 1,7,6,7,5,186.53401980001945,,186.5340227999841,191.5542889999924,196.2493366000126,196.24934249999933,197.7650245000259,198.783824299986,e,5.0,4.695047600020189,0,Incorrect,0,,,,,-10.009097565931249,-0.8317063808368239,-0.1179902905782908,163216.0,10.257020893136552,0.40806636359851334,10.56671396744615,174445.0,186.54362787249838,,197.77262787249836
4,6,21,f,0,Practice,,4,3,0,9 + 3 - 5 + 6 + 7,20,21,22,20,200.3002859000117,,200.30028879997556,205.3199547000113,209.0493779000244,209.04938380001116,210.5664683000068,211.5845862000133,w,22.0,3.729423200013116,0,Incorrect,0,,,,,5.711189448196221,-0.2871808942558465,-1.6682908831748122,176981.0,6.5019875086765,2.050756239255623,13.262849557955134,187246.0,200.30862787249836,,210.57362787249838
5,6,21,f,0,Practice,,5,3,0,2 + 1 + 9 - 7 + 6,11,10,11,9,213.10154840000905,,213.1015513999737,218.1224133999785,221.92918640002608,221.92919260001509,223.4461016000132,224.4640227999771,w,11.0,3.806773000047542,1,Correct,0,,,,,6.165003223545304,-6.497635524826771,-16.953735668508617,189784.0,22.022171243273675,2.505654072483924,0.48630969284368497,200126.0,213.11162787249836,,223.45362787249837
6,6,21,f,0,Practice,,6,4,0,4 + 8 + 5 - 3 + 7,21,21,22,23,225.98110620002265,,225.981109299988,231.00148889998675,235.5533967000083,235.5534028999973,237.07054599997355,238.0883160000085,e,23.0,4.551907800021581,0,Incorrect,0,,,,,-17.155695560734955,1.0289537458572493,-0.21312931578477778,202663.0,7.472438613803874,-6.329708236634582,-8.686486618906299,213750.0,225.99062787249838,,237.07762787249837
7,6,21,f,0,Practice,,7,4,0,5 + 8 - 4 + 6 + 9,24,22,23,24,239.60527559998445,,239.6052786000073,244.62511040002573,251.4493577000103,251.44936369999775,252.96623640001053,253.98393330001272,e,24.0,6.824247299984563,1,Correct,0,,,,,1.910240388929287,1.0187349896078723,-4.209157325476696,216286.0,6.927378487535858,-0.20463626282868042,0.17558464413819874,229646.0,239.61362787249837,,252.97362787249835
8,6,21,f,1,0,0.0,0,1,low,5 + 6 + 1 + 1 + 1,14,14,16,13,383.94303819997,385.9693191000261,387.48448039998766,392.50252759997966,393.67901439999696,393.679018899973,395.19519980001496,396.2114800999989,q,14.0,1.176486800017301,1,+1,1,27.93365633662538,0.37235158729258444,-0.18694193860140684,360630.0,-1.543565832159996,-0.2553763814936545,-0.0786161009501174,364163.0,-31.55791922213646,-10.386188610104162,-3.244030853015354,371873.0,387.4906278724984,383.9576278724984,395.20062787249833
9,6,21,f,1,0,1.0,1,1,high,5 + 9 - 1 + 1 + 1,15,15,13,17,397.72828699997626,399.7551078000106,401.270198800019,406.2892796000233,408.18299830000615,408.183003299986,409.69957080000313,410.7166347000166,q,15.0,1.8937186999828557,1,+10,11,7.814124976202443,-3.553416874007773,-0.20939845412224756,374416.0,11.225770003441301,-1.6224945623807399,0.017550928995209603,377950.0,9.157475809875436,0.9386768625956305,-0.5079126318290319,386377.0,401.27762787249833,397.74362787249834,409.70462787249835
10,6,21,f,1,0,2.0,2,4,high,7 + 8 - 4 + 6 + 5,22,21,23,22,412.2332256999798,414.2575141999987,415.7725861999788,420.7910227000248,424.0070395999937,424.0070450999774,425.52374959999,426.5412714999984,w,23.0,3.216016899968963,0,+0,11,-20.865480359498143,-1.894003252247538,0.4361981592832995,388917.0,12.423710827922841,1.1072008275426306,-0.07321560663266036,392451.0,-46.971475175749454,-2.8964863071912443,0.3339907259624839,485762.0,415.7786278724984,412.2446278724983,509.08962787249834
11,6,21,f,1,0,3.0,3,4,high,3 + 9 - 5 + 8 - 7,8,7,8,9,428.0579362999997,430.0820130999782,431.59722609998425,436.6169830000144,441.07928529998753,441.0792902000248,442.5957196999807,443.6132556999801,e,9.0,4.462302299973089,0,+0,11,26.11624176070739,1.7456351366031906,-2.3884856354441624,404742.0,8.032115691145433,0.9374007192027527,-0.2374035976030342,408277.0,24.36517993707595,0.4575480970653558,-0.020680009033463342,574136.0,431.6046278724983,428.06962787249836,597.4636278724984
12,6,21,f,1,0,4.0,4,4,low,3 + 8 - 4 + 9 + 6,22,21,23,22,445.13112550001824,447.15851629996905,448.6737150999834,453.6920617999858,455.6550787999877,455.65508380002575,457.17130069999257,458.1882462999784,w,23.0,1.9630170000018552,0,+0,11,49.41250234895735,-0.4518566591927353,-0.2771156525121863,421819.0,-33.73939058528023,-0.08307493736036697,0.06492733335373968,425352.0,28.97644313439327,1.8195400733349576,1.0406724194902777,738536.0,448.6796278724984,445.14662787249836,761.8636278724983
13,6,21,f,1,0,5.0,5,3,high,6 - 1 + 7 - 8 + 9,13,12,13,11,459.70494419999886,461.7306239000173,463.2457928999793,468.2645686999895,473.2824269999983,473.2824295000173,474.7987358000246,475.82084379997104,,,,0,Too Slow!,11,8.987916708718208,2.4130863480141986,-1.4370526203792071,436391.0,-4.614018992032651,0.38598384961325927,0.2954761823901184,439925.0,-10.980680486522566,-1.3511151976488467,2.9243937175871904,451481.0,463.25262787249835,459.71862787249836,474.8086278724984
14,6,21,f,1,0,6.0,6,3,high,9 - 5 - 1 - 6 + 8,5,4,5,7,477.3380660000257,479.3674152999884,480.882633399975,485.9014196000062,490.91945709998254,490.9194595000008,492.4368261999916,493.4567884000135,,,,0,Too Slow!,11,8.208378189357266,1.6777469838834076,-1.0977592882030671,454028.0,27.305796623279253,0.5808639697026745,0.17695028416188263,457562.0,-9.361993828386959,-4.144575978278653,0.44376726475694683,469117.0,480.8896278724984,477.3556278724984,492.44462787249836
15,6,21,f,1,0,7.0,7,4,high,6 + 9 + 7 - 3 - 5,14,14,12,13,494.97411970002577,496.99675180000486,498.51280680001946,503.53261280001607,507.5671973999706,507.5672024000087,509.0840919999755,510.1022144000162,q,14.0,4.034584599954542,1,+10,21,25.721177773004484,0.6151436384576483,0.11941151976278297,471657.0,5.8015910766942795,1.3933894290415267,-0.012059708068518304,475193.0,,,,,498.5206278724984,494.9846278724983,
16,6,21,f,1,0,8.0,8,2,low,8 + 1 + 7 + 1 - 4,13,14,13,12,511.6189366999897,513.6436871999758,515.1589142999728,520.1788751999848,521.1991583000054,521.199163399986,522.7164568000007,523.733593699988,w,13.0,1.020283100020606,1,+1,22,-3.3450043899148367,4.58688315027114,-0.7926054281537147,488304.0,-7.072697681336253,0.23622355537579764,0.07619249788834326,491839.0,,,,,515.1666278724983,511.63162787249837,
17,6,21,f,1,0,9.0,9,3,high,6 + 7 + 8 + 1 - 9,13,13,14,15,525.2499587999773,527.2764637999935,528.791183000023,533.8102431999869,537.3271107000182,537.3271154999966,538.8436509000021,539.86096239998,q,13.0,3.516867500031367,1,+10,32,16.694353744949126,-0.45623889798341644,-0.14438692502026385,501936.0,6.715824169646847,-2.1654266354823406,0.13895475288503345,505470.0,,,,,528.7976278724984,525.2636278724983,
18,6,21,f,1,0,10.0,10,3,low,3 - 7 + 5 + 1 + 9,11,12,13,11,541.3791338999872,543.4010734999902,544.9162321999902,549.9346022999962,550.7832407000242,550.7832454000018,552.2995792999864,553.3158860999974,e,11.0,0.8486384000279941,1,+1,33,3.4746542002944416,-0.09520437078599997,0.13578384622928974,518061.0,21.14815378537413,1.2049386561087996,0.8340945605526255,521594.0,,,,,544.9216278724984,541.3886278724984,
19,6,21,f,1,0,11.0,11,4,low,8 + 4 + 7 - 5 - 6,8,9,8,7,554.8328538999776,556.8572763000266,558.3721286000218,563.3907518999767,567.0551881999709,567.0551929000067,568.5719197000144,569.5893550000037,e,7.0,3.664436299994122,0,+0,33,-7.652911897171517,-5.775847162158666,-11.237135856688198,531517.0,-63.29927430879854,1.4772809749091689,-0.13855356902938487,535050.0,,,,,558.3776278724984,554.8446278724984,
20,6,21,f,1,0,12.0,12,3,low,3 + 8 - 7 - 1 + 9,12,12,13,14,571.1060213000164,573.1322864000103,574.647352400003,579.6663832999766,580.9270615999703,580.9270661000046,582.4434177000076,583.4602054000134,q,12.0,1.2606782999937425,1,+1,34,-3.6282177504405766,-0.15754110732466664,-0.007225380538231629,547792.0,14.487145300857932,-0.41634486816033167,-0.12767064561610297,551326.0,,,,,574.6536278724984,571.1196278724984,
21,6,21,f,1,0,13.0,13,4,low,3 + 8 - 4 + 9 + 7,23,22,23,24,584.9772913000197,587.0034561000066,588.5187123999931,593.5370529000065,595.9430761000258,595.9430805000011,597.4596501999767,598.4766423000256,w,23.0,2.4060232000192627,1,+1,35,-43.13434747764928,-1.856477441928904,0.026073853645485645,561663.0,4.91733710499804,1.2185681240654809,0.18882651527285077,565197.0,,,,,588.5246278724984,584.9906278724984,
22,6,21,f,1,0,14.0,14,2,low,3 + 9 + 1 - 5 + 1,9,7,9,8,599.9925997999962,602.0213934999774,603.5361302000238,608.5545541999745,609.2071356999804,609.207140500017,610.7232976999949,611.740271000017,e,8.0,0.6525815000059083,0,+0,35,-1.5321697925879043,-0.36497170031537607,0.8320855328358285,576680.0,-33.185181528347286,0.11154902264592792,-0.2446775876959193,580214.0,,,,,603.5416278724985,600.0076278724983,
23,6,21,f,1,0,15.0,15,1,low,9 + 7 + 1 + 1 + 1,19,19,18,20,613.2570661000209,615.2841157999937,616.7993087000214,621.8172723000171,622.4471277000266,622.4471323000034,623.9635839000111,624.980638900015,q,19.0,0.6298554000095464,1,+1,36,-62.69484662794372,-1.1366835495767589,0.0966595161491064,589943.0,15.72422605386437,1.0078475104715814,0.0335287873043546,593477.0,,,,,616.8046278724984,613.2706278724984,
24,6,21,f,1,0,16.0,16,4,low,8 + 3 - 4 + 5 + 9,21,22,23,21,626.4972814000212,628.5226002999698,630.0380887999781,635.0560360000236,636.6151982999872,636.6152032000246,638.131746399973,639.149066700018,w,23.0,1.5591622999636456,0,+0,36,-30.455185498807538,0.27091743547432223,0.08786848333332253,603182.0,-8.663285339639055,2.131322737952056,0.06681170572896589,606716.0,,,,,630.0436278724984,626.5096278724984,
25,6,21,f,1,0,17.0,17,1,high,8 + 1 + 1 + 1 - 4,7,5,8,7,640.6657274999889,642.6926602000021,644.2077340999967,649.2259083000245,650.0711968999822,650.0712027999689,651.5875625999761,652.6046481999801,e,7.0,0.845288599957712,1,+10,46,31.135522875284902,2.47208309337699,-0.6304090726089022,617352.0,35.75060086551676,0.01626776706458699,0.09795149773921086,620885.0,,,,,644.2126278724984,640.6796278724984,
26,6,21,f,1,0,18.0,18,1,low,5 + 1 + 1 + 9 + 1,17,16,19,17,654.121345099993,656.1487896000035,657.663647599984,662.6815182999708,663.2951698999968,663.2951744999737,664.8115479999688,665.8289613000234,e,17.0,0.6136516000260599,1,+1,47,-2.580219669249246,-0.6208674760647757,-0.06942550394163449,630807.0,42.170110853659,-0.32852477922823553,0.09964523432822947,634340.0,,,,,657.6676278724984,654.1346278724984,
27,6,21,f,1,0,19.0,19,1,high,7 + 1 + 4 + 1 - 1,12,11,13,12,667.3454139999812,669.3719603000209,670.8871285999776,675.9055541999987,676.6711622999865,676.6711673000245,678.1874077999964,679.2045556000085,e,12.0,0.7656080999877304,1,+10,57,10.486426536994767,-0.4087544561396168,-0.16057410089378532,644031.0,-7.387950022082436,-1.0391141703803655,0.00888962424498585,647565.0,,,,,670.8926278724985,667.3586278724983,
28,6,21,f,1,0,20.0,20,4,high,5 + 7 - 4 + 6 + 9,23,23,24,25,680.7210243999725,682.7457875999971,684.2608479000046,689.2792099000071,690.5271191999782,690.5271241000155,692.0434266999946,693.0607370000216,e,25.0,1.24790929997107,0,+0,57,31.45961283192984,-1.417586890116545,-6.11200930312786,657405.0,10.512194352666084,0.6721580611552014,-1.073141236108937,660938.0,,,,,684.2656278724984,680.7326278724984,
29,6,21,f,1,0,21.0,21,1,low,4 + 9 + 1 - 1 - 1,12,11,12,13,694.5773985999986,696.6043757000007,698.1192720999825,703.137075799983,704.0872052999912,704.0872103999718,705.6034680000157,706.620317599969,w,12.0,0.9501295000081882,1,+1,58,-65.74274179407894,2.3443758547247677,4.434978827404492,671263.0,-15.718392386924904,-2.742459455523706,-0.06334606586343972,674796.0,,,,,698.1236278724984,694.5906278724984,
30,6,21,f,1,0,22.0,22,1,high,3 + 1 + 8 + 1 + 1,14,14,12,13,708.1372668999829,710.1641533999937,711.6787077999907,716.6973909999942,717.4871952999965,717.4872002999764,719.0034111000132,720.0206229999894,q,14.0,0.7898043000022881,1,+10,68,-1.63083142451012,0.30277365073398776,0.3055312956329206,684823.0,-35.1484829977078,0.8202949037948546,-0.6139073470628165,688356.0,,,,,711.6836278724984,708.1506278724984,
31,6,21,f,1,0,23.0,23,1,high,5 + 8 - 1 + 1 + 1,14,16,14,12,721.5382624000194,723.5614637000253,725.0765798999928,730.0946718999767,733.1272506000241,733.127255600004,734.6438561999821,735.6610623999732,w,14.0,3.032578700047452,1,+10,78,3.1231510187675804,0.19181749762012945,1.7292146365346333,698220.0,24.431477137877376,2.4237694126187694,2.4501147020375287,701753.0,,,,,725.0806278724984,721.5476278724984,
32,6,21,f,1,0,24.0,24,4,low,7 + 6 - 4 + 9 - 5,13,13,12,14,737.1778676999966,739.2049909000052,740.7199227000237,745.7382445000112,746.5032909999718,746.5032963000122,748.0197717000265,749.037036099995,w,12.0,0.7650464999605902,0,+0,78,-34.234601584292534,0.6865482333123802,0.18993462408790118,713864.0,51.94613772718782,0.49222761182718244,-0.22655847640720417,717397.0,,,,,740.7246278724984,737.1916278724984,
33,6,21,f,1,0,25.0,25,4,high,5 + 7 - 4 + 8 + 6,22,24,22,23,750.5529219000018,752.5804593000212,754.0956210999866,759.1140508999815,760.3433095000219,760.3433145000017,761.860059699975,762.8771631999989,w,22.0,1.229258600040339,1,+10,88,-0.11521476346116799,1.2376574896409158,5.124813628007117,727239.0,7.9158953762546584,-4.238281230985361,-2.0331341357689503,730773.0,,,,,754.1006278724984,750.5666278724984,
34,6,21,f,1,0,26.0,26,3,high,9 - 1 + 5 - 6 + 8,15,14,17,15,764.3939079000265,766.4182036999846,767.9333102999954,772.9513746000011,775.4552364000119,775.4552411999903,776.9715797000099,777.9886575000128,w,17.0,2.5038618000107817,0,+0,88,-2.072980271573904,-0.3398657086091159,-6.430427935140042,741076.0,16.836567980843398,1.1673351819890847,-0.18733214317992575,744610.0,,,,,767.9376278724984,764.4036278724984,
35,6,21,f,1,0,27.0,27,1,low,6 + 9 + 1 + 1 - 1,16,16,14,15,779.5054317999748,781.5325550999842,783.0472070000251,788.0653497999883,788.9593467999948,788.9593516999739,790.4758659999934,791.4927756999969,q,16.0,0.8939970000064932,1,+1,89,-1.4709850128399022,-0.04359577099501699,-0.03764882895075683,756191.0,-3.9292243848555706,0.16035839266059604,-0.10465110327957783,759724.0,,,,,783.0516278724984,779.5186278724984,
36,6,21,f,1,0,28.0,28,1,low,5 + 6 + 1 + 1 + 1,14,15,14,16,793.0092168999836,795.0329597999807,796.5478068999946,801.5657555999933,802.2633013000013,802.2633061999804,803.7796258999733,804.7965916999965,w,14.0,0.6975457000080496,1,+1,90,-2.346397650375163,-0.8993680205771986,0.12362791492692438,769691.0,-36.60118586287339,1.5089255256187348,0.6345000341572444,773224.0,,,,,796.5516278724984,793.0186278724984,
37,6,21,f,1,0,29.0,29,1,high,3 + 1 + 8 - 1 + 1,12,13,10,12,806.313248099992,808.341250700003,809.8563792000059,814.8746826999704,815.703357899969,815.7033628000063,817.2197789999773,818.2373425000114,e,12.0,0.8286751999985427,1,+10,100,-6.587181443092911,0.4702706872249207,0.08764227101238209,782999.0,7.974796061182299,-0.17251584335785441,0.005447931687024177,786533.0,,,,,809.8606278724984,806.3266278724984,
38,6,21,f,1,0,30.0,30,3,low,8 + 5 + 1 - 7 + 9,16,17,16,14,819.754007600015,821.7781006000005,823.2933871999849,828.3119178999914,830.1112421000144,830.1112467999919,831.6279636999825,832.6447198999813,w,16.0,1.7993242000229657,1,+1,101,3.2571642586263607,5.889697892155886,21.339966085110724,796436.0,4.818047670024132,1.4583424228804125,-4.068365498606996,799970.0,,,,,823.2976278724984,819.7636278724984,
39,6,21,f,1,0,31.0,31,2,high,5 + 8 + 1 - 1 + 9,22,21,23,22,834.1617157000001,836.1881059000152,837.7032706000027,842.7212242999813,844.9832699000253,844.9832749000052,846.5001388000092,847.5173054999905,e,22.0,2.2620456000440754,1,+10,111,44.39365951419104,0.17774669675363253,0.06429556551801796,810846.0,-13.391515370113153,0.7207107650749736,0.048480135114869594,814379.0,,,,,837.7066278724984,834.1736278724984,
40,6,21,f,1,0,32.0,32,4,high,4 + 8 + 9 - 3 + 7,25,24,25,26,849.03371779999,851.0603980000014,852.5754408999928,857.5939549999894,861.4952894999878,861.4952941000229,863.0116672000149,864.0285113999853,w,25.0,3.901334499998484,1,+10,121,2.789404439532351,-0.25307575125376225,0.0645991475183354,825718.0,11.516893602875507,0.9381592519814266,0.12706993035910252,829252.0,,,,,852.5796278724983,849.0456278724984,
41,6,21,f,1,0,33.0,33,1,high,4 + 8 + 1 - 1 - 1,11,13,9,11,865.5449282000191,867.566765399999,869.082413600001,874.1005401000148,874.727234799997,874.7272395999753,876.2438804000267,877.2610852000071,e,11.0,0.6266946999821812,1,+10,131,-14.470571090670813,-2.026131470096545,2.846567228448537,842225.0,-14.21951124874916,-12.943732942736283,-25.761352197338066,845759.0,,,,,869.0866278724984,865.5526278724984,
42,6,21,f,1,0,34.0,34,2,low,5 + 9 - 8 + 1 + 1,8,8,9,7,878.7776831000228,880.8022218999686,882.3174154000008,887.3353128000163,890.9914349999744,890.9914399000118,892.5078680000152,893.5251980000176,w,9.0,3.6561221999581903,0,+0,131,-5.0994751456635505,0.4622252396278279,-0.11516294409675631,855460.0,28.863523807755712,0.7828243674507771,0.18424735090863575,858994.0,,,,,882.3216278724984,878.7876278724984,
43,6,21,f,1,0,35.0,35,1,low,6 + 1 + 8 + 1 + 1,17,15,16,17,895.0419018000248,897.069564800011,898.5851533000241,903.6033505999948,904.3192471999791,904.319252300018,905.835701300006,906.8523766999716,e,17.0,0.7158965999842621,1,+1,132,13.785904630389055,-0.003788082329530873,0.9068053408972179,871727.0,-20.67723457471277,2.76045285503207,-4.2583156734696015,875262.0,,,,,898.5896278724983,895.0546278724984,
44,6,21,f,1,0,36.0,36,4,low,8 + 5 - 4 + 7 + 9,25,25,24,26,908.3691004000138,910.3962207000004,911.9113531999756,916.9306847999688,919.2873805999988,919.2873860999824,920.8038280999754,921.8206617999822,q,25.0,2.3566958000301383,1,+1,133,20.667853999828615,2.6035402872229945,0.1369313382549222,885054.0,13.806989127100358,-0.8503092401086496,0.059152503845358195,888588.0,,,,,911.9156278724984,908.3816278724984,
45,6,21,f,1,0,37.0,37,3,low,2 + 1 + 9 - 7 + 6,11,13,12,11,923.3373760000104,925.3651550000068,926.8803921000216,931.8988127000048,932.5913251999882,932.5913300000248,934.1072919999716,935.1237429999746,e,11.0,0.6925124999834225,1,+1,134,-3.82616847308158,0.17359880800080418,-0.09267187528788545,900022.0,15.03527046542912,1.0345958626852125,0.09809569171926236,903557.0,,,,,926.8846278724984,923.3496278724984,
46,6,21,f,1,1,38.0,0,1,low,3 + 1 + 9 + 1 - 1,13,14,13,12,946.4749856999842,948.5027133999974,950.0176503999974,955.0370254999724,955.6873654000228,955.6873708000056,957.2042101999978,958.221670400002,w,13.0,0.6503399000503123,1,+1,135,-3.6562879481371304,1.2533892035729686,0.10506933595093448,923160.0,13.212179445788253,6.409108423163495,13.570780566268134,926695.0,,,,,950.0226278724984,946.4876278724984,
47,6,21,f,1,1,39.0,1,3,high,2 + 9 + 1 - 5 + 7,14,12,15,14,959.7383921999716,961.7640082999716,963.279104700021,968.2985839999748,969.9993366000126,969.9993416999932,971.5158863000106,972.5338130000164,w,15.0,1.7007526000379585,0,+0,135,-14.459909406663659,-13.299962738540849,-41.60343671163646,936422.0,11.320882683419764,0.40238668809195577,-3.2859360598056,939956.0,,,,,963.2836278724984,959.7496278724984,
48,6,21,f,1,1,40.0,2,4,low,5 + 6 - 4 + 7 + 9,23,23,24,25,974.0506045999936,976.0775511999964,977.5925682000234,982.61125919997,984.2314314999968,984.2314364999766,985.747979799984,986.7652039999956,e,25.0,1.620172300026752,0,+0,135,-13.46309519407125,0.774182278141927,-0.1016416282067587,950734.0,-2.9407136333984205,0.4763578897337508,0.11672221468873345,954269.0,,,,,977.5966278724984,974.0616278724984,
49,6,21,f,1,1,41.0,3,4,high,4 + 7 - 8 + 9 - 4,8,9,8,7,988.2817970999748,990.304063800024,991.8198239000048,996.83859639999,1000.3274570999783,1000.3274624000188,1001.8439991999768,1002.8611181000016,e,7.0,3.488860699988436,0,+0,135,-8.502989232765096,-3.055588407020471,-1.250124329269929,964961.0,7.4814283131193555,-0.08242261389236205,0.1187205474329569,968496.0,,,,,991.8236278724984,988.2886278724984,
50,6,21,f,1,1,42.0,4,1,high,3 + 1 + 1 + 8 - 1,12,12,13,14,1004.3778155000182,1006.400852599996,1007.9159615000244,1012.9345847999792,1013.7353894999832,1013.7353945000214,1015.2516453000136,1016.2689115999964,q,12.0,0.8008047000039369,1,+10,145,2.1956654415666144,-0.06708210161079364,-0.6010912038299052,981058.0,-9.402287383968195,0.0439505579126962,0.0060420568718828616,984592.0,,,,,1007.9196278724984,1004.3856278724984,
51,6,21,f,1,1,43.0,5,4,high,6 + 7 + 9 - 3 + 5,24,22,24,23,1017.7857132999924,1019.8076507999796,1021.3227795999846,1026.3416698999936,1028.495339500019,1028.495344199997,1030.0127246999764,1031.0300079999724,w,24.0,2.1536696000257507,1,+10,155,16.579106006095497,1.8411225631321333,-0.31256048428199046,994465.0,0.7140011338456773,-0.3746235798826447,-0.035817620780801196,997998.0,,,,,1021.3256278724984,1017.7926278724984,
52,6,21,f,1,1,44.0,6,3,low,5 + 7 + 1 - 4 + 6,15,15,17,13,1032.5467884999816,1034.570199400012,1036.0854101000004,1041.1038868000032,1041.6714165000012,1041.6714217999834,1043.1877184999755,1044.2048900999944,w,17.0,0.5675296999979764,0,+0,155,8.681161961474618,-1.1453435844521431,5.756017359310947,1009227.0,35.76377723762306,-2.1425881890515797,-11.225766006256627,1012761.0,,,,,1036.0886278724984,1032.5546278724983,
53,6,21,f,1,1,45.0,7,4,high,9 + 7 - 5 + 8 + 6,25,24,27,25,1045.7221053999965,1047.7440619000115,1049.2591929999762,1054.277990099974,1055.4394581000088,1055.4394640999965,1056.9556464999914,1057.9729565000162,w,27.0,1.1614680000348017,0,+0,155,11.544513818030595,1.8375667149645398,-0.012736866145397041,1022401.0,5.993730214789557,-0.0006653999506394115,-0.3689212390353096,1025935.0,,,,,1049.2626278724983,1045.7286278724982,
54,6,21,f,1,1,46.0,8,2,low,3 + 8 + 1 - 5 + 1,8,8,9,6,1059.4898241999908,1061.5128898000112,1063.0278252999997,1068.046699700004,1068.7673996000085,1068.7674044999876,1070.283355200023,1071.300119200023,q,8.0,0.7206999000045471,1,+1,156,-9.045436893801465,0.6764710695020781,-0.06117030136327184,1036170.0,-0.23735285720742105,-0.0902792431158268,-0.16809736936476227,1039704.0,,,,,1063.0316278724983,1059.4976278724985,
55,6,21,f,1,1,47.0,9,4,low,6 + 5 - 7 + 8 - 9,3,4,5,3,1072.8166529000157,1074.8435489999829,1076.358415100025,1081.377495999972,1083.1594706000178,1083.1594759,1084.6766058999929,1085.694045100012,w,5.0,1.7819746000459418,0,+0,156,-1.1208828331809304,3.92601095692259,3.712625925748224,1049501.0,7.601208737719699,-3.6899135406395747,-9.5410870810503,1053034.0,,,,,1076.3616278724985,1072.8286278724984,
56,6,21,f,1,1,48.0,10,1,high,6 + 1 + 8 + 1 - 1,15,15,14,13,1087.2105468999944,1089.2374007999897,1090.7525104000233,1095.77055820002,1098.27143839997,1098.2714433000074,1099.7875743000186,1100.8048493000097,q,15.0,2.5008801999501884,1,+10,166,3.0044615354734994,-0.31877880217664867,-0.12211825356229311,1063894.0,44.27126281334924,-0.040122615322659705,-0.089017452849949,1067428.0,,,,,1090.7556278724985,1087.2216278724984,
57,6,21,f,1,1,49.0,11,1,low,7 + 1 + 4 + 1 - 1,12,13,14,12,1102.3212447999977,1104.34934299998,1105.8645901000127,1110.883385699999,1111.4954307000153,1111.4954353999929,1113.012150399969,1114.0297153000138,e,12.0,0.6120450000162236,1,+1,167,13.416404936609613,-0.07792799365046044,0.14642593992190012,1079006.0,12.18598646789292,0.34518092409365586,0.5672094563522465,1082540.0,,,,,1105.8676278724984,1102.3336278724985,
58,6,21,f,1,1,50.0,12,2,low,5 + 1 + 7 - 6 + 1,8,8,7,6,1115.546011700004,1117.57265430002,1119.0878001999808,1124.106957799988,1124.8394392000046,1124.839443899982,1126.355804699997,1127.3727778000175,q,8.0,0.7324814000166953,1,+1,168,33.80240585946158,1.0218887745987084,0.050216749782982184,1092229.0,32.91562705097259,1.9290069329315935,0.11796276879717538,1095763.0,,,,,1119.0906278724983,1115.5566278724984,
59,6,21,f,1,1,51.0,13,4,high,7 + 6 - 9 + 8 - 3,9,7,9,8,1128.8886925000115,1130.9148030999932,1132.4299001999898,1137.4482152999844,1138.8474344999995,1138.8474393999786,1140.363954300003,1141.3813400000215,q,7.0,1.399219200015068,0,+0,168,21.85732906775969,0.4844265773609724,-0.03785677055981207,1105572.0,0.8029576487479568,0.4789117805355332,-0.040992878355987195,1109105.0,,,,,1132.4326278724984,1128.8996278724983,
60,6,21,f,1,1,52.0,14,2,low,4 + 9 + 1 - 7 - 1,6,5,8,6,1142.8981996999937,1144.9256995000178,1146.4396344000124,1151.4580044000177,1152.231415599992,1152.231420599972,1153.7477915000054,1154.7644831999787,e,6.0,0.7734111999743618,1,+1,169,-26.66476109008113,1.0865849890344839,-0.10345754136711749,1119582.0,-2.6862947339224625,-0.15473537667036474,-0.015432708490964231,1123115.0,,,,,1146.4426278724984,1142.9096278724985,
61,6,21,f,1,1,53.0,15,1,high,2 + 1 + 9 + 1 - 1,12,13,12,11,1156.2817295999848,1158.3091686000116,1159.8243439000216,1164.8422262999811,1165.4555697999897,1165.4555745000253,1166.9718277999782,1167.9891325000208,w,12.0,0.6133435000083409,1,+10,179,5.473847915508456,-1.0120062523880238,-0.12747466980718825,1132966.0,33.89488460184636,-0.10221940605962221,-0.06819056395046141,1136499.0,,,,,1159.8266278724984,1156.2936278724983,
62,6,21,f,1,1,54.0,16,4,high,7 + 6 - 9 + 8 - 3,9,7,8,9,1169.5058659000206,1171.5299714999855,1173.045147900004,1178.0634674999746,1178.7354812999838,1178.7354864000226,1180.251918900001,1181.2691074999748,q,7.0,0.6720138000091538,0,+0,179,-59.51391480104333,0.4732177254125478,-0.6878659841011632,1146186.0,-1.2204847279510602,0.6528902244788464,0.022735398024147813,1149720.0,,,,,1173.0476278724984,1169.5136278724983,
63,6,21,f,1,1,55.0,17,1,low,7 + 1 + 5 + 1 - 1,13,14,13,12,1182.785968900018,1184.8114322000183,1186.326358099992,1191.344597599993,1191.9355392999714,1191.9355444000105,1193.452667000005,1194.4692840999924,w,13.0,0.5909416999784298,1,+1,180,5.917043265932727,0.04491425326750864,-0.12377311531988155,1159468.0,-2.641769984111484,-0.11749186204883078,0.14843007091346028,1163001.0,,,,,1186.3286278724984,1182.7956278724985,
64,6,21,f,1,1,56.0,18,2,high,7 + 6 + 1 + 8 + 1,23,23,22,21,1195.9858949999907,1198.010011299979,1199.5251344999997,1204.5443323000218,1206.0316025000066,1206.0316086999956,1207.5476596999797,1208.5648370999843,w,22.0,1.4872701999847775,0,+0,180,43.28230298111483,-2.0823984573690772,-12.171753226465473,1172666.0,-20.06714364802544,-0.3025048812787663,-0.8624584541517795,1176201.0,,,,,1199.5286278724984,1195.9936278724983,
65,6,21,f,1,1,57.0,19,1,high,7 + 1 + 4 + 1 - 1,12,12,13,11,1210.0814777999767,1212.1071113999933,1213.6224665999762,1218.6409269999713,1219.4634773000143,1219.4634821999937,1220.9798586000106,1221.9972028000047,q,12.0,0.8225503000430763,1,+10,190,-54.963558900502754,0.6041052285510062,-0.23226071583380747,1186763.0,6.292903452735748,0.22925005309399804,1.002744806113666,1190297.0,,,,,1213.6246278724984,1210.0906278724983,
66,6,21,f,1,1,58.0,20,3,high,6 - 1 + 7 - 8 + 9,13,12,13,11,1223.513865099987,1225.5397163999733,1227.055499900016,1232.074134800001,1232.823664799973,1232.8236696000097,1234.3402124000131,1235.3574501000112,w,13.0,0.7495299999718554,1,+10,200,57.647376195540545,0.3493640592498011,0.24287713631587615,1200196.0,3.0674030874197324,0.7091746620719768,-0.03685026397597224,1203730.0,,,,,1227.0576278724984,1223.5236278724983,
67,6,21,f,1,1,59.0,21,3,low,9 + 3 - 4 + 6 + 7,21,21,23,22,1236.8745824000216,1238.8980611999868,1240.4128540999957,1245.431297699979,1248.7515237000189,1248.7515291000018,1250.2675266999868,1251.2848285000073,w,23.0,3.3202260000398383,0,+0,200,39.98799951962254,-0.12304513876491097,0.12857396518281794,1213554.0,-35.73629511850504,0.07773754280634293,-0.13751436825968488,1217087.0,,,,,1240.4146278724984,1236.8816278724985,
68,6,21,f,1,1,60.0,22,2,high,7 + 8 + 1 + 9 + 1,26,24,26,25,1252.8013751999824,1254.82563929999,1256.3395312000066,1261.3593717999756,1263.3516388999997,1263.351643699978,1264.8680089999689,1265.8850929000182,w,26.0,1.992267100024037,1,+10,210,-32.950485953813924,-0.2161345135705508,-0.02942837593587111,1229482.0,-11.120883720033495,-0.6136886086140967,-0.05201901793614949,1233015.0,,,,,1256.3426278724985,1252.8096278724984,
69,6,21,f,1,1,61.0,23,4,low,5 + 9 - 4 + 7 + 6,23,24,23,25,1267.4016095999978,1269.4250419000164,1270.940179099969,1275.95861099998,1279.05561510002,1279.0556199999992,1280.5721242,1281.5889526000246,w,23.0,3.097004100040067,1,+1,211,13.384828834453508,-0.2864767401158925,0.055456833646193804,1244081.0,1.348475012777154,1.3104182168347052,0.0823514278184545,1247615.0,,,,,1270.9426278724984,1267.4086278724983,
70,6,21,f,1,1,62.0,24,3,low,3 + 8 + 1 + 5 - 9,8,8,7,9,1283.1056706000236,1285.1311384,1286.6462020999752,1291.6638059000252,1292.3195276000188,1292.3195321999956,1293.8358598999912,1294.8525887000142,q,8.0,0.6557216999935918,1,+1,212,-30.435694617230656,-1.3736545601419454,0.20342096920678676,1259787.0,45.63208723706989,0.14068590212552934,-0.14637197202945273,1263320.0,,,,,1286.6476278724983,1283.1146278724984,
71,6,21,f,1,1,63.0,25,3,high,3 + 1 + 6 - 8 + 9,11,13,12,11,1296.3691394000198,1298.3935919000069,1299.90862870001,1304.926678000018,1305.471598299977,1305.4716034000155,1306.988210099982,1308.0055828000186,e,11.0,0.5449202999589033,1,+10,222,3.175298144553084,0.11130221907575955,-0.17070707290727594,1273049.0,-34.30430566776419,0.7812651960754788,0.007020869570353305,1276582.0,,,,,1299.9096278724985,1296.3766278724984,
72,6,21,f,1,1,64.0,26,4,high,6 + 9 + 7 - 3 - 5,14,13,14,15,1309.523395199969,1311.5484602000215,1313.063452299975,1318.082873700012,1320.3436656999984,1320.3436709999803,1321.860045999987,1322.8772646000143,w,14.0,2.2607919999863952,1,+10,232,9.888380733956657,-0.6777424708484681,0.012109195929907557,1286204.0,8.053080797269098,-0.4992437681328017,-0.521467316822656,1289738.0,,,,,1313.0656278724985,1309.5316278724983,
73,6,21,f,1,1,65.0,27,3,high,5 + 6 - 4 - 1 + 8,14,16,15,14,1324.393808599969,1326.419609399978,1327.934753599984,1332.9527584000025,1335.4715741000257,1335.4715790000046,1336.9879534000063,1338.0053436000017,w,15.0,2.5188157000229694,0,+0,232,-2.0053066071130985,-0.5619037811671461,-0.043903095344070664,1301075.0,-0.5684757532299978,-0.008664913601245772,0.0547566041228329,1304609.0,,,,,1327.9366278724983,1324.4026278724984,
74,6,21,f,1,1,66.0,28,2,low,5 - 8 + 7 + 1 + 1,6,6,7,8,1339.5222167000177,1341.5487357000238,1343.063588900026,1348.0820589999785,1349.0237383000203,1349.023743400001,1350.5403728000238,1351.557352599979,q,6.0,0.9416793000418692,1,+1,233,7.16753729276553,-0.6248955121367938,-0.07096172392875078,1316204.0,-13.07760246922564,1.7318103931933333,0.018057315897750836,1319738.0,,,,,1343.0656278724985,1339.5316278724983,
75,6,21,f,1,1,67.0,29,2,high,6 + 8 + 1 + 1 - 7,9,8,9,11,1353.073928800004,1355.0988453999744,1356.6139461999992,1361.6339208999998,1363.3995921000023,1363.3995970999822,1364.916261299979,1365.9337257000152,e,11.0,1.7656712000025436,0,+0,233,-59.397552851760054,1.8904412106671735,0.2669707862842161,1329754.0,15.316393533427538,0.1099284368327238,0.16317703307713827,1333289.0,,,,,1356.6166278724984,1353.0816278724983,
76,6,21,f,1,1,68.0,30,4,low,4 + 9 - 7 + 8 + 5,19,20,21,19,1367.4507361999713,1369.475168999983,1370.9902244000114,1376.0083807000192,1378.3756667000123,1378.3756715999916,1379.8920991999912,1380.908914699976,e,19.0,2.367285999993328,1,+1,234,7.669065113297983,1.704688967346792,-0.0008318009985313068,1344130.0,-0.6839088481006463,-0.4245661948420345,-0.03206444229474048,1347664.0,,,,,1370.9916278724984,1367.4576278724985,
77,6,21,f,1,1,69.0,31,1,low,4 + 1 + 1 + 7 - 1,12,12,13,14,1382.4254755000002,1384.4519281000248,1385.966867399984,1390.9851871000135,1394.0476008999976,1394.0476059999785,1395.5640239000204,1396.5810170000186,q,12.0,3.062413799983915,1,+1,235,-21.57839295303757,-1.4896992454722877,-0.022822526088247308,1359107.0,10.650805482527716,0.8904654815992465,-0.03507375882262043,1362641.0,,,,,1385.9686278724985,1382.4346278724984,
78,6,21,f,1,1,70.0,32,2,low,3 + 1 + 8 - 5 - 1,6,5,6,7,1398.0977224999806,1400.1256815000088,1401.6407432999697,1406.6590861000004,1407.0636476000072,1407.063652699988,1408.5802963000024,1409.5967104000156,w,6.0,0.404561500006821,1,+1,236,-45.993920058583996,-1.2498630674203444,0.11204423800211982,1374781.0,17.958524080463114,0.5070207471907686,-0.020763106340729198,1378314.0,,,,,1401.6416278724985,1398.1086278724983,
79,6,21,f,1,1,71.0,33,1,high,6 + 9 + 1 + 1 - 1,16,15,14,16,1411.113380800001,1413.140231599973,1414.6553466999903,1419.6741992000025,1420.1756012999683,1420.175606100005,1421.6919868999976,1422.7091723000049,e,16.0,0.5014020999660715,1,+10,246,-63.84113387082418,9.88279148668655,11.933966598715408,1387795.0,-1.3923814729638408,-1.174161088677545,-0.8487151091057701,1391329.0,,,,,1414.6566278724983,1411.1226278724985,
80,6,21,f,1,1,72.0,34,1,low,7 - 1 + 9 + 1 - 1,15,13,15,14,1424.225716200017,1426.2526866999688,1427.7679466999834,1432.7866457999917,1433.359687899996,1433.359692899976,1434.8762767000007,1435.8927899000118,q,13.0,0.5730421000043862,0,+0,246,-4.653199302988821,0.49846796571710783,-0.3230126077092921,1400908.0,-36.26066941645006,0.061658538940523755,0.06594066372965846,1404442.0,,,,,1427.7696278724984,1424.2356278724983,
81,6,21,f,1,1,73.0,35,3,high,6 + 8 + 7 + 1 - 9,13,14,15,13,1437.409550899989,1439.4370266000042,1440.951744800026,1445.96980359999,1450.111711099977,1450.1117161000147,1451.6281881000032,1452.6457321000053,e,13.0,4.141907499986701,1,+10,256,-59.99115975817364,0.5527119342413407,0.003758780510348725,1414092.0,8.824471430060248,0.4204974724855415,0.021928356004207394,1417625.0,,,,,1440.9526278724984,1437.4196278724985,
82,6,21,f,1,1,74.0,36,4,low,2 + 9 - 6 + 8 - 4,9,11,9,7,1454.1623566999915,1456.1891189999878,1457.703955199977,1462.7228929999983,1464.7196829000022,1464.7196885999874,1466.2362256000051,1467.2531145000248,w,9.0,1.9967899000039324,1,+1,257,47.425099449447366,-0.48079483213451546,0.04862234719191871,1430844.0,-12.797042841922735,0.6408377546570954,0.16636787116101504,1434378.0,,,,,1457.7056278724983,1454.1716278724984,
83,6,21,f,1,1,75.0,37,3,high,7 - 6 + 8 + 1 + 7,17,17,16,15,1468.7697989000008,1470.795129999984,1472.310247800022,1477.3298269999796,1477.8396777000162,1477.839683099999,1479.3557734999922,1480.3729881999898,e,15.0,0.5098507000366226,0,+0,257,46.67809417026007,-0.3337016113237379,0.021168214709300415,1445450.0,-27.33263374657632,1.4497469747861293,0.12226890045584726,1448985.0,,,,,1472.3126278724983,1468.7776278724984,
84,6,21,f,1,2,76.0,0,1,high,9 + 8 + 1 + 1 - 1,18,20,18,17,1493.8753113999846,1495.902335599996,1497.4165435999748,1502.436141500017,1502.895750200027,1502.8957555000088,1504.4122705999762,1505.4295725999982,w,18.0,0.4596087000099942,1,+10,267,13.149946520222192,0.5032475640262555,0.5381267061469228,1470556.0,6.276564725790925,3.401924003834395,0.7475459446171784,1474090.0,,,,,1497.4176278724983,1493.8836278724984,
85,6,21,f,1,2,77.0,1,2,high,6 + 1 + 7 - 8 - 1,5,4,7,5,1506.9461034999697,1508.9726852999884,1510.4876373999869,1515.506311199977,1518.751629800012,1518.7516348999925,1520.2679021999938,1521.2853432000263,e,5.0,3.245318600034807,1,+10,277,2.188529920770106,0.1492650483860043,-0.1254084209901194,1483627.0,-15.601652693523405,0.3635150730483687,-0.13715837673900966,1487161.0,,,,,1510.4886278724985,1506.9546278724983,
86,6,21,f,1,2,78.0,2,2,high,2 + 9 + 1 + 1 - 5,8,7,8,6,1522.8019566999865,1524.8271267000237,1526.3421791999715,1531.360097399971,1531.7837379000266,1531.783743100008,1533.300078500004,1534.3173496000236,w,8.0,0.423640500055626,1,+10,287,24.36688298378194,0.3697744370817837,0.3254423353213156,1499482.0,13.954257752127159,-0.05770229038480945,0.08212516367611267,1503015.0,,,,,1526.3426278724985,1522.8096278724984,
87,6,21,f,1,2,79.0,3,3,low,6 - 1 + 7 - 8 + 9,13,13,11,12,1535.8339960000012,1537.8600834999816,1539.37484210002,1544.3936189999804,1546.463690100005,1546.4636950999848,1547.9800557999988,1548.99727729999,w,11.0,2.0700711000245064,0,+0,287,52.107911983872675,1.0798869778685845,0.12511107250746578,1512515.0,25.061428279367362,0.3339694216484679,-5.069929942265535,1516048.0,,,,,1539.3756278724984,1535.8426278724985,
88,6,21,f,1,2,80.0,4,1,low,2 + 1 + 1 + 9 - 1,12,13,12,11,1550.5141210000147,1552.5390472,1554.0542790999752,1559.07289760001,1559.503632500011,1559.5036371999886,1561.0202288000146,1562.0361304000253,w,12.0,0.4307349000009708,1,+1,288,13.026171066793061,0.17544015191266826,-0.24392775761235974,1527194.0,-54.449869240862085,0.6183224857385934,0.6518192318225533,1530727.0,,,,,1554.0546278724985,1550.5216278724984,
89,6,21,f,1,2,81.0,5,3,low,4 + 8 - 9 + 1 + 7,11,11,9,13,1563.5528177000233,1565.5789695999702,1567.093742500001,1572.1124749999726,1572.7277442999766,1572.727749600017,1574.244073799986,1575.2610793000204,q,11.0,0.6152693000040017,1,+1,289,-24.685256144293255,-0.48885607648643514,0.20259406823941672,1540233.0,21.87696669606326,0.3607316027190892,0.09422628125612675,1543767.0,,,,,1567.0946278724984,1563.5606278724983,
90,6,21,f,1,2,82.0,6,4,low,4 + 7 + 8 - 3 + 9,25,25,24,26,1576.777687499998,1578.8047099999967,1580.3198619000032,1585.3384562999709,1589.3277888000011,1589.3277939999823,1590.8444571999717,1591.861698599998,e,26.0,3.989332500030287,0,+0,289,23.50738032367788,0.6842408327986442,-0.06842998207129147,1553459.0,-35.45464458881986,0.6059861910373803,-0.28814756911153294,1556993.0,,,,,1580.3206278724983,1576.7866278724985,
91,6,21,f,1,2,83.0,7,2,low,7 + 6 + 1 - 1 - 8,5,5,3,4,1593.3786000999971,1595.4013869999908,1596.9166006000014,1601.9348432999686,1604.5437247999944,1604.543731199985,1606.0602231000084,1607.0770392999984,q,5.0,2.608881500025745,1,+1,290,3.3187210547530626,0.9305042622436064,-0.16639440988370646,1570056.0,23.802780769676005,2.27458492710194,0.020573570189494905,1573589.0,,,,,1596.9166278724983,1593.3836278724984,
92,6,21,f,1,2,84.0,8,3,high,5 - 1 - 4 + 6 + 7,13,15,14,13,1608.5946686000098,1610.6207322999835,1612.1356114000082,1617.15392110002,1620.65578869998,1620.6557935000164,1622.1723255999968,1623.1885312999948,e,13.0,3.501867599959951,1,+10,300,33.02386489120218,-0.09394149456320733,0.055399904008871736,1585275.0,15.41023163857277,1.4445170699840855,0.06282248782083366,1588808.0,,,,,1612.1356278724984,1608.6026278724985,
93,6,21,f,1,2,85.0,9,3,high,6 + 1 + 8 + 7 - 9,13,13,14,15,1624.7055925999884,1626.730194600008,1628.2452540000086,1633.2636149000027,1633.9758121999912,1633.9758170999703,1635.4922412000014,1636.509508999996,q,13.0,0.7121972999884747,1,+10,310,17.825503919967737,-0.3622113012613477,0.18082093491891582,1601384.0,10.283712292829565,0.7049362506373136,0.09629178995435028,1604918.0,,,,,1628.2456278724983,1624.7116278724984,
94,6,21,f,1,2,86.0,10,4,high,8 + 4 + 7 - 5 - 6,8,8,6,9,1638.026068200008,1640.0533542999765,1641.568332900002,1646.5870942000183,1649.0157242999994,1649.0157291999783,1650.53221949999,1651.5495203000028,q,8.0,2.428630099981092,1,+10,320,-6.955049139688937,1.3046010582751917,0.14382664527305034,1614707.0,-15.375550416883815,0.8532940560995179,0.5924842107417456,1618241.0,,,,,1641.5686278724984,1638.0346278724985,
95,6,21,f,1,2,87.0,11,1,low,6 + 1 + 1 + 7 - 1,14,12,13,14,1653.0658138999715,1655.0926182999974,1656.6077567000175,1661.626149400021,1662.6077375999885,1662.6077422000235,1664.1242757000146,1665.141263699974,e,14.0,0.9815881999675184,1,+1,321,9.52028487609424,-2.1480865532005335,-1.0214980464315477,1629746.0,-2.7517314286009054,-0.6035794535251515,0.016906108506465678,1633280.0,,,,,1656.6076278724984,1653.0736278724985,
96,6,21,f,1,2,88.0,12,3,high,4 + 5 - 3 + 7 - 1,12,11,12,13,1666.6579579000245,1668.6850337000214,1670.1997936000116,1675.218194200017,1675.63983,1675.6398348999792,1677.15590469999,1678.1728002000018,w,12.0,0.4216357999830507,1,+10,331,51.44332113472911,0.10509954108802155,0.04737767434249385,1643339.0,11.924467093973291,0.8551970699654712,-0.43302893854845736,1646872.0,,,,,1670.1996278724985,1666.6666278724983,
97,6,21,f,1,2,89.0,13,2,high,2 + 9 - 4 + 1 + 1,9,11,8,9,1679.689490800025,1681.7159988000058,1683.2311517000198,1688.2488864000188,1691.639842399978,1691.6398473000154,1693.156278599985,1694.1735677000252,e,9.0,3.39095599995926,1,+10,341,12.149865910056668,0.9506924549319535,0.13746030068829285,1656370.0,0.750769548713837,0.24333283320427324,-0.14372791066165425,1659903.0,,,,,1683.2306278724984,1679.6976278724983,
98,6,21,f,1,2,90.0,14,4,low,2 + 9 - 3 + 5 + 8,21,21,22,23,1695.690137700003,1697.7170299999998,1699.2320753000097,1704.2505493999925,1704.8797737999705,1704.8797788000084,1706.3961610000115,1707.413270000019,q,21.0,0.6292243999778293,1,+1,342,-2.9984895251154917,0.8517973481567287,0.15611541846878607,1672371.0,-9.926669688246278,1.2129599799839461,0.05783181790184777,1675905.0,,,,,1699.2326278724984,1695.6986278724985,
99,6,21,f,1,2,91.0,15,1,high,3 + 1 + 8 + 1 + 1,14,13,16,14,1708.930218799971,1710.9568199000205,1712.4718536,1717.4900150999893,1717.967898599978,1717.967903300014,1719.4841522999925,1720.5010462999926,e,14.0,0.4778834999888204,1,+10,352,-23.860600138131257,0.27216327758588754,0.13246125962381328,1685610.0,11.770110074679822,0.2234360006841536,-0.017946125011584435,1689144.0,,,,,1712.4716278724984,1708.9376278724983,
100,6,21,f,1,2,92.0,16,2,low,6 + 1 + 1 + 8 - 9,7,7,9,5,1722.0177158999722,1724.0442665999872,1725.5594691999722,1730.577406700002,1731.1118400999694,1731.1118452000082,1732.6279175999807,1733.644482899981,q,7.0,0.5344333999673836,1,+1,353,3.618443659736311,0.43516323586218775,-0.18636559204556846,1698697.0,-30.140541777527424,0.7255863693403279,0.19314410190042697,1702231.0,,,,,1725.5586278724984,1722.0246278724983,
101,6,21,f,1,2,93.0,17,4,high,5 + 8 - 4 - 6 + 9,12,14,13,12,1735.1610134000075,1737.1855808999971,1738.7006438000244,1743.719806100009,1746.431830100017,1746.4318350999963,1747.9486263999715,1748.966433499998,w,13.0,2.712024000007659,0,+0,353,28.196336124915618,0.3779786248157544,0.1959796154463631,1711839.0,-40.790928203081194,1.5160532938103106,0.05786792065635771,1715373.0,,,,,1738.7006278724984,1735.1666278724983,
102,6,21,f,1,2,94.0,18,3,low,3 + 1 + 8 - 5 + 9,16,16,15,17,1750.483474800014,1752.5066118999966,1754.0217798000083,1759.0397835000183,1760.3437788999872,1760.3437839000253,1761.8601557000077,1762.8771411000052,e,17.0,1.3039953999686986,0,+0,353,10.552401076625845,-0.006247421240157536,0.413239243471601,1727160.0,-41.776032669224946,0.2788456810606892,0.11240580549620871,1730693.0,,,,,1754.0206278724984,1750.4876278724985,
103,6,21,f,1,2,95.0,19,3,low,7 - 5 + 9 + 1 - 4,8,8,7,9,1764.3939672000124,1766.421012900013,1767.9361667999765,1772.9550094999722,1773.591862500005,1773.5918679999886,1775.1082981000072,1776.125744900026,q,8.0,0.6368530000327155,1,+1,354,10.652116909128583,-4.409238999531313,-7.875156648593952,1741074.0,28.270143065646526,0.38060479960062743,-2.2732837470588936,1744608.0,,,,,1767.9356278724983,1764.4016278724985,
104,6,21,f,1,2,96.0,20,3,low,3 + 1 + 8 - 5 + 6,13,15,13,14,1777.642237299995,1779.6671803999925,1781.1822876000078,1786.2001608000137,1786.8398406999768,1786.839845600014,1788.3565086000017,1789.3734016999952,w,13.0,0.6396798999630846,1,+1,355,5.717761279891861,-1.447747056634804,0.021342332561809396,1754321.0,-29.006318809673363,0.20928629059582082,0.14790511751998414,1757854.0,,,,,1781.1816278724984,1777.6486278724983,
105,6,21,f,1,2,97.0,21,1,low,7 - 1 + 8 + 1 - 1,14,13,12,14,1790.8899861000243,1792.9161223000265,1794.4313188000233,1799.450127499993,1800.7198128000018,1800.7198175999802,1802.2361570000064,1803.2531395999831,e,14.0,1.2696853000088597,1,+1,356,-4.42405605219561,-0.9104679478527089,0.12808591325869267,1767570.0,-50.728346302414195,-0.3179442136728641,0.13324588019937433,1771103.0,,,,,1794.4306278724985,1790.8976278724983,
106,6,21,f,1,2,98.0,22,3,high,7 - 1 + 9 - 5 + 4,14,15,14,13,1804.7693500000169,1806.7952807000256,1808.3101332000224,1813.3303037000005,1813.8718853999744,1813.871890300012,1815.3884427999728,1816.405950699991,w,14.0,0.5415816999739036,1,+10,366,0.697266465200272,0.17850583921497787,-0.10806220580254422,1781449.0,-9.302975147592784,0.4110526646127086,0.08543501352854799,1784983.0,,,,,1808.3106278724983,1804.7766278724985,
107,6,21,f,1,2,99.0,23,3,low,4 + 1 + 8 + 9 - 5,17,19,17,18,1817.9225703999984,1819.9463556000264,1821.461577999988,1826.4797053000077,1827.02395100001,1827.0239595000169,1828.540042800014,1829.5570739000104,w,17.0,0.5442457000026479,1,+1,367,16.09388817114537,0.06075461478690691,0.10944529206544562,1794599.0,6.624453793950684,0.29254678628372766,-0.0019573475415382013,1798133.0,,,,,1821.4606278724984,1817.9266278724983,
108,6,21,f,1,2,100.0,24,4,high,9 + 4 - 6 + 8 + 7,22,24,21,22,1831.073142600013,1833.099072500016,1834.614200100012,1839.6321968000263,1842.4799134000205,1842.4799183,1843.9963158000028,1845.0137740999928,e,22.0,2.8477165999938734,1,+10,377,-5.103444217376282,0.48027005721045324,0.21122116317193962,1807752.0,8.182369432969928,1.2729862886694772,0.16515513109334878,1811286.0,,,,,1834.6136278724985,1831.0796278724983,
109,6,21,f,1,2,101.0,25,4,low,2 + 5 - 3 + 9 + 8,21,19,21,22,1846.530080700002,1848.5634215999744,1850.0785624000127,1855.0966409000105,1857.1438984000124,1857.143904800003,1858.6601661000168,1859.676411100023,w,21.0,2.0472575000021607,1,+1,378,-7.973673577652878,-1.2966471772110673,0.7783676072937515,1823216.0,-31.92000246206066,0.09532125265138713,-1.902576216886267,1826750.0,,,,,1850.0776278724984,1846.5436278724983,
110,6,21,f,1,2,102.0,26,4,low,3 + 9 - 4 + 7 + 6,21,21,19,20,1861.192925899988,1863.215676399996,1864.7308904000088,1869.7493196,1872.263916199969,1872.2639212000067,1873.7808502999835,1874.797838700004,q,21.0,2.5145965999690816,1,+1,379,32.29102593725965,0.5487102100279957,0.11898178482150668,1837869.0,33.10322913759896,0.8298341630006378,-0.07392028841107479,1841402.0,,,,,1864.7296278724984,1861.1966278724983,
111,6,21,f,1,2,103.0,27,4,low,9 + 8 - 5 - 7 + 6,11,11,13,10,1876.315551000007,1878.33877620002,1879.8545387000197,1884.8730145000156,1886.4158847000217,1886.4158893999995,1887.9321932999885,1888.949611100019,e,10.0,1.5428702000062913,0,+0,379,-13.63468043572319,0.4585330145955977,-0.017702661522148944,1852992.0,14.170056587477571,1.0501911621269704,0.14157598587294506,1856526.0,,,,,1879.8536278724985,1876.3196278724984,
112,6,21,f,1,2,104.0,28,2,low,6 + 1 + 8 + 5 - 1,19,19,18,17,1890.4664074999744,1892.4950025000144,1894.009731099999,1899.0280734000264,1900.1998419999727,1900.199846600008,1901.7161347999936,1902.732966099982,q,19.0,1.1717685999465175,1,+1,380,4.0862394877479336,0.7374719704640658,-0.1082846757346938,1867148.0,-4.642440474545258,0.6465816388751406,-0.09980127649552184,1870681.0,,,,,1894.0086278724984,1890.4756278724983,
113,6,21,f,1,2,105.0,29,2,high,6 + 1 + 8 + 7 - 1,21,23,21,19,1904.249556900002,1906.2768021000084,1907.7916264000232,1912.8096544999864,1914.799996900023,1914.800002000004,1916.3161451999915,1917.3331009999963,w,21.0,1.990342400036752,1,+10,390,-13.037644588922674,0.07346324440448537,-0.823678436795344,1880930.0,21.69572035111146,1.7631404367714496,1.8558474732727568,1884463.0,,,,,1907.7906278724984,1904.2576278724985,
114,6,21,f,1,2,106.0,30,2,low,5 + 7 - 8 + 1 + 1,6,7,6,8,1918.8497531000176,1920.8773557000093,1922.3924911000067,1927.412540899997,1928.040152499976,1928.0401575000144,1929.555890800024,1930.5728146000183,w,6.0,0.6276115999789909,1,+1,391,-9.043243542580363,0.5699446004143325,-0.8946093308980752,1895530.0,13.48250927963915,1.2445782393419855,0.20924616596546386,1899065.0,,,,,1922.3926278724985,1918.8576278724984,
115,6,21,f,1,2,107.0,31,2,high,4 + 1 + 9 + 1 - 6,9,7,9,8,1932.0895162000088,1934.1164019000132,1935.6315119999929,1940.649346299993,1940.999945699994,1940.9999502999708,1942.5162270999865,1943.533091899997,w,9.0,0.3505994000006467,1,+10,401,7.293306295752048,-0.09160167551365728,-0.01801630515061614,1908769.0,5.689608595190492,1.0542654602325925,0.053947274092115194,1912302.0,,,,,1935.6296278724983,1932.0966278724984,
116,6,21,f,1,2,108.0,32,2,low,9 + 6 + 1 + 7 + 1,24,25,23,24,1945.0497048000109,1947.075358300004,1948.5905717000128,1953.6096534000244,1954.087927100016,1954.087931999995,1955.6042474000133,1956.6211399000024,e,24.0,0.478273699991405,1,+1,402,7.720149191560655,-8.39873252479299,-12.244764590848712,1921728.0,6.169347905429703,1.317880686445398,0.06909570123406628,1925262.0,,,,,1948.5896278724983,1945.0556278724985,
117,6,21,f,1,2,109.0,33,1,low,7 - 1 + 1 + 9 - 1,15,14,13,15,1958.1375949999783,1960.164896800008,1961.679828500026,1966.6985758999945,1967.943934799987,1967.943939700024,1969.4602536999737,1970.4771279999984,e,15.0,1.245358899992425,1,+1,403,2.9252123942142525,-0.2991176447151025,-0.22286757536791102,1934817.0,0.9433412129583303,0.6362451945862162,-0.25692670578957033,1938351.0,,,,,1961.6786278724985,1958.1446278724984,
118,6,21,f,1,2,110.0,34,1,low,8 + 1 + 1 + 1 - 3,8,9,8,6,1971.993775299983,1974.017755399982,1975.532641400001,1980.5506957999896,1981.4718990999968,1981.4719037999748,1982.9882246999769,1984.005211999989,w,8.0,0.921203300007619,1,+1,404,-18.569491621326932,-0.5412339708092828,-0.1480370415803951,1948670.0,10.069712731673652,0.6116944229287982,0.1760511712059647,1952203.0,,,,,1975.5306278724984,1971.9976278724985,
119,6,21,f,1,2,111.0,35,1,high,3 + 1 + 9 + 1 + 1,15,14,17,15,1985.52255709999,1987.550408900017,1989.0664123999888,1994.0844426000256,1994.608034999983,1994.6080398000197,1996.1245444000235,1997.1418308999853,e,15.0,0.5235923999571241,1,+10,414,-33.70627468518694,0.3518808902367452,0.01799297217178175,1962203.0,4.204799779988944,0.02899398282053589,-0.3059960979275673,1965737.0,,,,,1989.0646278724985,1985.5306278724984,
120,6,21,f,1,2,112.0,36,4,low,8 + 7 - 4 + 5 + 9,25,25,26,24,1998.6584503999911,2000.6845818000147,2002.2001577999908,2007.2185535000167,2010.1366871999928,2010.13669319998,2011.653281199979,2012.670199799992,q,25.0,2.918133699975442,1,+1,415,4.6118150093861185,0.631087386880969,-0.07540449118112891,1975337.0,-12.322623064169985,1.0197876699889106,0.2991498247225137,1978871.0,,,,,2002.1986278724985,1998.6646278724984,
121,6,21,f,1,2,113.0,37,2,high,8 + 1 + 9 + 1 - 5,14,14,13,15,2014.1868318999768,2016.213281799981,2017.7285116999992,2022.7465504999852,2023.271930399991,2023.271938299993,2024.788243999996,2025.805224300013,q,14.0,0.525379900005646,1,+10,425,-22.734743163677866,6.066801746374993,10.90637521415794,1990865.0,36.00288230806433,-5.212140839646527,-0.37306888410391803,1994399.0,,,,,2017.7266278724983,2014.1926278724984,
122,6,21,f,1,3,114.0,0,3,high,5 + 6 - 4 - 1 + 7,13,14,13,15,2061.0200953999883,2063.047496700019,2064.5625524999923,2069.582555299974,2070.656110799988,2070.656115700025,2072.172512900026,2073.189964900026,w,13.0,1.0735555000137538,1,+10,435,4.863875746630956,1.878486471737748,-0.15385060093303693,2037700.0,-1.6729387922066294,0.17231688411039592,-0.3522457409561963,2041234.0,,,,,2064.5616278724983,2061.027627872498,
123,6,21,f,1,3,115.0,1,2,high,4 + 9 - 7 + 1 - 1,6,6,5,8,2074.706586199987,2076.7310560999904,2078.2461666999734,2083.2671604999923,2083.951999299985,2083.952004700026,2085.468374899996,2086.485701299971,e,8.0,0.6848387999925762,0,+0,435,-10.3633592529806,0.08074446449330264,0.011733154870837925,2051383.0,-6.36320528776028,0.5265882504674773,-0.003583595788641869,2054918.0,,,,,2078.2456278724985,2074.710627872498,
124,6,21,f,1,3,116.0,2,3,low,7 - 1 + 8 - 6 + 4,12,12,13,11,2088.002175899979,2090.029822600016,2091.544692799973,2096.5644678000244,2097.1761396999937,2097.1761445999728,2098.6932693999843,2099.7101356000057,q,12.0,0.6116718999692239,1,+1,436,20.79904081952565,0.9406528791358513,-0.4188124171976728,2064681.0,-29.064577384145636,0.9403707035759337,-0.11611600016710732,2068216.0,,,,,2091.5436278724983,2088.0086278724984,
125,6,21,f,1,3,117.0,3,2,high,9 + 4 - 6 + 1 - 1,7,9,7,8,2101.226809200016,2103.254615199985,2104.7699037999846,2109.788016000006,2110.344013499969,2110.344018200005,2111.860663599975,2112.8776471000165,q,9.0,0.5559974999632686,0,+0,436,-7.362680722248927,0.5848542510718948,-0.912257601957585,2077906.0,14.920305161898048,0.4734178315643267,-0.015584783315012674,2081440.0,,,,,2104.7676278724985,2101.2336278724983,
126,6,21,f,1,3,118.0,4,2,low,8 + 1 + 9 + 1 - 4,15,15,14,16,2114.3946137999883,2116.42270689999,2117.9373788000084,2122.955094799981,2123.8320291999844,2123.8320342000225,2125.3485871999874,2126.365273399977,q,15.0,0.8769344000029378,1,+1,437,-10.515421487682119,0.8838001366130119,-0.5809009576793251,2091074.0,-18.747460058839323,1.8674993493202687,0.07117133352859484,2094607.0,,,,,2117.9346278724984,2114.4016278724985,
127,6,21,f,1,3,119.0,5,1,high,9 + 8 + 1 + 1 - 1,18,18,17,19,2127.88191940001,2129.910777300014,2131.425710899988,2136.444166900008,2137.0880059999763,2137.088010700012,2138.604171700019,2139.62147329998,q,18.0,0.6438390999683179,1,+10,447,13.257511535932064,0.5537339418522702,0.4117087756352964,2104562.0,9.658097543460254,-0.19801555712489005,-5.577652310395947,2108095.0,,,,,2131.422627872498,2127.8896278724983,
128,6,21,f,1,3,120.0,6,2,low,9 + 4 + 5 + 1 - 1,18,17,18,19,2141.138086299994,2143.166728899989,2144.681734599988,2149.698869100015,2150.3921311000013,2150.392136199982,2151.909228399978,2152.926550199976,w,18.0,0.6932619999861345,1,+1,448,22.170613221726548,1.2537753370285283,0.15075058443867828,2117818.0,11.354772302980532,0.6963083812198145,0.021471304126840396,2121351.0,,,,,2144.6786278724985,2141.1456278724986,
129,6,21,f,1,3,121.0,7,4,low,8 + 4 + 7 - 5 - 6,8,9,6,8,2154.44288659998,2156.4683684000047,2157.983504600008,2163.002108399989,2164.8481404000195,2164.8481454,2166.3643390000216,2167.381499900017,w,6.0,1.846032000030391,0,+0,448,9.692596002242578,0.11136469768814194,-2.579515598709057,2131120.0,3.2628884028669027,1.5134464077277086,-0.4310000637121538,2134653.0,,,,,2157.980627872498,2154.4476278724983,
130,6,21,f,1,3,122.0,8,2,high,3 + 9 - 1 - 5 + 1,7,7,5,6,2168.8982404000126,2170.921999400016,2172.4371563000022,2177.455145100015,2179.568136600021,2179.5681416000007,2181.084368799988,2182.101155799988,w,5.0,2.112991500005592,0,+0,448,27.38626871481928,0.6328943161528038,0.06938142242404344,2145573.0,-18.885810948839826,0.40149332410814154,0.03730265107231401,2149106.0,,,,,2172.4336278724986,2168.9006278724983,
131,6,21,f,1,3,123.0,9,4,high,8 + 4 - 5 + 7 - 6,8,7,8,6,2183.617751999991,2185.644736999995,2187.159802099981,2192.178248499986,2192.7041217000224,2192.704126800003,2194.221041299985,2195.237927099981,w,8.0,0.5258732000365853,1,+10,458,-15.120264823797452,1.7155995113593954,-0.01089908296694242,2160296.0,2.0366918977478035,0.4431532822008384,-0.08351296635864824,2163829.0,,,,,2187.1566278724986,2183.623627872498,
132,6,21,f,1,3,124.0,10,2,low,4 + 8 + 1 + 1 - 5,9,9,8,11,2196.754236000008,2198.7824001000263,2200.297332899994,2205.3157845999813,2205.9201692999923,2205.920174299972,2207.4366625000257,2208.453520899988,q,9.0,0.6043847000109963,1,+1,459,5.024057244356321,2.274462024071039,-5.247435570680748,2173433.0,-22.476534716170093,0.9957888283585614,-0.09280272482829588,2176967.0,,,,,2200.2946278724985,2196.7606278724984,
133,6,21,f,1,3,125.0,11,4,high,4 + 7 - 8 + 9 - 3,9,9,8,11,2209.9701747000217,2211.99787989998,2213.5130811000126,2218.5317351999693,2219.5921362999943,2219.592141299974,2221.109071300016,2222.1263795999694,q,9.0,1.0604011000250466,1,+10,469,23.200271934036206,-0.34149081611078547,-0.034509752378939496,2186649.0,-58.27849049214812,0.2587588784797372,0.11557093083631265,2190183.0,,,,,2213.5106278724984,2209.9766278724983,
134,6,21,f,1,3,126.0,12,2,low,3 + 8 - 5 + 1 + 1,8,8,6,9,2223.6429977000225,2225.6707573999884,2227.1858633999946,2232.204272200004,2234.1200902999844,2234.12009500002,2235.6367016999866,2236.653933399997,w,6.0,1.9158180999802423,0,+0,469,-34.42030847234733,1.7505253974769648,0.34686355564323046,2200322.0,31.135581195149552,0.08922119749312962,-0.8026223212619761,2203855.0,,,,,2227.1826278724984,2223.6496278724985,
135,6,21,f,1,3,127.0,13,1,low,4 + 7 + 1 - 1 - 1,10,11,9,10,2238.170597499993,2240.1980674000224,2241.713304999983,2246.7317066999967,2247.18408560002,2247.184090299997,2248.700462399982,2249.717833400005,e,10.0,0.4523789000231772,1,+1,470,21.589608231086352,0.5411307947466102,0.04443300476391032,2214849.0,-29.303356840218594,1.2160318966036483,-0.0339353113704115,2218383.0,,,,,2241.710627872498,2238.1766278724986,
136,6,21,f,1,3,128.0,14,4,low,3 + 8 - 7 + 9 - 5,8,7,9,8,2251.234360200004,2253.260444900021,2254.775545499986,2259.794146700005,2262.6561599000124,2262.656165399996,2264.1727323000086,2265.1895963000134,e,8.0,2.8620132000069134,1,+1,471,-14.78105174172051,-0.5497235256559874,0.010634868855822655,2227911.0,7.924817608745882,1.5797998852922799,0.11905335955360696,2231445.0,,,,,2254.7726278724986,2251.2386278724985,
137,6,21,f,1,3,129.0,15,4,high,3 + 8 - 5 + 9 - 7,8,7,8,6,2266.7061380000087,2268.7339570000186,2270.2483845999814,2275.266857600014,2276.8161882999702,2276.8161932000075,2278.332767100015,2279.350118100003,e,6.0,1.5493306999560446,0,+0,471,-44.59952926396217,0.27912313679785594,-0.5656954278830648,2243385.0,-61.0799423980216,0.7737335152551053,0.7303381908494528,2246918.0,,,,,2270.2456278724985,2266.7126278724986,
138,6,21,f,1,3,130.0,16,3,low,2 + 1 + 9 - 5 + 6,13,13,14,11,2280.8664581999765,2282.890984400001,2284.406188699999,2289.424224300019,2290.392243899987,2290.392248600023,2291.9087504000054,2292.9255981000024,q,13.0,0.9680195999681018,1,+1,472,-6.843245521128196,10.303946850326952,6.713551653306613,2257542.0,21.714827818436945,0.3194488918545382,-1.4534167513817908,2261075.0,,,,,2284.402627872498,2280.8696278724983,
139,6,21,f,1,3,131.0,17,2,high,7 + 1 + 9 - 1 - 8,8,6,8,7,2294.4422949000145,2296.468149200024,2297.9834102999885,2303.0019898000173,2303.432107199973,2303.432112300012,2304.9484251000104,2305.9657277999795,w,8.0,0.430117399955634,1,+10,482,38.077815327854836,-0.19756444361192393,0.1362296379302692,2271119.0,-15.649407467517566,0.366430072375044,-0.40958251714282623,2274653.0,,,,,2297.980627872498,2294.4466278724985,
140,6,21,f,1,3,132.0,18,2,low,6 + 1 + 1 + 7 - 9,6,6,8,4,2307.482382300019,2309.5105083999806,2311.025760299992,2316.044056100014,2316.5122653999715,2316.512270200008,2318.028778799984,2319.0456562999752,q,6.0,0.4682092999573797,1,+1,483,24.727606919860854,1.3259904035779595,0.039957238321037813,2284161.0,35.051482245821674,1.4934582585745182,0.1606759956319641,2287695.0,,,,,2311.0226278724986,2307.4886278724985,
141,6,21,f,1,3,133.0,19,3,high,5 + 1 + 7 - 8 + 6,11,9,11,13,2320.5622971000266,2322.5905252000084,2324.1059767999686,2329.124631099985,2330.040232800005,2330.0402377999853,2331.5566150000086,2332.573990600009,w,11.0,0.9156017000204884,1,+10,493,12.317668331278218,1.7603697692681486,0.16148586643399554,2297241.0,3.503137392831336,-0.12103050231902035,-1.20915705936818,2300775.0,,,,,2324.1026278724985,2320.5686278724984,
142,6,21,f,1,3,134.0,20,4,high,4 + 7 + 9 - 5 + 7,22,23,24,22,2334.0906544000027,2336.130658500013,2337.645682399976,2342.6641708000097,2345.01616150001,2345.016166699992,2346.532742100011,2347.55000019999,w,24.0,2.351990700000897,0,+0,493,-1.016263856212774,-0.15646045821228238,-0.011091540501384056,2310781.0,-22.867384279716504,0.7959486181801214,0.16659392483044355,2314315.0,,,,,2337.6426278724985,2334.1086278724983,
143,6,21,f,1,3,135.0,21,4,high,3 + 9 - 5 + 6 + 8,21,22,21,23,2349.0663176000235,2351.0939987999736,2352.608848600008,2357.626918800001,2358.152156799973,2358.15216160001,2359.668486199982,2360.684897599974,w,21.0,0.5252379999728873,1,+10,503,6.060931304407529,-0.3953226472445781,-0.3104272585175236,2325744.0,-5.44057495915184,1.2034456700119573,-0.08263371851744994,2329277.0,,,,,2352.6046278724984,2349.0716278724985,
144,6,21,f,1,3,136.0,22,1,low,7 + 1 + 6 + 1 + 1,16,16,17,18,2362.2015563999885,2364.2298565999954,2365.74497900001,2370.7628323999816,2371.496192599996,2371.4961972999736,2373.01270989998,2374.0294775000075,q,16.0,0.733360200014431,1,+1,504,9.931159118709045,0.4370343859918018,-0.06406730594016619,2338880.0,44.321359471760445,-0.15642617117364033,0.22520110148486494,2342413.0,,,,,2365.7406278724984,2362.2076278724985,
145,6,21,f,1,3,137.0,23,1,high,8 - 1 + 1 + 6 + 1,15,15,14,16,2375.5460284000146,2377.5739421999897,2379.089059200021,2384.1078396000084,2384.7121928000124,2384.712197999994,2386.2289795000106,2387.2463502999744,q,15.0,0.6043532000039704,1,+10,514,8.054058243105588,0.6724860213064323,0.09585722554288689,2352224.0,15.142360923090576,0.7861690658744065,0.21850291792955545,2355758.0,,,,,2379.085627872498,2375.5516278724986,
146,6,21,f,1,3,138.0,24,3,low,7 + 5 + 9 + 1 - 6,16,14,15,16,2388.762961999979,2390.787134499988,2392.3020113999955,2397.320372799993,2400.624219699996,2400.624224899977,2402.1406247999985,2403.157050399983,e,16.0,3.3038469000021,1,+1,515,38.071347249153554,-1.4826432080935739,-2.4858464188756018,2365437.0,6.661181531227474,0.8106042393413757,-0.682922745535401,2368971.0,,,,,2392.2986278724984,2388.7646278724983,
147,6,21,f,1,3,139.0,25,2,low,9 + 1 + 6 + 7 + 1,24,23,24,25,2404.673755700001,2406.700550300011,2408.215778400016,2413.234627800004,2414.8882013999973,2414.888206099975,2416.404245099984,2417.4213511999696,q,23.0,1.6535735999932513,0,+0,515,6.248472077644555,-2.1894337723949775,-4.156501374681146,2381350.0,-6.550794426690693,0.7700363618376977,-7.6041521124232165,2384885.0,,,,,2408.2126278724986,2404.6776278724983,
148,6,21,f,1,3,140.0,26,1,low,2 + 9 + 1 + 1 + 1,14,12,14,13,2418.9388952999725,2420.965118299995,2422.480153899989,2427.49734240002,2427.888203300012,2427.888208599994,2429.404728499998,2430.421797999996,w,14.0,0.3908608999918215,1,+1,516,27.909806372572582,0.2330676238631586,0.2666860361848742,2395615.0,18.198699136611673,0.6619757983371333,-0.2113746501602063,2399148.0,,,,,2422.4756278724985,2418.942627872498,
149,6,21,f,1,3,141.0,27,3,high,8 - 1 + 6 - 7 + 5,11,11,13,12,2431.938354199985,2433.965705899988,2435.480472299969,2440.5004104999825,2441.0082338000066,2441.008238599985,2442.5246036999743,2443.541893400019,q,11.0,0.5078233000240289,1,+10,526,21.540487405742347,0.8686073539183683,-1.1015379786965438,2408616.0,53.737893413208724,1.04215390512277,0.8573486040515808,2412150.0,,,,,2435.4776278724985,2431.9436278724984,
150,6,21,f,1,3,142.0,28,2,high,6 + 1 + 7 + 5 - 1,18,16,17,18,2445.0584485,2447.085691699991,2448.600721299997,2453.6190369999968,2455.696218499972,2455.6962246000185,2457.212452900014,2458.2298343,e,18.0,2.077181499975268,1,+10,536,25.811366920821964,-0.9898661895404617,0.397754278729757,2421735.0,-3.210489163529182,0.4682295732323212,-0.03795794126968688,2425269.0,,,,,2448.596627872498,2445.0626278724985,
151,6,21,f,1,3,143.0,29,1,high,8 + 1 + 5 + 1 + 1,16,16,17,15,2459.746050400019,2461.774069499981,2463.289110500016,2468.306958500005,2468.896263599978,2468.896268600016,2470.412637399975,2471.429798899975,q,16.0,0.5893050999729894,1,+10,546,15.39304603013382,0.0361339905046405,-0.4051543937474844,2436424.0,-2.473929719819722,0.30939707791753523,0.13716502611513448,2439957.0,,,,,2463.2846278724983,2459.7516278724984,
152,6,21,f,1,3,144.0,30,1,high,2 + 9 + 1 + 1 + 1,14,12,14,13,2472.946447300026,2474.969698300003,2476.4846820000093,2481.5026707000216,2481.9523249000194,2481.952330100001,2483.468825499993,2484.485822600021,w,14.0,0.4496541999978944,1,+10,556,24.0868570841509,0.12509305307459595,0.15074424620785298,2449620.0,-0.8456503499464976,0.33549425982604264,-0.25768383530650185,2453152.0,,,,,2476.4796278724984,2472.9476278724983,
153,6,21,f,1,3,145.0,31,3,low,3 + 8 - 7 + 1 + 9,14,12,14,13,2486.002413099981,2488.029295300017,2489.5442856000154,2494.5631325999857,2495.424282199994,2495.4242874999763,2496.9407309999806,2497.9579262000043,w,14.0,0.8611496000085026,1,+1,557,-16.916918677463578,-0.9697862311707564,-0.15885439536260715,2462679.0,3.2390856990384247,0.5052669643336776,0.08234325914077933,2466213.0,,,,,2489.5406278724986,2486.0066278724985,
154,6,21,f,1,3,146.0,32,3,low,8 + 4 + 1 - 7 + 9,15,13,15,16,2499.475256100006,2501.5013088000123,2503.016309199971,2508.034525999974,2511.560367500002,2511.5603722999804,2513.076965400018,2514.094274299976,w,15.0,3.5258415000280365,1,+1,558,-1.9163402261454596,-0.17461785354841552,-0.002257451665727217,2476151.0,-10.574260567179643,0.08442548269683847,0.20291447673502772,2479684.0,,,,,2503.0116278724986,2499.4786278724982,
155,6,21,f,1,3,147.0,33,1,low,2 + 1 + 9 + 1 + 1,14,14,13,12,2515.6110563999973,2517.637487099972,2519.1517191000166,2524.1704049999826,2524.984260600002,2524.98426529998,2526.5007579000085,2527.5176391999703,q,14.0,0.8138556000194512,1,+1,559,-4.74751064432758,0.7697680185242106,-0.053966870585029136,2492287.0,2.70808074266163,0.3400903947707006,-0.002638815429827357,2495820.0,,,,,2519.1476278724986,2515.614627872498,
156,6,21,f,1,3,148.0,34,4,low,9 + 3 - 5 + 8 + 6,21,23,21,19,2529.03498539998,2531.0611825999804,2532.576818500005,2537.595112500014,2538.44028119999,2538.4402859000256,2539.956782799971,2540.973589000001,w,21.0,0.8451686999760568,1,+1,560,34.35632669964212,0.5812994546094137,-0.0790870114101927,2505711.0,-3.1056613635334536,1.9750065566455772,0.03601383611169995,2509245.0,,,,,2532.5726278724983,2529.038627872498,
157,6,21,f,1,3,149.0,35,1,low,8 + 1 + 4 + 1 + 1,15,14,16,15,2542.490411099978,2544.5170012000017,2546.0322687000157,2551.051529999997,2551.608374100004,2551.608379399986,2553.124675699976,2554.1416791999945,e,15.0,0.556844100006856,1,+1,561,-52.145334357107174,-0.21699459349674033,-0.13647314362075091,2519167.0,0.9302391120527649,0.44686428706049064,-2.506797093028445,2522701.0,,,,,2546.0286278724984,2542.4946278724983,
158,6,21,f,1,3,150.0,36,3,high,4 + 8 - 3 + 5 - 1,13,12,13,14,2555.6584108999814,2557.6858134000213,2559.2002481999807,2564.219123099989,2564.7682380999904,2564.768242999969,2566.2846493999823,2567.3019667000044,w,13.0,0.5491150000016205,1,+10,571,18.052960084781922,1.3285739055443067,-0.057202194876720736,2532335.0,11.158816161321134,0.42712150325589615,-0.04717621628459412,2535868.0,,,,,2559.1956278724983,2555.6626278724984,
159,6,21,f,1,3,151.0,37,2,low,9 + 6 + 1 + 7 + 1,24,25,24,23,2568.8185546000022,2570.844802699983,2572.3599082999863,2577.378177899984,2579.856373800023,2579.856378700002,2581.372965799994,2582.3899852000177,w,24.0,2.4781959000392817,1,+1,572,-19.420914534950573,0.30766358900729873,0.08264457303194961,2545494.0,-11.365196116914639,1.2424158403519776,0.48827991095572143,2549027.0,,,,,2572.3546278724984,2568.8216278724985,
160,6,21,f,1,4,152.0,0,4,high,6 + 9 - 7 + 8 - 5,11,12,11,13,2599.548239499971,2601.5751231000177,2603.0901927999803,2608.109942900017,2610.400328800024,2610.4003336000023,2611.9166443999857,2612.9335460999864,w,11.0,2.290385900007095,1,+10,582,-0.013060049854866307,4.2288944448828,0.9846737317639249,2576224.0,-21.23504857315303,-0.02793216952501787,-1.4812675377882654,2579759.0,,,,,2603.0866278724984,2599.5516278724986,
161,6,21,f,1,4,153.0,1,2,high,2 + 1 + 9 - 4 + 1,9,11,9,8,2614.450260200014,2616.4778985999874,2617.99290870002,2623.010868499987,2623.464262199996,2623.4642670999747,2624.9808636999805,2625.9981275000027,w,9.0,0.4533937000087462,1,+10,592,-8.700214558213286,0.9123334069846774,0.012563922430456564,2591127.0,8.537713227533658,-0.21661919178902878,0.3098591119621492,2594660.0,,,,,2617.9876278724983,2614.4546278724983,
162,6,21,f,1,4,154.0,2,3,low,4 + 7 - 3 + 5 - 1,12,11,13,12,2627.5139827000094,2629.540967900015,2631.0561821999727,2636.0749848000123,2636.65633279999,2636.656337500026,2638.172664700018,2639.189521400025,e,12.0,0.5813479999778792,1,+1,593,-6.371996530594167,-1.7777645850611865,-0.004277513507771502,2604189.0,-4.966501252106193,0.16255658428937103,0.00757091827673495,2607724.0,,,,,2631.0516278724986,2627.5166278724982,
163,6,21,f,1,4,155.0,3,3,low,2 + 1 + 9 - 4 + 6,14,14,15,16,2640.706458400004,2642.7312616999843,2644.24573710002,2649.263633399969,2649.880397000001,2649.88040189998,2651.396914699988,2652.4137761999737,q,14.0,0.6167636000318453,1,+1,594,-56.14278972408594,-1.4051759938132022,-2.2300787249707006,2617380.0,-4.551377828466499,1.6523355889214244,0.1472452556631989,2620912.0,,,,,2644.239627872498,2640.7076278724985,
164,6,21,f,1,4,156.0,4,2,high,8 + 1 + 1 + 9 - 4,15,16,15,14,2653.93072319997,2655.958406699996,2657.4736694999738,2662.4915812999825,2662.904345399991,2662.904350399971,2664.420742199989,2665.4379685000167,w,15.0,0.4127641000086441,1,+10,604,11.173228698402887,-3.047483968392288,-1.1905053082692332,2630607.0,-31.10969425819403,1.1303428355267648,0.011814271446796809,2634140.0,,,,,2657.4676278724983,2653.9346278724984,
165,6,21,f,1,4,157.0,5,3,low,4 + 1 + 8 + 9 - 5,17,19,17,18,2666.955122900021,2668.981034800003,2670.4961940000067,2675.514122699969,2675.888360599987,2675.888365400024,2677.404943100002,2678.422537099977,w,17.0,0.3742379000177607,1,+1,605,17.05877642396971,0.09144977264783538,-0.029774913669691205,2643630.0,-6.342457573756878,1.952325220037915,-0.06417580826487468,2647163.0,,,,,2670.4906278724984,2666.9576278724985,
166,6,21,f,1,4,158.0,6,2,low,5 - 1 + 1 + 8 + 9,22,22,23,21,2679.9391308000195,2681.9635650999844,2683.478737299971,2688.49774859997,2690.616414499993,2690.6164195999736,2692.1328289000085,2693.1499957999918,e,21.0,2.1186659000231884,0,+0,605,0.5076759024483053,-0.11040667515191771,0.036769587558821204,2656613.0,27.69035711071189,0.6547618781509676,0.9257038836329996,2660146.0,,,,,2683.4736278724986,2679.940627872498,
167,6,21,f,1,4,159.0,7,4,low,7 + 6 + 8 - 4 + 5,22,22,23,21,2694.6667999000056,2696.6944891000167,2698.209580899973,2703.227509999997,2706.312365300022,2706.3123705000035,2707.829058600008,2708.8462113999994,w,23.0,3.084855300025083,0,+0,605,9.807730350878792,2.4693105357833316,-0.14603983120441377,2671343.0,3.770402217338435,-1.4868742265014507,-0.1342641677369385,2674877.0,,,,,2698.2046278724983,2694.6706278724982,
168,6,21,f,1,4,160.0,8,4,high,5 + 8 - 6 + 7 + 4,18,19,17,18,2710.362921199994,2712.3877117999946,2713.903069699998,2718.922992000007,2719.408378300024,2719.4083828000003,2720.925200800004,2721.942535899987,e,18.0,0.4853863000171259,1,+10,615,-57.79821481584905,0.21257661470399292,-0.17020050651221874,2687036.0,-31.900154858667115,1.1714653198440255,0.15324499679456505,2690572.0,,,,,2713.8996278724985,2710.3636278724985,
169,6,21,f,1,4,161.0,9,1,high,9 + 1 + 1 + 7 - 1,17,16,17,19,2723.4599089000258,2725.484389499994,2727.0003171999706,2732.018518099969,2732.568449400016,2732.568454599997,2734.0848583999905,2735.1020711999736,w,17.0,0.5499313000473194,1,+10,625,5.3395702019748015,-1.2909910988945485,0.0017801008253650608,2700133.0,3.124776698731649,0.9864619961397452,0.07232952625700717,2703667.0,,,,,2726.9946278724983,2723.460627872498,
170,6,21,f,1,4,162.0,10,2,high,3 - 1 + 9 - 5 + 1,7,6,7,5,2736.6186309999903,2738.6444321000017,2740.15954610001,2745.177653299994,2748.720382599975,2748.7203883000184,2750.236875900009,2751.2536854000064,q,6.0,3.542729299981147,0,+0,625,-23.800281355284472,-0.23683790045208575,-0.08081651997176964,2713292.0,35.4569133984388,-0.42490752581836944,-0.028538740989696443,2716826.0,,,,,2740.1536278724984,2736.6196278724983,
171,6,21,f,1,4,163.0,11,3,low,2 + 9 - 3 + 4 + 1,13,11,13,14,2752.7704283000203,2754.795684300014,2756.310734800005,2761.328869800025,2762.0963406999945,2762.0963452999717,2763.612961200008,2764.6302549000247,e,14.0,0.7674708999693394,0,+0,625,58.57435894284334,-0.13992087902875383,0.033988282114601365,2729444.0,-8.552542976491786,-0.6502821669508272,-0.5291491502525978,2732977.0,,,,,2756.3046278724983,2752.7716278724984,
172,6,21,f,1,4,164.0,12,1,high,6 + 1 + 1 + 9 - 1,16,15,16,14,2766.1468693999923,2768.1713794000098,2769.68669110001,2774.7046948000207,2775.3283467,2775.3283517999807,2776.844790500006,2777.862725700019,w,16.0,0.6236518999794498,1,+10,635,14.715710301351077,-7.99552183337045,-0.09407838817523873,2742820.0,-28.025951306355463,1.252753110089226,-0.44575782498444827,2746353.0,,,,,2769.6806278724985,2766.1476278724986,
173,6,21,f,1,4,165.0,13,1,high,6 + 9 + 1 + 1 - 1,16,14,15,16,2779.379076400015,2781.404288999969,2782.919478100026,2787.9366526000085,2788.488485499984,2788.4884906000225,2790.0051886999863,2791.0223740999936,e,16.0,0.5518328999751247,1,+10,645,-4.558556607696909,0.3748295540821802,0.12189753481749044,2756052.0,1.6243912940351386,-0.39729917614012145,0.06745422150894864,2759586.0,,,,,2782.913627872498,2779.3796278724985,
174,6,21,f,1,4,166.0,14,2,high,9 + 5 - 6 + 1 - 1,8,8,9,7,2792.539163400012,2794.5661194999702,2796.08117379999,2801.099458699988,2801.528429099999,2801.528433699976,2803.044439500023,2804.06113539997,w,9.0,0.4289704000111669,0,+0,645,-27.38370692959377,1.243506958100232,-0.1314436885816881,2769214.0,-40.71579475916716,-0.2826771525372287,0.04421373374121984,2772747.0,,,,,2796.0746278724982,2792.5416278724983,
175,6,21,f,1,4,167.0,15,3,high,8 - 7 + 9 + 1 + 4,15,16,14,15,2805.5774555000244,2807.604475900007,2809.1194057000102,2814.139078899985,2816.69643229997,2816.696437400009,2818.212936499971,2819.2307278999942,e,15.0,2.557353399985004,1,+10,655,19.770490727624285,0.18345831429406978,-0.3515221334939702,2782253.0,1.5276357139483316,0.33748889314791874,-0.67590843690963,2785787.0,,,,,2809.114627872498,2805.5806278724986,
176,6,21,f,1,4,168.0,16,1,low,2 + 1 + 9 + 1 - 1,12,12,13,11,2820.747326300014,2822.772777599981,2824.2880995000014,2829.3059967000154,2830.304430900025,2830.3044356000028,2831.820656099997,2832.837493499974,q,12.0,0.9984342000097968,1,+1,656,2.581803454738786,-4.102258765366916,-5.0302671837310005,2797421.0,-53.29914539953697,1.6458218381120906,0.7782192221274422,2800954.0,,,,,2824.2816278724986,2820.748627872498,
177,6,21,f,1,4,169.0,17,2,high,4 + 8 + 1 + 1 - 6,8,7,8,9,2834.354252099991,2836.3799913999974,2837.895098900015,2842.914206799993,2843.3765514999977,2843.376556299976,2844.8929221999715,2845.910037499969,w,8.0,0.4623447000049054,1,+10,666,18.137350182720887,-0.2573692607820295,-0.17865566232710872,2811028.0,13.322272649800825,0.007280403048866901,-0.031947019043638836,2814562.0,,,,,2837.8896278724983,2834.355627872498,
178,6,21,f,1,4,170.0,18,3,high,2 - 4 + 9 + 7 + 1,15,15,16,13,2847.4266288999934,2849.453619799984,2850.968264999974,2855.9865082000038,2858.312519499974,2858.312524400011,2859.829421399976,2860.846669799997,q,15.0,2.32601129997056,1,+10,676,4.031300158230804,2.604132219011772,0.21915091330660497,2824102.0,4.818127307090624,0.8363757584054374,-1.1778254872141245,2827635.0,,,,,2850.9626278724986,2847.4296278724983,
179,6,21,f,1,4,171.0,19,2,low,7 + 5 + 1 - 1 - 8,4,3,2,4,2862.3636179000023,2864.3906603999785,2865.905755500018,2870.9258487999905,2874.000471199979,2874.000476300018,2875.5172428999795,2876.5339125000173,e,4.0,3.074622399988584,1,+1,677,5.311949455027953,2.3905766109848994,-2.4060850708963044,2839039.0,-3.469335863819744,-0.2048136472568416,0.13619999221457002,2842574.0,,,,,2865.9016278724985,2862.3666278724986,
180,6,21,f,1,4,172.0,20,3,low,8 + 6 - 7 + 1 - 4,4,5,3,4,2878.050646400021,2880.078016799991,2881.5929478000035,2886.6115536,2887.2324263000046,2887.2324308999814,2888.7488253000192,2889.7661086000157,e,4.0,0.6208727000048384,1,+1,678,37.39813371506804,0.4524328129056219,-0.06877692173598149,2854725.0,20.086077008438252,-0.06868464896930959,0.16234295792502218,2858259.0,,,,,2881.5866278724984,2878.0526278724983,
181,6,21,f,1,4,173.0,21,1,high,5 + 1 + 1 + 6 + 1,14,13,16,14,2891.2834120999905,2893.307648100017,2894.822496299981,2899.839968400018,2900.384534300014,2900.3845393999945,2901.9010500999866,2902.9183982000104,e,14.0,0.544565899996087,1,+10,688,38.56969833360283,1.0171739266051638,0.025975955197367284,2867955.0,20.271458519396937,-0.7190536011020949,0.022659869716437075,2871488.0,,,,,2894.815627872498,2891.2826278724983,
182,6,21,f,1,4,174.0,22,4,low,5 + 7 - 4 - 6 + 9,11,13,12,11,2904.4354334999807,2906.460980099975,2907.975231499993,2912.993657700019,2915.136518799991,2915.1365238999715,2916.652184300008,2917.6691086000064,e,11.0,2.142861099971924,1,+1,689,-1.729013475927582,1.5833239682387594,0.4366058317811232,2881109.0,5.2811049972038315,-0.6036111705340081,0.07306100240986568,2884641.0,,,,,2907.9686278724985,2904.4366278724983,
183,6,21,f,1,4,175.0,23,4,high,7 + 8 - 4 + 6 - 5,12,12,13,11,2919.185704100004,2921.213318300026,2922.728258899995,2927.746611899988,2930.744521000015,2930.744525999995,2932.260943799978,2933.2784301000065,q,12.0,2.997909100027755,1,+10,699,24.741386511786686,0.4084279846596752,0.025380564936126504,2895861.0,-8.31409035771211,-0.19839700518154668,0.016506858680328307,2899394.0,,,,,2922.721627872498,2919.1886278724983,
184,6,21,f,1,4,176.0,24,2,high,4 + 9 - 7 + 1 - 1,6,5,8,6,2934.7947413999937,2936.820315900026,2938.3360293000005,2943.3570250999765,2943.872523099999,2943.872527999978,2945.38886180002,2946.406236800016,e,6.0,0.5154980000224896,1,+10,709,-29.786099176158498,0.08792987615169334,-0.045139559149223185,2911468.0,-49.06805474182241,1.5517159226995894,0.0848204490507607,2915004.0,,,,,2938.3316278724983,2934.7956278724982,
185,6,21,f,1,4,177.0,25,2,high,7 + 5 + 1 + 9 + 1,23,23,21,22,2947.922974099987,2949.947282899986,2951.4625429000007,2956.4801830999786,2960.58452460001,2960.5845296999905,2962.100833099976,2963.117985900026,q,23.0,4.104341500031296,1,+10,719,24.756892865447764,0.23793175744089368,0.10282723429795926,2924595.0,8.194884805928638,-5.9658757495926285,-8.444596243189405,2928128.0,,,,,2951.4556278724986,2947.922627872498,
186,6,21,f,1,4,178.0,26,2,low,2 + 1 + 9 - 4 + 1,9,8,11,9,2964.6349302000017,2966.6618588999845,2968.1769459000207,2973.1955812000087,2973.6965085000265,2973.696513300005,2975.21269439999,2976.2297128000064,e,9.0,0.5009273000177927,1,+1,720,14.03056125370803,-0.13691274407905674,-0.20664478680655307,2941309.0,30.750087518291334,1.9182325346478253,0.4984460363504688,2944843.0,,,,,2968.1706278724982,2964.6366278724986,
187,6,21,f,1,4,179.0,27,3,high,5 + 6 + 7 - 1 - 9,8,8,9,7,2977.745738099969,2979.772866000014,2981.2873676000163,2986.3058250999893,2989.0646633,2989.064668499981,2990.5812085000216,2991.5986317999777,e,7.0,2.7588382000103597,0,+0,720,10.062263161915943,1.1262374638638617,0.20189015763513618,2954420.0,-1.1781346719243917,0.828431236079096,0.084331083897494,2957953.0,,,,,2981.2806278724984,2977.7476278724985,
188,6,21,f,1,4,180.0,28,2,high,4 + 7 + 1 + 1 - 8,5,4,7,5,2993.115170200006,2995.1400353999925,2996.655201699992,3001.674943600025,3002.1365570999915,3002.136562199972,3003.652921799978,3004.670110600011,e,5.0,0.4616134999669157,1,+10,730,-30.858806686176575,3.8113671861544676,0.5303005362122404,2969787.0,-9.574020465369182,0.2489027550317502,-0.36280659898014767,2973322.0,,,,,2996.6496278724985,2993.114627872498,
189,6,21,f,1,4,181.0,29,4,low,4 + 7 + 8 - 3 + 9,25,25,24,26,3006.1869287000154,3008.21161389997,3009.726518400013,3014.744711900013,3016.952663999982,3016.9526693000225,3018.469970099977,3019.4869367000065,q,25.0,2.2079520999686792,1,+1,731,34.61853009579176,-0.20411993656058058,0.014491434496449518,2982858.0,4.028813818006019,0.8025687768716612,1.153892390190007,2986392.0,,,,,3009.719627872498,3006.1856278724986,
190,6,21,f,1,4,182.0,30,4,low,5 + 7 - 4 - 6 + 9,11,11,12,13,3021.003711999976,3023.030483599985,3024.5454632000183,3029.5638981999946,3030.008684900007,3030.0086897999863,3031.525155099982,3032.5425497000106,q,11.0,0.444786700012628,1,+1,732,16.061132564628036,1.1985676494464332,-0.03357045111458801,2997677.0,-20.183658659311803,0.5464968589608912,-0.16517145460569527,3001211.0,,,,,3024.538627872498,3021.0046278724985,
191,6,21,f,1,4,183.0,31,2,low,6 + 1 + 1 + 7 - 9,6,4,8,6,3034.0595430000103,3036.087837399973,3037.602646399988,3042.6210228999844,3043.0965663000243,3043.0965711000026,3044.6131395000266,3045.629979200021,e,6.0,0.4755434000398963,1,+1,733,0.02228160684226843,-0.8042183866734849,-0.2012101912683133,3010734.0,22.99141508937585,0.5831203244353027,0.06707617402390875,3014268.0,,,,,3037.5956278724984,3034.0616278724983,
192,6,21,f,1,4,184.0,32,2,high,8 + 1 + 4 - 7 + 1,7,7,5,6,3047.1465696999803,3049.1730628000223,3050.688174800016,3055.706351300003,3056.2485673999763,3056.248572200013,3057.7657673999784,3058.782983599988,q,7.0,0.5422160999733023,1,+10,743,-9.651483567301822,-0.3518234785170584,0.11468417899937533,3023820.0,4.918160076179904,0.45169636305399763,-0.023300589712660802,3027354.0,,,,,3050.681627872498,3047.1476278724986,
193,6,21,f,1,4,185.0,33,3,high,4 + 7 + 1 + 9 - 5,16,16,17,18,3060.2993877999834,3062.326331400021,3063.8414071999723,3068.859735200007,3069.440581700008,3069.440587399993,3070.9569650000194,3071.9741524999845,q,16.0,0.5808465000009164,1,+10,753,30.52052698735493,1.3218108320625852,0.025602229545587107,3036973.0,23.171298191810674,0.13369499125234086,0.03261360636243227,3040507.0,,,,,3063.8346278724985,3060.3006278724984,
194,6,21,f,1,4,186.0,34,3,high,7 + 1 + 9 + 5 - 6,16,16,14,15,3073.491197299969,3075.5143955000094,3077.0297733999905,3082.0479433999863,3082.6327032999834,3082.6327082000207,3084.1490925999824,3085.1654767,q,16.0,0.5847598999971524,1,+10,763,-24.12759062291228,0.5909984439086546,0.10453271615387738,3050161.0,81.7634772427325,-0.7132989348208678,0.06517627329913878,3053695.0,,,,,3077.0226278724986,3073.4886278724985,
195,6,21,f,1,4,187.0,35,3,high,7 - 1 + 8 - 6 + 4,12,13,12,11,3086.682161999983,3088.7047130999854,3090.2197941999766,3095.2383382999687,3096.4966122999904,3096.4966172999702,3098.012980300002,3099.030490199977,w,12.0,1.258274000021629,1,+10,773,-15.751271095486647,1.4298792295967715,-0.36333009405717265,3063352.0,31.084559049858065,-1.0188665583344747,-0.11645119952280902,3066885.0,,,,,3090.2126278724986,3086.6796278724983,
196,6,21,f,1,4,188.0,36,1,low,8 + 1 + 1 - 1 - 4,5,5,3,6,3100.547265300004,3102.572960300022,3104.0880935000023,3109.1059760000207,3111.2886730000027,3111.288677799981,3112.805170700012,3113.8213136999984,w,3.0,2.1826969999819994,0,+0,773,33.05140297228057,-0.7823764511322366,-0.17711269105344352,3077219.0,-17.576790584426686,-0.6679427792051928,0.05660201114337937,3080753.0,,,,,3104.0806278724986,3100.5466278724984,
197,6,21,f,1,4,189.0,37,3,low,8 + 3 + 1 - 7 + 9,14,14,12,15,3115.337713000016,3117.364654799981,3118.8796999999904,3123.8994873000192,3124.520605699974,3124.520610800013,3126.037034999986,3127.053852799989,q,14.0,0.6211183999548666,1,+1,774,-31.779977227190678,0.9224979950201284,-0.38567027137193977,3092011.0,-19.834374897779256,2.3300728045478216,-0.4164005236684152,3095546.0,,,,,3118.873627872498,3115.3386278724984,
198,6,21,f,1,5,190.0,0,1,high,3 + 1 + 1 + 9 - 1,13,14,13,12,3142.3005857000244,3144.3281128000235,3145.8429832999827,3150.861699400004,3151.320652399969,3151.3206576000084,3152.836950499972,3153.8544433999923,w,13.0,0.4589529999648221,1,+10,784,49.35035678990437,-0.6472502202962955,-2.3791238587406864,3118975.0,1.2173940146890718,-0.5493845131950597,-2.2190495340621705,3122508.0,,,,,3145.835627872498,3142.3026278724983,
199,6,21,f,1,5,191.0,1,4,high,2 + 9 - 4 + 8 + 7,22,23,22,21,3155.371103000012,3157.396383000014,3158.9111340999957,3163.9295031999936,3165.304651400016,3165.3046561999945,3166.821108300006,3167.8384304000065,w,22.0,1.3751482000225224,1,+10,794,42.957945788634134,0.27819080931975027,-0.1052929574020478,3132042.0,-1.2445461064246324,0.7717493448336752,-0.03153101243114853,3135576.0,,,,,3158.9036278724984,3155.3696278724983,
