,id,age,sex,cued,block,trial,trialinblock,efflev,rewlev,calc,corAns,option1,option2,option3,tstart,ITI1Time,probTime,respTime,selectTime,ITI2Time,fbTime,ITI3Time,key_press,chosenAns,RT,acc,feedback,total_points,cuescr,cuecor,cuezyg,cuetime,probscr,probcor,probzyg,probtime,fbscr,fbcor,fbzyg,fbtime,probtime_c,cuetime_c,fbtime_c
0,7,19,f,0,Practice,,0,1,0,4 + 1 + 9 + 1 + 1,16,15,14,16,39.676127600017935,,39.67612980003469,44.899479200015776,48.41628210002091,48.41628760000458,49.93335260002641,50.95659630000591,q,15.0,3.516802900005132,0,Incorrect,0,,,,,2.3049693920063703,0.5228032673123506,0.0020559188615238977,37775.0,4.969709854611759,-1.5537136571908352,0.07277960216373569,47831.0,39.88609089451158,,49.94209089451159
1,7,19,f,0,Practice,,1,1,0,3 + 1 + 1 + 8 - 1,12,12,11,10,52.473656999995,,52.47366000001784,57.496241500019096,58.76840639999136,58.768412700039335,60.28531260002637,61.305033800017554,q,12.0,1.2721648999722674,1,Correct,0,,,,,-2.1758163279402467,-2.099861051705984,0.02885015912470612,50371.0,19.184022524947594,0.2670515719098274,-0.0534554554348905,58179.0,52.482090894511586,,60.290090894511586
2,7,19,f,0,Practice,,2,2,0,8 + 1 + 6 + 1 - 4,12,10,12,11,62.8230149000301,,62.82301940000616,67.84367460000794,69.15243180003017,69.15243790001841,70.6693638000288,71.68781430000672,w,12.0,1.308757200022228,1,Correct,0,,,,,8.22928902890056,-0.15687429299359668,-0.13542631713148934,60718.0,1.607203440027046,-0.45743721354929967,0.06286765059425647,68562.0,62.82909089451159,,70.67309089451157
3,7,19,f,0,Practice,,3,2,0,9 + 4 - 6 + 1 - 1,7,7,5,6,73.20488139998633,,73.20488430000842,78.22406530001899,79.45643439999549,79.45644059998449,80.97313470003428,81.98937700001989,q,7.0,1.232369099976495,1,Correct,0,,,,,17.67300228485005,0.2870886512017279,-0.023051950160950962,71099.0,-2.525437139437456,0.1657886763624674,-0.13761185076859062,78865.0,73.21009089451158,,80.97609089451157
4,7,19,f,0,Practice,,4,3,0,9 + 3 - 5 + 6 + 7,20,20,22,21,83.5058141000336,,83.50581709999824,88.52490299998317,89.7684464000049,89.76845269999467,91.28581510001096,92.30295750004008,q,20.0,1.2435434000217356,1,Correct,0,,,,,-24.628407867075325,-0.26436660386641986,0.026580322127342626,81399.0,11.754894881595238,0.38229722233239016,0.028918595635011757,89177.0,83.51009089451158,,91.28809089451158
5,7,19,f,0,Practice,,5,3,0,2 + 1 + 9 - 7 + 6,11,11,10,9,93.82104140002048,,93.82104429998437,98.84161000000312,100.00843490002444,100.00844150001647,101.5253125000163,102.54343710001558,q,11.0,1.166824900021311,1,Correct,0,,,,,-2.994643016445959,-0.19943681691445292,0.0489701382375054,91716.0,-6.529784754985473,-0.7395095240733474,0.07103589461286952,99418.0,93.82709089451157,,101.52909089451158
6,7,19,f,0,Practice,,6,4,0,4 + 8 + 5 - 3 + 7,21,21,22,23,104.0607205000124,,104.06072330003371,109.08238949999212,113.53646760003176,113.5364742000238,115.05365549999988,116.07174460001988,q,21.0,4.454078100039624,1,Correct,0,,,,,10.716993134968817,0.9230881974602729,0.0648565417715452,101957.0,-4.449980367466498,1.827506038904037,0.23937674208259807,112946.0,104.06809089451157,,115.05709089451157
7,7,19,f,0,Practice,,7,4,0,5 + 8 - 4 + 6 + 9,24,22,24,23,117.58896710001864,,117.58897009998329,122.60884420003276,124.70432820002316,124.70433390000836,126.22086190001572,127.23851580003976,q,22.0,2.0954839999903925,0,Incorrect,0,,,,,-24.490699798417932,0.9796061065095749,-0.22554670126695542,115483.0,20.40828531880205,0.11113528779527382,0.011696032776911558,124114.0,117.59409089451158,,126.22509089451158
8,7,19,f,1,0,0.0,0,3,high,4 + 1 + 8 + 9 - 5,17,18,17,19,209.8060673000291,211.83932949998416,213.35437449999156,218.37935499998275,219.7581319999881,219.75813780003227,221.2750592000084,222.29211790004047,w,17.0,1.378777000005357,1,+10,10,-2.8901819688186023,0.9235934065840636,-0.044757161175936755,207713.0,-12.818087571630969,-0.4604765108906319,-0.1667678987272252,211253.0,33.793659572372576,-0.34736359455357757,0.010351790060583621,1042580.0,213.36409089451158,209.82409089451158,1044.6910908945115
9,7,19,f,1,0,1.0,1,2,low,7 + 1 + 9 - 1 - 8,8,7,6,8,223.8086870000116,225.89057109999703,227.40542239998467,232.42399879998996,233.9261621999904,233.9261683000368,235.4426233000122,236.459579700022,e,8.0,1.502163400000427,1,+1,11,-4.233613568765062,1.2544978420740378,-0.0692242938794263,221764.0,7.288942926901599,0.4471176895405673,-0.029672632877664418,225298.0,-20.943085533739445,-0.4727668907485185,-0.06588439875071095,2248648.0,227.4090908945116,223.8750908945116,2250.7590908945117
10,7,19,f,1,0,2.0,2,1,high,6 + 1 + 1 + 9 - 1,16,14,15,16,237.97638790000929,240.01532090001277,241.5304751000367,246.5487668000278,247.84612430003472,247.84612990001915,249.36268660001224,250.3800505999825,e,16.0,1.2973575000069104,1,+10,21,-35.500790282961866,0.6912007899777546,0.3282458900627807,235889.0,-1.4491055818882361,-0.020231046668571118,-0.03704321155023527,239423.0,14.022034679712728,-0.10838920711049216,0.025963679567658993,1461226.0,241.5340908945116,238.0000908945116,1463.3370908945117
11,7,19,f,1,0,3.0,3,3,high,9 - 1 + 5 - 6 + 8,15,15,17,14,251.8968319999985,253.9212339000078,255.4363700000104,260.45491289999336,263.6863045000355,263.68631030002143,265.20305920002284,266.2208257000311,q,15.0,3.231391600042116,1,+10,31,13.71168408695314,-0.23420028448573316,-0.1039860662192642,249795.0,-12.883000780844883,0.10511546310925812,0.006022913193725499,253329.0,-23.004281626482893,0.3534504735392776,-0.004806604254951274,2410454.0,255.4400908945116,251.90609089451158,2412.5650908945117
12,7,19,f,1,0,4.0,4,3,low,5 + 6 + 7 - 1 - 9,8,8,9,7,267.7377922000014,269.7990020000143,271.31475419999333,276.33490250003524,277.50208030000795,277.5020858999924,279.0189967000042,280.0359513000003,q,8.0,1.1671777999727055,1,+1,32,17.8666916119612,0.6590996922835153,-0.014815125804156448,265672.0,-15.695967579814369,1.167040903871004,-0.08438944142778082,269209.0,1.975358606695571,0.15479921601994784,0.05948296395379771,2851413.0,271.32009089451157,267.7830908945116,2853.5240908945116
13,7,19,f,1,0,5.0,5,2,low,3 + 8 - 5 + 1 + 1,8,8,9,6,281.5525269000209,283.5784464000026,285.0934576999862,290.1117167000193,291.15820020000683,291.15820559998974,292.67492010002024,293.6917728999979,q,8.0,1.0464834999875166,1,+1,33,0.6549191293245045,-0.9625707952112368,-10.278136030035386,279452.0,-12.062853089161958,0.45100642350486364,-0.07785553033612369,282985.0,19.224318254755584,-1.4748251567969817,1.47724256747093,2356143.0,285.0960908945116,281.56309089451156,2358.2540908945116
14,7,19,f,1,0,6.0,6,4,low,4 + 9 - 7 + 8 + 5,19,21,20,19,295.20817810000153,297.2573530999944,298.77257560001453,303.7916147999931,304.9422124000266,304.9422178000096,306.4582646000199,307.47513010003604,e,19.0,1.1505976000335068,1,+1,34,-25.640331190131985,0.8232458402279521,0.12525361590721262,293131.0,0.5051560766975562,0.5452994644471367,0.08365008626772452,296665.0,-15.217323492148324,-2.5861043143998534,0.27086817336784774,335798.0,298.7760908945116,295.24209089451153,337.90909089451156
15,7,19,f,1,0,7.0,7,1,high,3 + 1 + 9 + 1 - 1,13,13,12,14,308.9922552999924,311.02059730002657,312.53583870001603,317.5540445999941,319.1581398000126,319.158144999994,320.67466190003324,321.6919849999831,q,13.0,1.6040952000184916,1,+10,44,12.196290961637448,-0.3031967641008597,-0.009158443996820198,306894.0,8.696333221941675,0.8078249438979856,-0.13147027394437738,310428.0,19.759986310528646,1.4464219911597738,-0.08288297904993147,1487842.0,312.53909089451156,309.00509089451157,1489.9530908945117
16,7,19,f,1,0,8.0,8,4,low,3 + 9 - 5 + 8 - 7,8,7,8,9,323.2089781000396,325.2357240000274,326.7510279000271,331.7706870000111,336.3902475000359,336.39025280001806,337.90736830001697,338.9249385999865,q,7.0,4.619560500024818,0,+0,44,-20.499621160994472,1.5127941293473084,-0.1750612108199796,321109.0,-49.164043759657346,1.8540052938066625,-0.01744754369938306,324644.0,-45.3520381421374,-1.2381997080899874,0.00757895514787621,420470.0,326.75509089451157,323.22009089451154,422.5810908945116
17,7,19,f,1,0,9.0,9,2,low,2 + 1 + 9 - 4 + 1,9,11,9,8,340.44189740001457,342.4673885999946,343.9827321000048,349.0012541000033,350.1661614000332,350.1661670000176,351.6824062000378,352.6999497000361,w,9.0,1.1649073000298813,1,+1,45,8.251027092407742,-1.2578273747030542,-0.007624059362584257,338341.0,-11.295834318931375,2.042968255962873,0.20061141097144608,341874.0,,,,,343.9850908945116,340.45209089451157,
18,7,19,f,1,0,10.0,10,1,low,4 + 7 + 1 - 1 - 1,10,9,11,10,354.21661070000846,356.2420902000158,357.75786519999383,362.7765523000271,364.4302129999851,364.4302190000308,365.94641869998304,366.9632595999865,e,10.0,1.6536606999579817,1,+1,46,8.790196183501948,0.7306660934015738,0.054209655801386036,352116.0,9.438369342921916,1.114858308471181,0.002647907221688506,355650.0,-19.230612988424564,-0.6386861576805147,0.5400709599900155,2040096.0,357.76109089451154,354.22709089451155,2042.2070908945116
19,7,19,f,1,0,11.0,11,1,high,8 + 1 + 1 + 1 - 4,7,8,7,5,368.48015970003325,370.5065379000153,372.0218281000271,377.0401893000235,378.29425010003615,378.29425580002135,379.81097669998417,380.828321100038,w,7.0,1.2540608000126667,1,+10,56,5.925661050438343,0.8487340874175224,0.100765562361675,366380.0,15.009841665490768,0.501713448662473,-0.06502449556957113,369914.0,,,,,372.02509089451155,368.49109089451156,
20,7,19,f,1,0,12.0,12,3,low,2 + 1 + 9 - 4 + 6,14,15,14,16,382.34510269999737,384.36918839998543,385.884412400017,390.9029091999983,391.9981954999967,391.998200800037,393.5147672999883,394.53139369998826,w,14.0,1.0952862999984063,1,+1,57,-13.121604493130818,0.12826144316932364,-0.10791542343123961,380242.0,44.584350150409264,0.1663950310961262,0.10311584309950428,383776.0,,,,,385.8870908945116,382.3530908945116,
21,7,19,f,1,0,13.0,13,3,low,5 + 6 - 4 - 1 + 7,13,13,15,14,396.0486504000146,398.0716342999949,399.5869676999864,404.6057340999832,406.5101821999997,406.5101875000401,408.0265385000384,409.04326180001954,q,13.0,1.9044481000164524,1,+1,58,13.797228819230156,1.1248581258854422,0.09776062798234864,393945.0,2.2265496203422774,1.088923114745615,-0.12612645368312747,397479.0,,,,,399.59009089451155,396.05609089451156,
22,7,19,f,1,0,14.0,14,4,low,3 + 8 - 7 + 9 - 5,8,9,8,7,410.5600679999916,412.5885084000183,414.10382570000365,419.1225625000079,421.0622025000048,421.0622080999892,422.579135100008,423.5964904000284,e,7.0,1.9396399999968708,0,+0,58,-2.0537159437770356,0.7652747677054075,0.10866586304518666,408462.0,-0.40114032798965127,0.929731074706833,0.00027473200811423126,411996.0,-24.93143062564605,0.007466167927761447,0.0004610840167800223,1583627.0,414.10709089451154,410.57309089451155,1585.7380908945115
23,7,19,f,1,0,15.0,15,1,high,8 + 1 + 5 + 1 + 1,16,17,16,15,425.1132912000176,427.141710099997,428.6567678999854,433.6750167999999,434.97423180000624,434.9742384999991,436.4903364999918,437.507754500024,w,16.0,1.2992150000063702,1,+10,68,-26.508411432262925,0.7778107781719292,0.02212199934388903,423015.0,6.520108123872106,-0.547731786123884,-0.020084098592682453,426548.0,,,,,428.65909089451156,425.12609089451155,
24,7,19,f,1,0,16.0,16,2,high,7 + 6 + 1 + 8 + 1,23,22,21,23,439.0244421000243,441.0642579999985,442.5795757999877,447.5993812000379,448.7982249000343,448.79823060001945,450.3148043000256,451.332021499984,e,23.0,1.1988436999963596,1,+10,78,16.37763978271949,0.007807487527921708,-0.07579898164880317,436937.0,-37.09259510165049,0.4847174175998843,0.07972547192589952,440473.0,,,,,442.5840908945116,439.0480908945116,
25,7,19,f,1,0,17.0,17,3,low,3 + 1 + 8 - 5 + 6,13,13,15,14,452.84859350003535,454.8760762999882,456.390662299993,461.4090307999868,462.67828330001794,462.6782889000024,464.19495249999454,465.211910300015,q,13.0,1.2692525000311434,1,+1,79,-30.373965354546296,-2.0426374891281336,0.021668019689064844,450749.0,19.438202346535835,-0.2925914245114276,0.039075432141615796,454282.0,,,,,456.39309089451154,452.8600908945116,
26,7,19,f,1,0,18.0,18,4,high,8 + 4 + 7 - 5 - 6,8,8,9,6,466.7287335000001,468.7667740000179,470.2819904999924,475.3008803999983,476.25422750000143,476.25423309998587,477.770332199987,478.78758320002817,q,8.0,0.9533471000031568,1,+10,89,15.457863329624889,0.4219675958033253,-0.21383842919000262,464640.0,0.5343807836939778,0.4740956738980948,0.1119112806805278,468174.0,0.5884489710725287,-0.34394004762976893,0.1830938412389007,2783198.0,470.28509089451154,466.75109089451155,2785.3090908945114
27,7,19,f,1,0,19.0,19,4,high,2 + 9 - 3 + 5 + 8,21,23,21,22,480.3044161000289,482.3266282000113,483.84188110003015,488.8601626000018,489.7983291000128,489.7983343999949,491.3149010000052,492.3320724000223,w,21.0,0.9381665000109932,1,+10,99,21.928270280409432,0.6767290179856191,-0.1328706512839799,478200.0,1.9653555861686165,0.7708704193325078,0.02343069543935128,481734.0,,,,,483.84509089451154,480.31109089451155,
28,7,19,f,1,0,20.0,20,4,high,2 + 9 - 4 + 8 + 7,22,22,23,21,493.8489740000223,495.8741057000007,497.38925000000745,502.4084376000101,503.4223424000084,503.4223480999936,504.9390634000301,505.9570194000262,q,22.0,1.0139047999982722,1,+10,109,29.59323646319074,-0.24944238493792614,-0.07160375190471746,491747.0,5.858645666838069,0.6077126361671121,0.14568679563791642,495281.0,,,,,497.39209089451157,493.8580908945116,
29,7,19,f,1,0,21.0,21,1,high,6 + 1 + 1 + 7 - 1,14,14,12,13,507.4737344000023,509.4996225000359,511.0150607000105,516.0338163999841,517.0463299000403,517.0463357000262,518.562720499991,519.580249199993,q,14.0,1.0125135000562295,1,+10,119,-39.47173456841216,-0.008890530679956044,-0.10062662049459381,505373.0,-12.092708056886888,0.3046062889685146,-0.05046206023180355,508906.0,,,,,511.01709089451157,507.48409089451155,
30,7,19,f,1,0,22.0,22,1,low,8 + 1 + 1 + 1 - 3,8,8,6,9,521.0971255000331,523.1245009999839,524.6396149999928,529.6576984000276,530.7423863000004,530.7423915999825,532.259043900005,533.2759510999895,q,8.0,1.0846878999727778,1,+1,120,-22.850283660073433,0.10446790234110459,0.04669379782341698,518997.0,-4.276280064291852,-0.1585770510918163,0.04667831973758152,522531.0,,,,,524.6420908945115,521.1080908945115,
31,7,19,f,1,0,23.0,23,2,low,7 + 5 + 1 - 1 - 8,4,3,2,4,534.7927792000119,536.8208979000337,538.3358620000072,543.3541781000094,545.5023948000162,545.5024017000105,547.0191696000402,548.0360316000297,e,4.0,2.148216700006742,1,+1,121,-5.043045052069011,0.28152451762996034,0.055084296736910954,532694.0,8.996922060090046,0.40371765766725787,0.0973247004979787,536227.0,,,,,538.3380908945115,534.8050908945115,
32,7,19,f,1,0,24.0,24,2,high,6 + 1 + 1 + 7 - 9,6,4,6,8,549.5527658000356,551.5804929999867,553.0958087000181,558.1141411000281,559.6382995999884,559.6383060000371,561.1552700999891,562.1726231999928,w,6.0,1.524158499960322,1,+10,131,-27.636218114347486,2.656590685404166,0.10586092406371406,547453.0,-2.940172211518049,0.6951239576532453,-0.006227649683831382,550987.0,,,,,553.0980908945115,549.5640908945115,
33,7,19,f,1,0,25.0,25,3,high,2 - 4 + 9 + 7 + 1,15,16,13,15,563.6894016999868,565.71735240001,567.2324481999967,572.2518184999935,574.7663732999936,574.766379000037,576.283124300011,577.3004568000324,e,15.0,2.5145548000000417,1,+10,141,30.79112199562084,0.527888293084863,0.004390406354121357,561590.0,-8.277757562634719,1.1584972906259048,-0.06586769664460901,565124.0,,,,,567.2350908945116,563.7010908945116,
34,7,19,f,1,0,26.0,26,1,high,4 + 9 + 1 - 1 - 1,12,12,13,11,578.8168078000308,580.8408130999887,582.3560827000183,587.3746405999991,588.4863220999832,588.4863275000243,590.0031771000358,591.0206343000173,q,12.0,1.1116814999841154,1,+10,151,32.914944040313145,0.07069436681749952,0.25760820694020437,576713.0,-5.325070641794687,0.8262640231982905,-0.012945089473201499,580247.0,,,,,582.3580908945115,578.8240908945115,
35,7,19,f,1,0,27.0,27,3,high,2 + 1 + 9 - 5 + 6,13,11,14,13,592.5374657000066,594.5639461000101,596.0799988000072,601.0986038999981,602.2462951000198,602.2463002000004,603.7629592000158,604.7803235999891,e,13.0,1.1476912000216544,1,+10,161,7.842657483587056,0.6594940678552668,0.06650493844994698,590436.0,10.62393386870838,0.5371493335563953,0.08017645641460991,593971.0,,,,,596.0820908945116,592.5470908945116,
36,7,19,f,1,0,28.0,28,1,low,2 + 1 + 9 + 1 - 1,12,12,13,11,606.2969422999886,608.3241425000015,609.8394746999838,614.857862600009,615.7103481999948,615.7103537000366,617.2270097000292,618.2438738000346,q,12.0,0.8524855999858119,1,+1,162,3.381889552845612,0.5819299407759395,-0.09461716027063383,604197.0,22.550952753573668,-0.03742981390237343,0.027656864384254742,607731.0,,,,,609.8420908945116,606.3080908945116,
37,7,19,f,1,0,29.0,29,1,high,3 + 1 + 8 - 1 + 1,12,13,12,10,619.7606797000044,621.7882171000238,623.3035728000104,628.3229709999869,629.3023452000343,629.3023508000188,630.818677400006,631.8361181000364,w,12.0,0.9793742000474596,1,+10,172,-0.04817483082882079,0.03398343174162832,0.01690648157792407,617660.0,-8.048937621417021,0.07253735976639764,0.03427583592644212,621195.0,,,,,623.3060908945116,619.7710908945115,
38,7,19,f,1,0,30.0,30,1,low,7 + 1 + 4 + 1 - 1,12,11,12,13,633.3532704000245,635.3816023999825,636.8964617000311,641.915834799991,642.8464086999884,642.8464146000333,644.3627782000112,645.3796377000399,w,12.0,0.9305738999973984,1,+1,173,8.479770097593885,0.08541955426028558,0.07862872379044017,631254.0,-5.936549542243714,0.7455700068974158,0.09972501887286556,634788.0,,,,,636.8990908945116,633.3650908945116,
39,7,19,f,1,0,31.0,31,4,high,4 + 7 + 8 - 3 + 9,25,24,25,26,646.8966425000108,648.9230756000034,650.4385542999953,655.4585834000027,656.630346400023,656.6303521000082,658.1482634000131,659.1659899000078,w,25.0,1.1717630000202917,1,+10,183,-6.533964704256126,0.77269908358255,0.0075994099667437975,644795.0,8.148586712592394,0.2818112271619473,-0.007373650687646061,648331.0,,,,,650.4420908945116,646.9060908945115,
40,7,19,f,1,0,32.0,32,2,high,8 + 1 + 1 + 9 - 4,15,14,16,15,660.7127361000166,662.7405108000385,664.2551221000031,669.2731751000392,670.8224156000069,670.822422600002,672.3389041000046,673.3562298000325,e,15.0,1.5492404999677092,1,+10,193,-10.849939713930077,0.439083775568184,0.9938495792787709,658613.0,-11.6948676816409,0.8113530636386459,0.03884017164677034,662145.0,,,,,664.2560908945115,660.7240908945116,
41,7,19,f,1,0,33.0,33,3,high,8 - 1 + 6 - 7 + 5,11,13,11,12,674.8727585999877,676.8979403999983,678.4132241000189,683.4335949000088,684.3263772000209,684.3263833000092,685.8429709000047,686.8602871000185,w,11.0,0.8927823000121862,1,+10,203,-45.1795416226681,1.2839292895611782,0.018331440951226297,672770.0,-1.339786197776096,1.0338830817616698,0.045309378368846964,676306.0,,,,,678.4170908945116,674.8810908945115,
42,7,19,f,1,0,34.0,34,2,high,9 + 4 + 5 + 1 - 1,18,19,17,18,688.3770460000378,690.4157840000116,691.9310925999889,696.949103299994,698.1185215000296,698.1185278000194,699.635032900027,700.6523190999869,e,18.0,1.1694182000355795,1,+10,213,15.737191333095822,1.0599404807786268,0.03333844216202886,686288.0,13.953401009611047,0.702553883130129,0.04328258683030839,689821.0,,,,,691.9320908945116,688.3990908945116,
43,7,19,f,1,0,35.0,35,2,high,4 + 9 - 7 + 1 - 1,6,6,5,8,702.1854669000022,704.2081306999899,705.7232843000093,710.7415114000323,711.6463426999981,711.6463480000384,713.1628493000171,714.1801557000144,q,6.0,0.9048312999657356,1,+10,223,8.113314357606283,0.3034768848004816,0.03661947694103018,700081.0,6.434509534219349,0.26159537599757066,0.08968701332453399,703614.0,,,,,705.7250908945116,702.1920908945116,
44,7,19,f,1,0,36.0,36,4,high,8 + 5 - 4 + 7 + 9,25,26,25,24,715.6969662000192,717.7255620000069,719.2408246999839,724.260182500002,726.0144168999977,726.0144226999837,727.5310505999951,728.5474086999893,w,25.0,1.7542343999957666,1,+10,233,3.3906742242997248,0.845759521514065,0.02827812663795415,713597.0,8.995239514256873,0.2825913652912089,-0.027331418871253454,717132.0,,,,,719.2430908945115,715.7080908945115,
45,7,19,f,1,0,37.0,37,2,low,4 + 8 + 1 + 1 - 5,9,9,11,8,730.0639021000243,732.0905254000099,733.605827899999,738.6246507000178,739.4944212000119,739.4944265999948,741.0112051999895,742.0283535000053,q,9.0,0.869770499994047,1,+1,234,4.138563580796923,0.9228472354405528,-0.002732059516686869,727962.0,-15.554027775150907,1.4336579090266817,-0.09613777364269893,731497.0,,,,,733.6080908945115,730.0730908945116,
46,7,19,f,1,1,38.0,0,4,low,5 + 9 - 4 + 7 + 6,23,25,24,23,823.6511803999892,825.6779853000189,827.1932250999962,832.2128542999853,833.558501499996,833.5585074999835,835.075510900002,836.092979900015,e,23.0,1.345647200010717,1,+1,235,6.868794243059705,-11.697103832057737,-18.63963312236153,821549.0,-4.8944228294607885,0.26993954841379253,-0.2851553831330451,825085.0,,,,,827.1960908945116,823.6600908945115,
47,7,19,f,1,1,39.0,1,2,low,6 + 1 + 8 + 5 - 1,19,17,19,18,837.6097367000184,839.6364295000094,841.1525369000155,846.1705133999931,847.0543892999995,847.0543948999839,848.571562200028,849.5879986000364,w,19.0,0.8838759000063874,1,+1,236,-9.939843307834275,0.9763776321551259,-0.07779867229669124,835508.0,6.220771054177569,0.33623996350117835,-0.030026488979699728,839043.0,,,,,841.1540908945116,837.6190908945116,
48,7,19,f,1,1,40.0,2,1,high,6 + 9 + 1 + 1 - 1,16,15,16,14,851.1051249000011,853.1328339999891,854.6481217999826,859.6670757000102,860.8864566999837,860.8864621000248,862.4029954000143,863.4203102000174,w,16.0,1.2193809999735097,1,+10,246,-22.391739772114423,-0.351047661963376,0.04647355485934446,849004.0,-2.028797708889364,0.15776236236100516,0.09710832692068916,852539.0,,,,,854.6500908945115,851.1150908945116,
49,7,19,f,1,1,41.0,3,2,high,9 + 6 + 1 + 7 + 1,24,23,25,24,864.9544543999946,866.9936936000013,868.5089475000277,873.5273645999841,874.8384107000311,874.8384159000125,876.3550996999838,877.3725234000012,e,24.0,1.311046100046951,1,+10,256,13.380579589962402,0.5257721510410329,0.001932756310026429,862865.0,-7.136819882567217,-0.01872973653876464,-0.035789967323967,866399.0,,,,,868.5100908945116,864.9760908945116,
50,7,19,f,1,1,42.0,4,1,low,8 - 1 + 1 + 6 + 1,15,16,14,15,878.8884248000104,880.9140195000218,882.4289188000257,887.4468570000026,892.4644090000074,892.4644115000265,893.981174000015,895.003150900011,,,,0,Too Slow!,256,0.47041913128985513,0.5301358188688825,0.03201042501492579,876785.0,4.4778431154573095,0.49821363608543745,0.08961555838355273,880318.0,11.341866663535615,-0.29044897695309313,0.1426400405183217,891875.0,882.4290908945115,878.8960908945115,893.9860908945116
51,7,19,f,1,1,43.0,5,3,high,4 + 8 - 3 + 5 - 1,13,13,12,14,896.5198133999947,898.5466014000122,900.0619302000268,905.08020950004,905.95051460003,905.9505203000152,907.4674595000106,908.485608500021,q,13.0,0.8703050999902189,1,+10,266,10.363880964927946,-0.2216489841786382,0.0006907840800529641,894418.0,-9.883235725998523,0.8738941996831726,-0.09700157048578983,897952.0,,,,,900.0630908945116,896.5290908945116,
52,7,19,f,1,1,44.0,6,3,high,4 + 7 + 1 + 9 - 5,16,17,18,16,910.0028036999864,912.0265748000238,913.5418245000184,918.5603051999932,919.7425057000364,919.7425114000216,921.2585817000364,922.2760228000116,e,16.0,1.182200500043109,1,+10,276,13.175249540315999,0.05430549665062312,0.13945898096381137,907898.0,-26.987313374887158,0.19755424742870176,0.10721438688956142,911432.0,,,,,913.5430908945116,910.0090908945116,
53,7,19,f,1,1,45.0,7,1,high,2 + 1 + 9 + 1 - 1,12,12,13,11,923.7928424000274,925.8165963999928,927.3318323999991,932.3504995999974,933.1426221000148,933.1426278,934.6592516000384,935.6766451000004,q,12.0,0.7921225000172853,1,+10,286,1.989788896764706,-0.4363245310238355,-0.058151541940094864,921688.0,-22.79883058358187,-0.4069573240660631,0.030745264154819818,925222.0,,,,,927.3330908945115,923.7990908945116,
54,7,19,f,1,1,46.0,8,1,low,2 + 1 + 1 + 9 - 1,12,12,11,13,937.1935267000226,939.2179973000312,940.733387699991,945.7532724000048,946.526571800001,946.5265772999846,948.0432958999882,949.0601157000056,q,12.0,0.7732993999961764,1,+1,287,1.7496912270931073,0.8999327943665851,0.06619081613351896,935089.0,-25.276933026713404,-0.1778158008900661,0.05603859215381024,938625.0,,,,,940.7360908945116,937.2000908945116,
55,7,19,f,1,1,47.0,9,4,high,9 + 8 - 5 - 7 + 6,11,11,10,13,950.5769362000284,952.6047679000184,954.1200792000164,959.1391676000204,960.5665186000406,960.5665237000212,962.0947410000372,963.1120151000214,q,11.0,1.4273510000202805,1,+10,297,15.25320103559998,0.0235502830812786,-0.1478123141914125,948476.0,10.088617913753295,0.03017375213784579,0.03279565673289264,952011.0,,,,,954.1220908945115,950.5870908945116,
56,7,19,f,1,1,48.0,10,4,high,7 + 6 - 9 + 8 - 3,9,7,8,9,964.6289911000058,966.6528034000077,968.1681328000268,973.187025399995,974.3425995000288,974.3426049000118,975.8591419000296,976.8766637000372,e,9.0,1.1555741000338458,1,+10,307,8.179912538962771,0.3572804179197231,-0.23675454860796852,962524.0,-6.475961721728147,0.23750313488927155,0.0737358556012655,966058.0,,,,,968.1690908945116,964.6350908945116,
57,7,19,f,1,1,49.0,11,4,high,5 + 7 - 4 - 6 + 9,11,11,12,13,978.3937016000272,980.4173263999984,981.932608700008,986.9678945000052,987.6945799000096,987.6945853999932,989.2121460000052,990.2295812999946,q,11.0,0.7266854000044987,1,+10,317,0.597227417439786,0.5285025943465715,0.20354830293656745,976288.0,-5.596080031618645,0.07415062396327166,-0.009572707781040801,979839.0,,,,,981.9500908945116,978.3990908945116,
58,7,19,f,1,1,50.0,12,1,high,3 + 1 + 9 + 1 + 1,15,14,15,17,991.7470744000166,993.7739548000392,995.2891204000334,1000.3070708999876,1001.0226476000388,1001.022653300024,1002.5390952000162,1003.5563836999936,w,15.0,0.7155767000513151,1,+10,327,-24.405439713215515,0.09855021224146565,0.14684810500288492,989645.0,-6.911979989688744,0.05614323484834571,0.039447674759641504,993178.0,,,,,995.2890908945116,991.7560908945115,
59,7,19,f,1,1,51.0,13,4,high,9 + 4 - 6 + 8 + 7,22,22,21,24,1005.0730147000286,1007.0977070000372,1008.612923800014,1013.6314743999974,1014.7585566000198,1014.7585618000012,1016.2745658000348,1017.2914459999884,q,22.0,1.1270822000224143,1,+10,337,-1.5932466353575805,0.9801359670612597,0.001471218184511347,1002969.0,-31.764691009923553,0.18081123012263323,0.055425385948956185,1006502.0,,,,,1008.6130908945115,1005.0800908945116,
60,7,19,f,1,1,52.0,14,4,low,7 + 6 + 8 - 4 + 5,22,23,21,22,1018.808172399993,1020.8337910000118,1022.3488466999844,1027.367667499988,1028.4146357999998,1028.414641499985,1029.931216900004,1030.9483953000165,e,22.0,1.0469683000119403,1,+1,338,-4.464838687116061,0.32882414238082447,-0.05594809803963274,1016705.0,0.6477473269571554,0.6977926298337058,0.011363677547949091,1020239.0,,,,,1022.3500908945116,1018.8160908945116,
61,7,19,f,1,1,53.0,15,3,high,5 - 1 - 4 + 6 + 7,13,14,15,13,1032.4650417999949,1034.49220909999,1036.0076644000364,1041.0263921000296,1043.1745204000035,1043.1745256999857,1044.691929200024,1045.7091397999902,w,15.0,2.148128299973905,0,+0,338,0.09970631311962208,0.5903290938493644,0.08563046763427806,1030363.0,16.644018342221177,0.2869236357491465,0.025436665775868894,1033897.0,,,,,1036.0080908945115,1032.4740908945116,
62,7,19,f,1,1,54.0,16,3,high,7 + 1 + 9 + 5 - 6,16,14,16,15,1047.2259565999848,1049.2508959000115,1050.7661755000008,1055.7844660999835,1056.4945848000352,1056.494590300019,1058.010819100018,1059.0280303999898,w,16.0,0.7101187000516802,1,+10,348,-8.807968524571923,1.1940024073025932,-0.1937880751017198,1045121.0,31.03056042471615,1.2804268415626567,0.05263061468299868,1048656.0,,,,,1050.7670908945115,1047.2320908945117,
63,7,19,f,1,1,55.0,17,4,high,3 + 8 - 4 + 9 + 7,23,24,22,23,1060.5449268000084,1062.567366500036,1064.082814000023,1069.1017469000071,1070.2146158000105,1070.214621399995,1071.731052600022,1072.7484317999915,e,23.0,1.1128689000033771,1,+10,358,5.613725827222313,0.8107256682996349,0.04575342734340215,1058438.0,4.058140845004545,1.1169301771595381,0.09731087277746164,1061972.0,,,,,1064.0830908945115,1060.5490908945117,
64,7,19,f,1,1,56.0,18,4,low,2 + 5 - 3 + 9 + 8,21,19,21,22,1074.2652653999976,1076.292012299993,1077.8074469999992,1082.8261843000073,1083.5105917000328,1083.5105972000165,1085.0269715000177,1086.0447169999825,w,21.0,0.6844074000255205,1,+1,359,-5.451539209067545,1.5203074332429338,-0.0023889274239095037,1072163.0,0.7368833179662779,0.46117309925286776,0.09512890956949782,1075697.0,,,,,1077.8080908945115,1074.2740908945116,
65,7,19,f,1,1,57.0,19,4,high,3 + 8 - 5 + 9 - 7,8,7,8,6,1087.5614483000245,1089.588298799994,1091.1035315000336,1096.1218085000291,1097.822712299996,1097.8227177000372,1099.3390667000203,1100.3563865000033,w,8.0,1.700903799966909,1,+10,369,11.764814561424465,0.20447178070647265,-0.006714506659144304,1085459.0,-8.433030740062868,0.7516289235671643,-0.005334690604412495,1088993.0,,,,,1091.1040908945115,1087.5700908945116,
66,7,19,f,1,1,58.0,20,4,low,5 + 7 - 4 + 8 + 6,22,23,22,24,1101.8732504000072,1103.8991743000224,1105.414350899984,1110.4347321999958,1111.1985880000284,1111.1985934000113,1112.7150610000244,1113.7318596999976,w,22.0,0.7638558000326157,1,+1,370,21.85360822662044,1.0669471783695164,-0.08806025728389555,1099770.0,-43.64492013350869,0.6304160674598371,0.005909529870934849,1103305.0,,,,,1105.4160908945116,1101.8810908945115,
67,7,19,f,1,1,59.0,21,1,high,5 + 9 - 1 + 1 + 1,15,13,17,15,1115.248437100032,1117.2758063999936,1118.791054500034,1123.8222902999842,1124.606548700016,1124.6065543000004,1126.1232687000302,1127.1408123000292,e,15.0,0.7842584000318311,1,+10,380,11.301457783657,-0.21495600328786946,0.07327934073137055,1113146.0,-27.78152955592209,0.5383129040830212,0.01220462389474175,1116693.0,,,,,1118.8040908945115,1115.2570908945115,
68,7,19,f,1,1,60.0,22,4,low,5 + 8 - 6 + 7 + 4,18,18,19,17,1128.6575070000254,1130.682195800007,1132.1974527999992,1137.217575800023,1138.1586857000366,1138.1586914000218,1139.6754437999916,1140.6923629000084,q,18.0,0.9411099000135436,1,+1,381,-1.4232892455032484,-0.20222126206133062,0.015969031038556514,1126553.0,0.9060979272301335,0.4810980938316831,-0.07660333756150872,1130088.0,,,,,1132.1990908945115,1128.6640908945117,
69,7,19,f,1,1,61.0,23,4,low,7 + 6 - 4 + 9 - 5,13,12,14,13,1142.2233754000044,1144.249432099983,1145.764776199998,1150.7833963999874,1151.5346344999853,1151.534640100028,1153.0511419000104,1154.067936300009,e,13.0,0.7512380999978632,1,+1,382,-11.509520928096725,0.9455675847440128,0.05493563435750315,1140120.0,1.2606973778384933,0.6714785599917876,0.25218767320468793,1143654.0,,,,,1145.7650908945116,1142.2310908945115,
70,7,19,f,1,1,62.0,24,2,low,8 + 1 + 9 + 1 - 4,15,15,14,16,1155.58479480003,1157.6120711000403,1159.127983000013,1164.146105599997,1165.174624999985,1165.1746314000338,1166.7431363000069,1167.760219499993,q,15.0,1.0285193999879991,1,+1,383,13.15216803645007,1.2201084240987115,0.05387973727856754,1153483.0,-41.69342433420711,0.7561470298796911,0.028388050706877888,1157017.0,,,,,1159.1280908945116,1155.5940908945115,
71,7,19,f,1,1,63.0,25,1,high,9 + 7 + 1 + 1 + 1,19,20,18,19,1169.2767252000049,1171.3037332000094,1172.8189427999896,1177.8387451000162,1178.4706401000149,1178.470645399997,1179.9870396000333,1181.0044224000303,e,19.0,0.6318949999986216,1,+10,393,8.775382928145566,0.32359675827038004,-0.09387451501339927,1167174.0,-6.804605535855714,-0.3997546500714133,-0.057877091662970725,1170709.0,,,,,1172.8200908945116,1169.2850908945115,
72,7,19,f,1,1,64.0,26,1,low,2 + 9 + 1 + 1 + 1,14,13,12,14,1182.5211414000369,1184.549101200013,1186.0643060000148,1191.0822312000091,1192.0387544000405,1192.0387603000272,1193.5554479000275,1194.5725074000077,e,14.0,0.95652320003137,1,+1,394,-4.063710970826304,0.481163743643493,-0.16293317342169722,1180419.0,10.306004868909831,0.35323790660349363,0.062198632266390774,1183953.0,,,,,1186.0640908945115,1182.5300908945117,
73,7,19,f,1,1,65.0,27,3,low,6 - 1 + 7 - 8 + 9,13,12,13,11,1196.089432800014,1198.1183382000308,1199.6336764000007,1204.652436000004,1205.8786471000058,1205.8786529999925,1207.395260000019,1208.412302599987,w,13.0,1.2262111000018194,1,+1,395,-16.331082724215,0.2325328192353764,0.06579706128794549,1193989.0,12.820982259005962,-0.11064520326978222,0.010032840117485398,1197523.0,,,,,1199.6340908945115,1196.1000908945116,
74,7,19,f,1,1,66.0,28,3,high,7 - 1 + 8 - 6 + 4,12,12,13,11,1209.9295161000337,1211.952822500025,1213.468671699986,1218.4866296999971,1219.2707065999855,1219.270711900026,1220.7874164000386,1221.804599200026,q,12.0,0.7840768999885768,1,+10,405,1.9386507789555942,-0.24552237111730602,-0.025892832402114152,1207823.0,18.32045856052475,0.7275899793423255,-0.13323030114936274,1211358.0,,,,,1213.4690908945115,1209.9340908945117,
75,7,19,f,1,1,67.0,29,4,high,2 + 9 - 6 + 8 - 4,9,9,11,7,1223.3215612000204,1225.3463599000245,1226.8615188000258,1231.880914999987,1232.598651200009,1232.5986567999937,1234.1155249000294,1235.132986099983,q,9.0,0.7177362000220455,1,+10,415,9.164976562222828,0.07384725776643375,0.0688699769006027,1221217.0,6.648004757713457,-0.22461927929319092,0.1498724890913976,1224750.0,,,,,1226.8610908945116,1223.3280908945117,
76,7,19,f,1,1,68.0,30,1,high,6 + 1 + 8 + 1 - 1,15,13,15,14,1236.649642400036,1238.675648100034,1240.190795500006,1245.209607299999,1245.9827348000254,1245.9827401000075,1247.4992191999918,1248.5164898000075,w,15.0,0.7731275000260212,1,+10,425,-8.97016232257771,0.26745940550689085,0.08823934239617492,1234546.0,-27.611404180245,0.2974854078375877,-0.14859585312725065,1238079.0,,,,,1240.1900908945115,1236.6570908945116,
77,7,19,f,1,1,69.0,31,1,low,4 + 1 + 1 + 7 - 1,12,13,12,14,1250.0332005000091,1252.059473200003,1253.5746927,1258.5933616000111,1259.1907136000227,1259.1907190000056,1260.7077070000232,1261.7245242000208,w,12.0,0.5973520000115968,1,+1,426,30.276504124347223,0.4872916434434895,0.11128134371174458,1247930.0,-20.630657682195626,0.15055505752664367,0.15718594449845358,1251464.0,,,,,1253.5750908945115,1250.0410908945116,
78,7,19,f,1,1,70.0,32,4,low,5 + 6 - 4 + 7 + 9,23,24,23,25,1263.2413559000124,1265.2677450000192,1266.7829520000378,1271.8035147000337,1272.4866311000078,1272.4866362999892,1274.0033013999928,1275.0206142000388,w,23.0,0.6831163999740966,1,+1,427,29.343833912947503,0.14706980493496769,-0.0901711097793314,1261138.0,-8.869939616804073,0.6305139907795958,0.029421639612013273,1264673.0,,,,,1266.7840908945116,1263.2490908945115,
79,7,19,f,1,1,71.0,33,4,high,4 + 7 + 9 - 5 + 7,22,24,22,23,1276.5370424999855,1278.5634150000403,1280.0783792000148,1285.0972591000027,1285.694773300027,1285.6947834999885,1287.211359000008,1288.2290087,w,22.0,0.5975142000243068,1,+10,437,31.619991633971374,1.550175544068848,-0.041764766718924484,1274433.0,-9.137077046458858,-0.2171899190017461,0.03085629360747877,1277967.0,,,,,1280.0780908945117,1276.5440908945116,
80,7,19,f,1,1,72.0,34,3,high,7 - 1 + 9 - 5 + 4,14,15,14,13,1289.7460994999856,1291.7691670000204,1293.2845649000374,1298.3031775000272,1303.1027951000142,1303.102800599998,1304.6195083000348,1305.636799400032,w,14.0,4.799617599986959,1,+10,447,-22.51905853169928,-0.6735654894875189,0.013436049621190937,1287639.0,-9.601292433310258,0.029568379855797744,0.036381521110456116,1291173.0,,,,,1293.2840908945116,1289.7500908945115,
81,7,19,f,1,1,73.0,35,3,low,6 + 1 + 8 + 7 - 9,13,15,13,14,1307.1536803999916,1309.1787931,1310.6942012000363,1315.7136150000151,1316.2467203999986,1316.2467255000374,1317.7629809000064,1318.7798463000215,w,13.0,0.5331053999834694,1,+1,448,12.021171110056217,0.12707892959993305,0.02033955246338892,1305049.0,5.053251142725833,0.2549330754479522,0.0900255592265422,1308584.0,,,,,1310.6950908945116,1307.1600908945115,
82,7,19,f,1,1,74.0,36,2,low,3 + 9 - 1 - 5 + 1,7,6,7,5,1320.2964250000075,1322.3248944000225,1323.8399076000203,1328.8580708000227,1329.430737800023,1329.4307431000052,1330.9474617000087,1331.963948299992,w,7.0,0.5726670000003651,1,+1,449,7.574470173758968,-0.07225810578360825,-0.04343710767133713,1318194.0,15.098670986924821,1.0853359415303068,-0.021074569938388743,1321728.0,,,,,1323.8390908945116,1320.3050908945115,
83,7,19,f,1,1,75.0,37,2,high,5 - 8 + 7 + 1 + 1,6,7,8,6,1333.4806542000151,1335.5069592000218,1337.0221272000344,1342.0404785000137,1342.7668006999884,1342.7668064000318,1344.283466199995,1345.3009132000152,e,6.0,0.7263221999746747,1,+10,459,12.148149445400007,0.09412053080660954,-0.10225147737005735,1331377.0,11.269808174112423,0.5862812014910306,0.022658214771717144,1334911.0,,,,,1337.0220908945116,1333.4880908945115,
84,7,19,f,1,2,76.0,0,3,low,4 + 8 - 9 + 1 + 7,11,13,9,11,1381.715565600025,1383.7433810000075,1385.2586678999942,1390.2785399000277,1391.814800299995,1391.8148059000378,1393.3313898000051,1394.348410799983,e,11.0,1.536260399967432,1,+1,460,7.936833915744249,-2.786788053671456,-1.7444752253974962,1379613.0,1.8536266579115228,0.6953410737675134,-0.003668656255028546,1383148.0,,,,,1385.2590908945115,1381.7240908945116,
85,7,19,f,1,2,77.0,1,2,low,7 + 5 + 1 + 9 + 1,23,23,21,22,1395.8655565000372,1397.892609600036,1399.407715599984,1404.4267281999928,1405.2867216999875,1405.2867272000294,1406.8032006000285,1407.820044699998,q,23.0,0.8599934999947436,1,+1,461,-11.624873392785974,0.5732830174448833,-0.06409050304651887,1393762.0,-26.06492249833838,0.5305114192215354,0.0744310258225156,1397296.0,,,,,1399.4070908945116,1395.8730908945115,
86,7,19,f,1,2,78.0,2,4,low,6 + 5 - 7 + 8 - 9,3,5,3,4,1409.3367680000374,1411.3640607999987,1412.8791246000328,1417.8977435000124,1418.54283640004,1418.542842300027,1420.059509899991,1421.076374800003,w,3.0,0.645092900027521,1,+1,462,20.574008100086242,0.18213987058884307,0.026496291095690516,1407234.0,8.732400815873456,1.0815549249430014,0.0020932579514250094,1410767.0,,,,,1412.8780908945116,1409.3450908945115,
87,7,19,f,1,2,79.0,3,3,low,5 + 6 - 4 - 1 + 8,14,14,15,16,1422.5932138999924,1424.6193807999953,1426.1336826999905,1431.15428040002,1431.7748129999964,1431.7748183000367,1433.2915377999889,1434.308333299996,q,14.0,0.6205325999762863,1,+1,463,-21.37009952882078,0.6626397508034731,0.0494892766675048,1420489.0,-17.248065536670307,0.5899641814689769,-0.002222758437106842,1424023.0,,,,,1426.1340908945115,1422.6000908945116,
88,7,19,f,1,2,80.0,4,1,low,3 + 1 + 1 + 9 - 1,13,14,13,12,1435.825062000018,1437.8526260000071,1439.3678922000108,1444.3859909999885,1445.4868775000214,1445.4868835000088,1447.0043803000008,1448.0213629000357,w,13.0,1.1008865000330843,1,+1,464,16.180342050031307,0.8043683357647029,-0.04968075254291948,1433722.0,20.80498729045297,0.23722416601238105,-0.0642076388979187,1437255.0,,,,,1439.3660908945117,1435.8330908945115,
89,7,19,f,1,2,81.0,5,1,high,7 - 1 + 9 + 1 - 1,15,14,13,15,1449.5384567999863,1451.56468390004,1453.0793245999955,1458.0974716999915,1461.822798100009,1461.8228035999928,1463.3392153999885,1464.3564327000058,q,14.0,3.725326400017366,0,+0,464,-17.439296813784,0.37435101547320837,-0.03098823612616175,1447434.0,8.36669626490241,0.1201187971451585,0.04507779228786246,1450967.0,,,,,1453.0780908945117,1449.5450908945115,
90,7,19,f,1,2,82.0,6,4,low,5 + 7 - 4 - 6 + 9,11,13,12,11,1465.8733410999994,1467.897991200036,1469.4130058999872,1474.4329908000072,1475.0788770000215,1475.0788829000085,1476.5951064000255,1477.6125940000056,e,11.0,0.6458862000145018,1,+1,465,3.572822328737333,0.585571667685584,0.12357256572953168,1463767.0,-7.001333328580762,1.0198153330526578,0.1173386419388156,1467303.0,,,,,1469.4140908945117,1465.8780908945116,
91,7,19,f,1,2,83.0,7,1,low,4 + 8 + 1 - 1 - 1,11,9,11,13,1479.1298197000287,1481.1575101999915,1482.6728236000054,1487.6923768999986,1488.4388820999884,1488.438888000033,1489.955413000018,1490.972530500032,e,13.0,0.7465051999897696,0,+0,465,-11.847789879007673,-0.09906305593595377,-0.18244603039874874,1477027.0,-27.922086362979954,0.5481496873712342,0.03275327669543393,1480561.0,,,,,1482.6720908945115,1479.1380908945116,
92,7,19,f,1,2,84.0,8,4,high,7 + 8 - 4 + 6 + 5,22,22,21,23,1492.4894173000357,1494.5158660000309,1496.0311213000095,1501.0512655000202,1501.6630232000025,1501.6630286999862,1503.1795646999965,1504.1968673000229,q,22.0,0.6117576999822631,1,+10,475,6.24794496251193,0.014499388297185334,-0.01346300446138704,1490385.0,-0.7668144994593007,0.5163163321487918,-0.03478745642104197,1493920.0,,,,,1496.0310908945116,1492.4960908945116,
93,7,19,f,1,2,85.0,9,1,low,2 + 1 + 9 + 1 + 1,14,12,13,14,1505.7135237000184,1507.7408996000304,1509.2561080000014,1514.2740565999993,1515.2388595000375,1515.2388649000204,1516.755356699985,1517.7724087000242,e,14.0,0.964802900038194,1,+1,476,23.51631251991047,0.059671604622287155,0.007234167092536881,1503610.0,1.118378772401396,0.46125866822928696,0.04087797147042371,1507143.0,,,,,1509.2540908945116,1505.7210908945115,
94,7,19,f,1,2,86.0,10,3,low,5 + 1 + 7 - 8 + 6,11,13,9,11,1519.289642699994,1521.3164513999943,1522.8316671000211,1527.8520700000226,1529.422942300036,1529.422948100022,1530.939569499984,1531.9563807999948,e,11.0,1.570872300013434,1,+1,477,-22.20413309714577,2.0237583592536317,-1.4838361241981557,1517185.0,-9.384169315791352,0.41960989840954177,-0.06987873316439686,1520721.0,,,,,1522.8320908945116,1519.2960908945115,
95,7,19,f,1,2,87.0,11,3,low,3 + 8 - 7 - 1 + 9,12,14,12,13,1533.473160599999,1535.4976426000358,1537.012867500016,1542.0317140999832,1543.1028453999895,1543.1028509000316,1544.619478000037,1545.6363974999986,w,12.0,1.0711313000065277,1,+1,478,-21.23483227803039,1.5137745522659642,0.024796043275058022,1531367.0,2.1497542669704157,-0.5729098740941181,-0.013611302870835562,1534901.0,,,,,1537.0120908945116,1533.4780908945115,
96,7,19,f,1,2,88.0,12,4,low,7 + 6 - 9 + 8 - 3,9,8,9,7,1547.1787796000135,1549.2063265999896,1550.7215485000052,1555.7405674000038,1556.3269245999982,1556.3269300000393,1557.8436382000218,1558.8606780000264,w,9.0,0.5863571999943815,1,+1,479,-0.7749589922021372,0.9590617366424992,-0.06217292750387893,1545075.0,-12.800494596159734,0.44327459729838736,0.11162477555242467,1548609.0,,,,,1550.7200908945115,1547.1860908945116,
97,7,19,f,1,2,89.0,13,2,low,3 + 1 + 8 - 5 - 1,6,6,5,7,1560.376834900002,1562.4051221000263,1563.9204928000108,1568.9396484000026,1569.534941699996,1569.5349478999851,1571.0516848000116,1572.0684137000353,q,6.0,0.5952932999935001,1,+1,480,-3.7008453253382054,0.46719988037752724,0.003992031586974809,1558274.0,13.395488530368091,0.18306324978511057,0.05127677339277992,1561808.0,,,,,1563.9190908945116,1560.3850908945114,
98,7,19,f,1,2,90.0,14,4,low,4 + 8 + 9 - 3 + 7,25,26,24,25,1573.5853209000195,1575.6093614000129,1577.1245726000052,1582.1447364999913,1584.2148728999891,1584.2148787000333,1585.7317370999954,1586.7583582000225,w,24.0,2.070136399997864,0,+0,480,-15.022035330578644,0.07280336254492514,-0.004865192793179096,1571479.0,-35.01863769406239,0.9218242186899559,-0.015988177120123792,1575014.0,,,,,1577.1250908945115,1573.5900908945116,
99,7,19,f,1,2,91.0,15,1,high,8 + 1 + 4 + 1 + 1,15,15,16,14,1588.2752090999857,1590.3025271000224,1591.8177880999865,1596.8357488000183,1597.3188409000286,1597.3188462000107,1598.835443500022,1599.8528446999844,q,15.0,0.4830921000102535,1,+10,490,30.612534832287572,0.7503201020443653,0.02322432058352586,1586171.0,-15.437081708999635,0.4482969364622802,-0.009368066016171683,1589705.0,,,,,1591.8160908945115,1588.2820908945116,
100,7,19,f,1,2,92.0,16,3,high,6 - 1 + 7 - 8 + 9,13,13,12,11,1601.3695638999925,1603.3948436999926,1604.910321100033,1609.9291024000267,1610.7110218000016,1610.7110272999853,1612.227573900018,1613.2453342000372,q,13.0,0.7819193999748677,1,+10,500,21.970185308245348,-0.24986170955066633,-0.058137110277781456,1599263.0,21.457122539995567,-1.2965195636375233,0.0049081988082766426,1602798.0,,,,,1604.9090908945116,1601.3740908945115,
101,7,19,f,1,2,93.0,17,4,high,8 + 4 - 5 + 7 - 6,8,7,6,8,1614.762452199997,1616.789391600003,1618.3046240000403,1623.3232343000127,1624.0950240000384,1624.095029500022,1625.6116019000185,1626.6290117999888,e,8.0,0.7717897000256926,1,+10,510,-6.795937868485484,-0.28644430617955763,-0.049428720317415076,1612658.0,3.3946420071313934,-0.014383938356544945,0.11576685758675165,1616192.0,,,,,1618.3030908945116,1614.7690908945115,
102,7,19,f,1,2,94.0,18,4,high,7 + 8 - 4 + 6 - 5,12,12,11,13,1628.1458192000282,1630.1722824000171,1631.6875085000063,1636.705897100037,1637.4789134000312,1637.478918800014,1638.996587100031,1640.013783900009,q,12.0,0.7730162999941967,1,+10,520,3.1781406554625242,-1.0625040658726492,0.03262720417347875,1626041.0,16.413756277388842,0.6421605948600249,-0.137613392741484,1629575.0,,,,,1631.6860908945116,1628.1520908945115,
103,7,19,f,1,2,95.0,19,1,low,5 + 8 - 1 + 1 + 1,14,14,12,16,1641.5305871000164,1643.5558347000042,1645.071169100003,1650.0894528999925,1650.614941500011,1650.6149474999984,1652.1314702000236,1653.1493014000007,q,14.0,0.5254886000184342,1,+1,521,-5.070807262868503,-0.37089020814298834,0.06345294831783455,1639425.0,39.30111778563586,-0.32979965693531366,0.07982082154594905,1642958.0,,,,,1645.0690908945116,1641.5360908945115,
104,7,19,f,1,2,96.0,20,3,high,6 - 1 + 7 - 8 + 9,13,12,13,11,1654.6660824000137,1656.694436700025,1658.2090344000026,1663.2277751000363,1663.9669625000097,1663.9669682999956,1665.4835732000065,1666.5009565000073,w,13.0,0.7391873999731615,1,+10,531,-13.405907193247167,1.087385359828997,0.05565885449850261,1652563.0,-30.312188061049262,1.127347476462214,0.020564548647948877,1656096.0,,,,,1658.2070908945116,1654.6740908945117,
105,7,19,f,1,2,97.0,21,1,low,6 + 1 + 8 + 1 + 1,17,17,15,16,1668.01719340001,1670.0447935999837,1671.5600956000271,1676.578695000033,1677.1829451000085,1677.1829507999937,1678.6993581000131,1679.7164727000054,q,17.0,0.6042500999756157,1,+1,532,-25.29989009731426,-0.922546257347924,0.0829843936829977,1665913.0,-19.810664375296632,0.4857963737627822,0.15306329399624485,1669447.0,,,,,1671.5580908945115,1668.0240908945116,
106,7,19,f,1,2,98.0,22,2,high,8 + 1 + 9 + 1 - 5,14,15,13,14,1681.233200000017,1683.2594463999849,1684.774827699992,1689.7942967999843,1690.5509603000246,1690.550966300012,1692.0677578999894,1693.085200200032,e,14.0,0.7566635000403039,1,+10,542,30.26427634121611,-0.21657832927700404,0.13939199380184086,1679128.0,11.98706649640387,0.6021905285430575,0.12524710608310352,1682663.0,,,,,1684.7740908945116,1681.2390908945115,
107,7,19,f,1,2,99.0,23,4,high,8 + 4 + 7 - 5 - 6,8,6,9,8,1694.6021446000086,1696.6300387000083,1698.1450907000108,1703.1640247000032,1703.8789425999855,1703.878947900026,1705.3954978000256,1706.4133452000096,e,8.0,0.7149178999825381,1,+10,552,-14.179218906849218,-0.6129459150278311,0.4543343709139682,1692498.0,19.920809817316496,0.14118934840194264,0.05190765011808085,1696032.0,,,,,1698.1430908945115,1694.6090908945116,
108,7,19,f,1,2,100.0,24,2,low,7 + 6 + 1 - 1 - 8,5,5,3,4,1707.9302158000064,1709.955745299987,1711.4708923000144,1716.4909419000032,1717.6469375999875,1717.6469430000288,1719.1637262000004,1720.1804037999827,q,5.0,1.1559956999844871,1,+1,553,16.720201254610018,0.7431040908298581,0.0425304416110468,1705824.0,-3.431627744950582,1.3430288878948158,0.1541032777725988,1709360.0,,,,,1711.4710908945115,1707.9350908945116,
109,7,19,f,1,2,101.0,25,4,low,4 + 7 - 8 + 9 - 3,9,9,11,8,1721.6971592000336,1723.7248639999889,1725.2402164000086,1730.258965999994,1730.9510715000215,1730.9510769000044,1732.467586999992,1733.484552400012,q,9.0,0.6921055000275373,1,+1,554,17.38119306410921,0.8015283093524834,0.007814373925796758,1719593.0,-3.7758541484262977,0.03049907402370522,0.12211627099455691,1723127.0,,,,,1725.2380908945115,1721.7040908945116,
110,7,19,f,1,2,102.0,26,3,low,2 + 9 - 3 + 4 + 1,13,13,11,14,1735.0023661000305,1737.029347100004,1738.544545200013,1743.56455000001,1745.10304680001,1745.103052499995,1746.6711266000057,1747.6882184999995,q,13.0,1.538496799999848,1,+1,555,-20.45225086214367,0.9659035161153637,-0.026925641634005126,1732898.0,-10.09653572911511,1.465635443985029,-0.034559435103322045,1736433.0,,,,,1738.5440908945116,1735.0090908945115,
111,7,19,f,1,2,103.0,27,4,low,6 + 9 - 7 + 8 - 5,11,13,11,12,1749.2050144000095,1751.2330618000124,1752.7482521000202,1757.7673295999994,1758.479053499992,1758.4790591000346,1759.9965815999894,1761.013611800037,w,11.0,0.7117238999926485,1,+1,556,-19.892945297891842,0.04743430520666969,0.06763197041286428,1747101.0,17.690726409857515,0.7931349082820356,0.05167922586324303,1750635.0,,,,,1752.7460908945116,1749.2120908945117,
112,7,19,f,1,2,104.0,28,1,high,5 + 6 + 1 + 1 + 1,14,13,16,14,1762.530418200011,1764.5567210000008,1766.0717307000305,1771.090222400031,1772.086979100015,1772.086984499998,1773.6034507000004,1774.6206648999942,e,14.0,0.996756699983962,1,+10,566,-17.82123985825977,0.4309400262506804,-0.09219060752672958,1760425.0,33.106392748698184,-0.9037025167857093,-0.028624424777815793,1763958.0,,,,,1766.0690908945116,1762.5360908945115,
113,7,19,f,1,2,105.0,29,3,high,7 - 1 + 8 - 6 + 4,12,12,13,11,1776.1373018000158,1778.161135900009,1779.676328600035,1784.6951225000084,1785.3589276000275,1785.3589325000066,1786.875565399998,1787.892856999999,q,12.0,0.6638051000190899,1,+10,576,-26.08129579100456,0.10588487342916952,0.1189210324682004,1774030.0,5.139391003756663,-0.004100420103589464,0.14964473735209327,1777563.0,,,,,1779.6740908945117,1776.1410908945115,
114,7,19,f,1,2,106.0,30,4,low,5 + 7 - 4 + 6 + 9,23,24,23,25,1789.4094214999932,1791.4354909000103,1792.950270500034,1797.9686998000252,1798.6149581000209,1798.614963700005,1800.131442599988,1801.1486646999838,w,23.0,0.6462582999956794,1,+1,577,-1.1054318794724942,1.5352333197335732,0.08453326965205887,1787303.0,-1.9709147412747834,0.9843579769114079,0.14058393427236826,1790837.0,,,,,1792.9480908945116,1789.4140908945117,
115,7,19,f,1,2,107.0,31,3,low,3 + 1 + 6 - 8 + 9,11,13,12,11,1802.6654080000008,1804.6924459,1806.2078060000204,1811.2913479999988,1812.0070355000207,1812.007042400015,1813.523736800009,1814.5406834000023,e,11.0,0.7156875000218861,1,+1,578,1.6355682252108732,1.559342882466292,0.10587626325222788,1800560.0,-23.87924703511458,1.3077999678902374,-0.059117062307439516,1804159.0,,,,,1806.2700908945117,1802.6710908945115,
116,7,19,f,1,2,108.0,32,4,high,6 + 9 + 7 - 3 - 5,14,13,14,15,1816.057596500032,1818.081790700031,1819.597038200009,1824.616182600032,1825.207000800001,1825.207006599987,1826.7238784999936,1827.7917967000396,w,14.0,0.5908181999693625,1,+10,588,34.51249788054355,0.7180064105216113,-8.368770248443031,1813950.0,16.528012997515052,0.055949111884133984,-0.0683064822408912,1817484.0,,,,,1819.5950908945115,1816.0610908945116,
117,7,19,f,1,2,109.0,33,1,low,7 + 1 + 4 + 1 - 1,12,12,11,13,1829.3086977000348,1831.334164,1832.8506868000256,1837.868866600038,1838.4150980000268,1838.415104100015,1839.93175540003,1840.9488454000093,q,12.0,0.5462313999887556,1,+1,589,2.9227051738769365,0.004480640226758759,0.020938858009635686,1827202.0,23.425457281576282,0.4566909923246092,0.10910171054278872,1830737.0,,,,,1832.8480908945116,1829.3130908945116,
118,7,19,f,1,2,110.0,34,2,high,3 + 9 + 1 - 5 + 1,9,8,7,9,1842.4656881000265,1844.4938875000223,1846.009458800021,1851.027605900017,1851.599075200036,1851.5990808000208,1853.1152557000169,1854.132543099986,e,9.0,0.5714693000190891,1,+10,599,5.081688842689841,0.8361352184279243,0.07903683736847289,1840362.0,11.424589899287488,0.20348664896170465,0.08666166943518161,1843896.0,,,,,1846.0070908945115,1842.4730908945116,
119,7,19,f,1,2,111.0,35,4,low,9 + 3 - 5 + 8 + 6,21,21,23,19,1855.649942499993,1857.6767264000373,1859.191927600012,1864.2101716999896,1864.7911102999933,1864.7911157000344,1866.3078393000176,1867.3249865000253,q,21.0,0.5809386000037193,1,+1,600,-31.561860524452484,0.9221557389336636,0.02532124039979422,1853545.0,5.2416152254560195,1.2152445449136513,0.032336396673178,1857078.0,,,,,1859.1890908945115,1855.6560908945116,
120,7,19,f,1,2,112.0,36,1,high,7 + 1 + 5 + 1 - 1,13,12,14,13,1868.8422136000008,1870.868673400022,1872.3839668,1877.402438600024,1878.0551174000136,1878.0551233000008,1879.571544300008,1880.5887648999924,e,13.0,0.6526787999900989,1,+10,610,1.1999318360698652,-0.13298318048909152,0.0511440901098239,1866736.0,-0.7448462242360794,0.34077360711611426,-0.09470354687301974,1870270.0,,,,,1872.3810908945115,1868.8470908945117,
121,7,19,f,1,2,113.0,37,3,low,4 + 1 + 8 + 9 - 5,17,18,17,19,1882.1055825999936,1884.1303882999928,1885.6456047000247,1890.6643718000269,1891.2391301000025,1891.239135799988,1892.755335299997,1893.772324700025,w,17.0,0.574758299975656,1,+1,611,39.15986989501717,0.0794095461794484,-0.003050787309933023,1879998.0,-75.09841081210114,1.7747452953488585,0.1341630574425583,1883532.0,,,,,1885.6430908945115,1882.1090908945116,
122,7,19,f,1,3,114.0,0,4,low,3 + 9 - 5 + 6 + 8,21,23,22,21,1976.547247599985,1978.5747082000016,1980.0898789000348,1985.108425499988,1985.7110691000123,1985.711074299994,1987.2278647000203,1988.244835200021,e,21.0,0.6026436000247486,1,+1,612,4.008585817305541,-2.3178165925756087,0.026600789243761636,1974442.0,2.6402936489955398,1.1500834310431776,0.1973694410402036,1977976.0,,,,,1980.0870908945117,1976.5530908945116,
123,7,19,f,1,3,115.0,1,2,low,6 + 8 + 1 + 1 - 7,9,8,11,9,1989.7616482999877,1991.788658800011,1993.3039379999973,1998.323209299997,1998.759132300038,1998.7591379000223,2000.2758795000263,2001.2929913999976,e,9.0,0.4359230000409297,1,+1,613,25.12385567309972,0.06412778898101656,0.006115026506880117,1987656.0,-14.07485899393113,-0.4134640908842755,0.014021570032711095,1991190.0,,,,,1993.3010908945116,1989.7670908945115,
124,7,19,f,1,3,116.0,2,2,high,6 + 1 + 7 - 8 - 1,5,4,7,5,2002.8097026000032,2004.8353802000056,2006.3505586000392,2011.3688531999944,2011.919195400027,2011.9192010000115,2013.4360544999945,2014.4532741000291,e,5.0,0.550342200032901,1,+10,623,18.268345466617166,0.2623831961795373,0.12733459380398515,2000702.0,-0.33171031019358566,0.17352670480048804,0.004340132425885823,2004236.0,,,,,2006.3470908945117,2002.8130908945116,
125,7,19,f,1,3,117.0,3,1,high,7 + 1 + 4 + 1 - 1,12,12,13,14,2015.969901100034,2017.9964049999835,2019.511622500024,2024.5299222000176,2026.6311305999989,2026.63113600004,2028.147646300029,2029.1650493000047,q,12.0,2.1012083999812603,1,+10,633,10.581599237477658,0.10898094876860576,-0.12154045352089349,2013864.0,16.13037471146094,0.8353681269443758,-0.08083832641518152,2017397.0,,,,,2019.5080908945115,2015.9750908945116,
126,7,19,f,1,3,118.0,4,1,low,7 - 1 + 1 + 9 - 1,15,15,14,13,2030.681679900037,2032.7078025999945,2034.223014999996,2039.2413319000043,2040.6951913000084,2040.6951974999972,2042.211850600026,2043.2290633000084,e,13.0,1.4538594000041485,0,+0,633,15.98234295131288,0.5392461506230282,0.04301753753942705,2028575.0,22.87808040674185,0.2907919737949589,0.033390295376603873,2032109.0,,,,,2034.2200908945115,2030.6860908945116,
127,7,19,f,1,3,119.0,5,3,high,6 + 7 + 8 + 1 - 9,13,14,13,15,2044.745757900004,2046.773571100028,2048.2889732000185,2053.3076459000004,2054.0631509000086,2054.063156899996,2055.580052400008,2056.5972058000043,w,13.0,0.7555050000082701,1,+10,643,-12.092689279212067,0.21579883821473445,-0.5274612740061204,2042640.0,14.085171706974819,-0.54295970260043,-0.11667339909505525,2046175.0,,,,,2048.2860908945117,2044.7510908945117,
128,7,19,f,1,3,120.0,6,3,low,8 + 3 + 1 - 7 + 9,14,12,14,15,2058.113656100002,2060.138220600027,2061.652263300028,2066.671174200019,2068.18319890002,2068.183204800007,2069.6993153000367,2070.7165024999995,w,14.0,1.5120247000013478,1,+1,644,2.7873628498014558,2.0835734934225485,-0.7653969452061997,2056005.0,20.783727492504568,0.5946430494029542,0.08406578444804347,2059538.0,,,,,2061.6490908945116,2058.1160908945117,
129,7,19,f,1,3,121.0,7,1,low,3 + 1 + 8 + 1 + 1,14,14,13,12,2072.233288999996,2074.260347000032,2075.7755446000374,2080.794230600004,2081.455248499988,2081.455255000037,2082.972213900008,2083.989485500031,q,14.0,0.6610178999835625,1,+1,645,-16.521336498723944,1.0467295150097247,0.010695559621855644,2070127.0,-9.329968706683182,-0.09244740423628706,0.07168685627803462,2073661.0,,,,,2075.7720908945116,2072.2380908945115,
130,7,19,f,1,3,122.0,8,4,low,3 + 9 - 4 + 7 + 6,21,21,20,19,2085.5061600999907,2087.533764299995,2089.0489285000367,2094.067950299999,2094.567433100019,2094.5674399000127,2096.0851692000288,2097.101681000029,q,21.0,0.4994828000199049,1,+1,646,-6.459836205060272,0.2592373812499842,-0.1002480614717185,2083401.0,-10.718354424208513,0.265858592219943,0.07994540618588597,2086935.0,,,,,2089.0460908945115,2085.5120908945114,
131,7,19,f,1,3,123.0,9,2,high,9 + 1 + 6 + 7 + 1,24,23,24,25,2098.618589700025,2100.645990399993,2102.161217099987,2107.179418899992,2108.7032375999843,2108.7032437000307,2110.220382400032,2111.2375659000245,w,24.0,1.5238186999922618,1,+10,656,6.254949775812305,0.6103560730383144,0.006605679941043441,2096513.0,16.383509363347827,0.20955765027022366,-0.029688833435126405,2100046.0,,,,,2102.1570908945114,2098.6240908945115,
132,7,19,f,1,3,124.0,10,3,low,8 - 7 + 9 + 1 + 4,15,16,14,15,2112.753281900019,2114.7811172000365,2116.2967932000174,2121.3152680000057,2123.319191800023,2123.3191974000074,2124.835615499993,2125.853032300016,e,15.0,2.003923800017219,1,+1,657,2.58302010921686,1.0866087077418154,0.08351794677070767,2110648.0,-3.4742200960488887,-0.4581009369874236,0.18866434229201068,2114182.0,,,,,2116.2930908945114,2112.7590908945117,
133,7,19,f,1,3,125.0,11,4,high,6 + 9 + 7 - 3 - 5,14,14,13,12,2127.3706190999947,2129.3944282000302,2130.909801300033,2135.9284298000275,2136.5273629000294,2136.5273690000176,2138.044792300032,2139.062264500011,q,14.0,0.5989331000018865,1,+10,667,-8.437827735736253,1.733741004834128,-0.05004180393334434,2125261.0,-12.303082033459198,0.5936003307975595,-0.10619997471689224,2128795.0,,,,,2130.9060908945116,2127.3720908945115,
134,7,19,f,1,3,126.0,12,2,low,4 + 8 + 1 + 1 - 6,8,7,8,9,2140.580171599984,2142.6080311000114,2144.123014300014,2149.1411789000267,2149.6952593000024,2149.695264399983,2151.2118002999923,2152.228742300009,w,8.0,0.5540803999756463,1,+1,668,7.774515235046027,0.7120360340148206,0.07452643259705738,2138475.0,-2.6737401120266426,0.8539207890670646,0.050786497387247165,2142008.0,,,,,2144.1190908945114,2140.5860908945115,
135,7,19,f,1,3,127.0,13,2,low,9 + 6 + 1 + 7 + 1,24,24,23,25,2153.7456367000123,2155.769808300014,2157.2855085000047,2162.303376500029,2163.10316150001,2163.1031667999923,2164.61997,2165.6368617999838,q,24.0,0.7997849999810569,1,+1,669,27.48214535336959,1.7478445909377478,0.03262659715699123,2151636.0,18.90254496801358,1.022636993957187,0.05032667433893456,2155170.0,,,,,2157.2810908945116,2153.7470908945115,
136,7,19,f,1,3,128.0,14,1,low,9 + 1 + 1 + 7 - 1,17,16,19,17,2167.1536175000365,2169.181232900009,2170.696705200011,2175.7151258999947,2177.88726410002,2177.8872729000286,2179.403874700016,2180.420823600027,e,17.0,2.172138200025074,1,+1,670,-9.846078501571627,0.1084376595570653,-0.05569798688725913,2165048.0,32.83106929252163,-0.7582373557858855,-0.0641358023908496,2168582.0,,,,,2170.6930908945114,2167.1590908945113,
137,7,19,f,1,3,129.0,15,2,low,4 + 1 + 9 + 1 - 6,9,7,8,9,2181.938360000029,2183.9652551999898,2185.480965299997,2190.499309500039,2191.0312706000404,2191.031276500027,2192.547963400022,2193.565042400034,e,9.0,0.5319611000013538,1,+1,671,16.59130925704838,0.23940816659416342,1.4780726510123539,2179832.0,8.88718671522588,-0.34845153281768493,0.12419008431543244,2183366.0,,,,,2185.4770908945115,2181.9430908945114,
138,7,19,f,1,3,130.0,16,1,low,3 + 1 + 8 + 1 + 1,14,14,13,16,2195.08184280002,2197.108875100035,2198.6239046999835,2203.6416884000064,2204.2873330999864,2204.287338700029,2205.803967499989,2206.8208325000014,q,14.0,0.6456446999800391,1,+1,672,-1.9169867149873543,0.28661763603068025,-0.10792150515306687,2192975.0,-27.019368725013546,-0.006997189624703637,0.08169669550838377,2196509.0,,,,,2198.6200908945116,2195.0860908945115,
139,7,19,f,1,3,131.0,17,3,high,3 - 7 + 5 + 1 + 9,11,11,12,13,2208.3376375000225,2210.3654850000166,2211.880881900026,2216.900122000021,2217.7112917000195,2217.7112974000047,2219.227854099998,2220.2451159000047,q,11.0,0.8111696999985725,1,+10,682,-30.264516096917053,-0.3042830382483368,0.20158277569712846,2206232.0,-0.44252807293635144,0.04953720061760514,0.10000728099179046,2209766.0,,,,,2211.8770908945116,2208.3430908945115,
140,7,19,f,1,3,132.0,18,3,low,5 + 7 + 1 - 4 + 6,15,15,17,13,2221.761885999993,2223.785707300005,2225.300858100003,2230.319290000014,2232.90333120001,2232.9033367999946,2234.420017900004,2235.4367649999917,q,15.0,2.584041199996136,1,+1,683,-17.391492366877344,0.6458762898991308,-0.08952228505420101,2219652.0,13.607221293168383,0.9128553199135157,-0.046077145424208155,2223186.0,,,,,2225.2970908945117,2221.7630908945116,
141,7,19,f,1,3,133.0,19,2,high,3 - 1 + 9 - 5 + 1,7,6,5,7,2236.953333600017,2238.979744400014,2240.4949534999905,2245.5131885000155,2249.247328800033,2249.247334600019,2250.764610400016,2251.7817894000327,q,6.0,3.734140300017316,0,+0,683,-21.32984731489055,1.1949679470924703,-0.09561892552015094,2234847.0,3.917105621464768,0.03833536922465797,0.02076043492463464,2238379.0,,,,,2240.4900908945115,2236.9580908945118,
142,7,19,f,1,3,134.0,20,2,low,6 + 1 + 7 + 5 - 1,18,16,18,17,2253.298375300016,2255.325857800024,2256.8414217000245,2261.8604387000087,2262.3753709000302,2262.375376700016,2263.89204050001,2264.908927600016,w,18.0,0.5149322000215761,1,+1,684,-1.5776403876016332,5.164694643870912,21.42287716257625,2251191.0,32.34203231606914,0.8401627096597251,0.14304574960651673,2254726.0,,,,,2256.8370908945117,2253.3020908945114,
143,7,19,f,1,3,135.0,21,4,low,8 + 4 + 7 - 5 - 6,8,9,8,7,2266.425488799985,2268.452831100032,2269.9681496000267,2274.987303800008,2276.271367700014,2276.271373399999,2277.7879364999826,2278.8050965000293,w,8.0,1.2840639000060037,1,+1,685,-22.555872179354992,1.0547563739711387,0.10981904622532856,2264319.0,-40.45649978290028,0.48097994696759905,0.1598042370919921,2267853.0,,,,,2269.9640908945116,2266.4300908945115,
144,7,19,f,1,3,136.0,22,1,low,8 + 1 + 1 - 1 - 4,5,6,3,5,2280.3218288000207,2282.3490505000227,2283.863400600036,2288.881967800029,2289.711315700028,2289.71132100001,2291.228080700035,2292.24512159999,e,5.0,0.8293478999985382,1,+1,686,11.365489060668637,-0.9917747221368476,0.06262461091704608,2278215.0,4.268505873507479,-0.2596058460383537,0.087272362922177,2281748.0,,,,,2283.8590908945116,2280.3260908945117,
145,7,19,f,1,3,137.0,23,1,high,7 - 1 + 8 + 1 - 1,14,13,12,14,2293.761772099999,2295.787440799992,2297.30266440002,2302.32276499999,2303.167308400036,2303.1673139000195,2304.684114600008,2305.7015693000285,e,14.0,0.84454340004595,1,+10,696,-17.953141746616566,-0.44646028224683487,0.15041572630562805,2291653.0,-4.452760817055375,-1.4723415379951046,-0.1848417326003564,2295189.0,,,,,2297.3000908945114,2293.7640908945114,
146,7,19,f,1,3,138.0,24,4,low,8 + 3 - 4 + 5 + 9,21,22,21,23,2307.219227700029,2309.246663000027,2310.761562800035,2315.7799565999885,2316.5433662,2316.5433724999893,2318.05976850004,2319.0768672000268,w,21.0,0.763409600011073,1,+1,697,-5.299944213492667,0.9788446565892208,0.0591700547338343,2305113.0,12.127839342644917,1.3353280237441476,0.061069267208122335,2308646.0,,,,,2310.7570908945117,2307.2240908945114,
147,7,19,f,1,3,139.0,25,2,low,6 + 1 + 1 + 7 - 9,6,8,6,4,2320.5934067000053,2322.6215799000347,2324.136768400029,2329.1551286000176,2329.9672799999826,2329.96728490002,2331.4834790999885,2332.5002190000378,w,6.0,0.8121513999649324,1,+1,698,-15.131078585771677,-0.10564098123603749,0.0553126688463188,2318487.0,30.497710557932955,0.23814631816506804,0.013215294018926738,2322021.0,,,,,2324.1320908945117,2320.5980908945116,
148,7,19,f,1,3,140.0,26,4,high,9 + 7 - 5 + 8 + 6,25,24,25,27,2334.016841700009,2336.0431009000167,2337.558368600032,2342.5768537000404,2343.215334200009,2343.215340099996,2344.731747300015,2345.748977100011,w,25.0,0.638480499968864,1,+10,708,2.8698582955120067,0.35660002720320794,-0.04641780104371329,2331909.0,26.20733646895403,0.14075750220452665,0.1482720940005091,2335443.0,,,,,2337.554090894512,2334.0200908945117,
149,7,19,f,1,3,141.0,27,2,high,9 + 4 - 6 + 1 - 1,7,8,7,9,2347.2657965000253,2349.293541699997,2350.808771700016,2355.8268919999828,2356.743341900001,2356.743347499985,2358.2596476000035,2359.27690300002,e,9.0,0.9164499000180512,0,+0,708,1.0068196774486804,-0.37007273559050713,-0.03545341163786553,2345159.0,-0.19799134641701954,1.1343193772383735,0.18903454824288413,2348693.0,,,,,2350.804090894512,2347.2700908945117,
150,7,19,f,1,3,142.0,28,3,high,4 + 5 - 3 + 7 - 1,12,13,11,12,2360.793652400025,2362.821118700027,2364.336530300032,2369.3551811000216,2369.959298800037,2369.9593039000174,2371.475872799987,2372.493596800021,e,12.0,0.6041177000151947,1,+10,718,1.6368541737268592,-0.2579806180726729,-0.16501536975439968,2358687.0,17.818552357139737,0.23055071336084243,-0.04626512420354767,2362221.0,,,,,2364.3320908945116,2360.7980908945115,
151,7,19,f,1,3,143.0,29,3,low,7 - 6 + 8 + 1 + 7,17,16,17,15,2374.01029820001,2376.035194199998,2377.5503937000176,2382.569623699994,2383.407424500037,2383.407430200022,2384.9239084,2385.940783900034,w,17.0,0.8378008000436239,1,+1,719,-58.32109874358042,0.7911604677971074,0.22557584928254348,2371901.0,-10.338847538402241,0.8717370870880874,0.1632964584028005,2375435.0,,,,,2377.5460908945115,2374.0120908945114,
152,7,19,f,1,3,144.0,30,3,high,3 + 1 + 8 - 5 + 9,16,15,17,16,2387.4588794999872,2389.484884500038,2391.0001758,2396.018311500025,2396.5273797999835,2396.5273852000246,2398.044121999992,2399.061119200021,e,16.0,0.5090682999580167,1,+10,729,13.468134224619497,0.3269920653215932,-0.10692935766365164,2385351.0,16.050068556998504,0.3921533889349327,0.15382414938296685,2388884.0,,,,,2390.9950908945116,2387.4620908945117,
153,7,19,f,1,3,145.0,31,3,high,4 + 7 - 3 + 5 - 1,12,13,11,12,2400.577898500021,2402.605153599987,2404.1203355999896,2409.139099200024,2411.0554264000384,2411.055431900022,2412.5717054000124,2413.588700100023,q,13.0,1.9163272000150755,0,+0,729,7.577648442175144,1.6011423320939633,0.19883446721770404,2398471.0,-1.4726371773188909,1.2165913028126898,0.11093671706678032,2402005.0,,,,,2404.1160908945117,2400.5820908945116,
154,7,19,f,1,3,146.0,32,1,low,2 + 9 + 1 + 1 + 1,14,12,14,13,2415.105427900038,2417.132886100037,2418.647815000033,2423.665539100009,2424.1913926000125,2424.191397799994,2425.708192799997,2426.72514460003,w,14.0,0.5258535000029951,1,+1,730,-5.927919618921351,0.2101778290119114,0.12413820612009308,2412998.0,1.2392032379470894,1.4692746916713268,0.021151643103231477,2416531.0,,,,,2418.6420908945115,2415.1090908945116,
155,7,19,f,1,3,147.0,33,1,high,6 + 9 + 1 + 1 - 1,16,15,14,16,2428.2418209000025,2430.2687698000227,2431.783796600008,2436.8029807999847,2437.3673563000048,2437.367361499986,2438.883901100024,2439.9012959999964,e,16.0,0.5643755000201054,1,+10,740,21.868550414734045,-0.3219184341493593,0.19509817507437632,2426135.0,-22.07461588619823,2.034156594732362,-0.2518604379788092,2429668.0,,,,,2431.7790908945117,2428.246090894512,
156,7,19,f,1,3,148.0,34,2,low,2 + 9 - 4 + 1 + 1,9,8,9,11,2441.4180189000326,2443.4463179000304,2444.9613872999907,2449.979921500024,2450.5434314000304,2450.5434367000125,2452.060099099996,2453.076805400022,w,9.0,0.5635099000064656,1,+1,741,6.816027745547284,1.3409989912823965,-0.03151404822454085,2439312.0,-5.689851247061643,0.8768401728434734,-0.03802543600838182,2442846.0,,,,,2444.9570908945116,2441.4230908945115,
157,7,19,f,1,3,149.0,35,2,low,2 + 9 + 1 + 1 - 5,8,6,7,8,2454.593639800034,2456.6173912000377,2458.1328066000133,2463.1512740000035,2463.7834093000274,2463.7834146000096,2465.2999083999894,2466.316217500018,e,8.0,0.6321353000239469,1,+1,742,-12.013305592846308,0.081921388444119,0.09538780991754803,2452483.0,4.582376831412836,1.4352754968532873,0.17640197313303663,2456017.0,,,,,2458.1280908945114,2454.5940908945117,
158,7,19,f,1,3,150.0,36,4,high,6 + 7 + 9 - 3 + 5,24,22,23,24,2467.8329949000035,2469.8574227000354,2471.372635799984,2476.391092100006,2477.73554590001,2477.7355513999937,2479.251866400009,2480.269139299984,e,24.0,1.3444538000039756,1,+10,752,-16.8291121426572,2.0311429934109935,0.024967871581369927,2465723.0,-0.5407497026686778,0.38361480589445307,0.0024043947772987018,2469256.0,,,,,2471.3670908945114,2467.8340908945115,
159,7,19,f,1,3,151.0,37,1,low,9 + 8 + 1 + 1 - 1,18,17,18,20,2481.786686800013,2483.814834700024,2485.330146500026,2490.348503299989,2490.9914681999944,2490.9914736000355,2492.5079504000023,2493.5249250000343,w,18.0,0.6429649000056088,1,+1,753,17.737778796815967,0.23506000061319732,-0.1903076343817358,2479680.0,14.655226189330804,0.4246439301945175,-0.02020062666972322,2483214.0,,,,,2485.3250908945115,2481.7910908945114,
160,7,19,f,1,4,152.0,0,2,high,2 + 1 + 9 - 4 + 1,9,8,11,9,2627.620848999999,2629.6474762000144,2631.162714600039,2636.182578300009,2636.703500600008,2636.70350589999,2638.2200262999977,2639.2369160000235,e,9.0,0.5209222999983467,1,+10,763,0.8248749714577857,-1.228721222096273,0.39862598241057023,2625512.0,14.854546735711052,1.0375916464768253,-0.3907354969764234,2629047.0,,,,,2631.1580908945116,2627.6230908945117,
161,7,19,f,1,4,153.0,1,2,high,5 + 9 - 8 + 1 + 1,8,8,9,7,2640.7547331000096,2642.779533300025,2644.2953438000404,2649.313034399994,2649.9995545999845,2649.9995606000302,2651.5168661000207,2652.534045999986,q,8.0,0.6865201999899,1,+10,773,-1.4815608093701478,0.21687009222781573,0.187479974683344,2638644.0,9.663309487919397,1.0211858161438707,-0.0014793764374274598,2642178.0,,,,,2644.2890908945114,2640.7550908945113,
162,7,19,f,1,4,154.0,2,1,high,9 + 8 + 1 + 1 - 1,18,18,17,19,2654.050495900039,2656.077496699989,2657.592714600032,2662.6107757000136,2663.151675400033,2663.1516807000157,2664.667947500013,2665.6857795999967,q,18.0,0.5408997000195086,1,+10,783,-6.419126994043777,-0.3132792267787856,-0.03720579737827223,2651942.0,12.805684304565451,0.12941081965798462,0.027194584275019418,2655475.0,,,,,2657.5860908945115,2654.0530908945116,
163,7,19,f,1,4,155.0,3,3,low,9 + 3 - 4 + 6 + 7,21,22,21,23,2667.202336199989,2669.2270845000166,2670.742252700031,2675.760860399984,2676.303547399992,2676.303552700032,2677.819903900032,2678.837678199983,w,21.0,0.5426870000083,1,+1,784,-10.231061471494195,1.3430505433686482,0.05740304753179637,2665092.0,6.740874063528964,1.2130688702112105,0.03953030847605166,2668625.0,,,,,2670.7360908945116,2667.2030908945117,
164,7,19,f,1,4,156.0,4,2,high,6 + 1 + 8 + 7 - 1,21,21,23,19,2680.354116200004,2682.381943800021,2683.8971303,2688.915885000024,2689.4395493000047,2689.439554899989,2690.956489300006,2691.9737754000234,q,21.0,0.5236642999807373,1,+10,794,-21.616703653934355,0.5910350548391543,-0.01518140451116845,2678246.0,-29.633083731971496,0.7941785323312489,0.03860184049230608,2681780.0,,,,,2683.8910908945118,2680.3570908945117,
165,7,19,f,1,4,157.0,5,2,high,6 + 1 + 1 + 8 - 9,7,5,7,9,2693.4906570999883,2695.5150399000267,2697.0307089000125,2702.0484261999954,2702.6395388999954,2702.639544899983,2704.1559908000054,2705.173774100025,w,7.0,0.5911126999999397,1,+10,804,-20.225397252096318,0.5238594186977954,-0.11806646936754084,2691379.0,13.688679499367652,0.4256643570752954,0.0594664307298256,2694913.0,,,,,2697.0240908945116,2693.4900908945115,
166,7,19,f,1,4,158.0,6,3,low,6 + 8 + 7 + 1 - 9,13,14,15,13,2706.6905947999912,2708.716975599993,2710.232289300009,2715.250818200002,2715.9115718000103,2715.911577599996,2717.4286073000403,2718.4455979000195,e,13.0,0.6607536000083201,1,+1,805,-14.661414735148838,0.7434532382516554,-0.10253987593672464,2704581.0,33.459842045486134,1.0413838909960815,-0.03708220264094941,2708115.0,,,,,2710.2260908945113,2706.6920908945117,
167,7,19,f,1,4,159.0,7,2,high,5 + 7 - 8 + 1 + 1,6,6,7,8,2719.963161199994,2721.9921538000344,2723.5074127999837,2728.526251100004,2729.42361160001,2729.423617799999,2730.9403161000228,2731.958029500034,q,6.0,0.8973605000064708,1,+10,815,-15.160011583517704,0.6367862157288222,1.424456492347778,2717856.0,5.402497616716211,0.33106399747980797,0.06079641953014869,2721390.0,,,,,2723.5010908945114,2719.967090894512,
168,7,19,f,1,4,160.0,8,1,low,3 + 1 + 1 + 8 - 1,12,13,12,14,2733.474646000017,2735.5011072999914,2737.0163259999827,2742.034749399987,2742.551569800009,2742.551575599995,2744.068045300024,2745.0843333000084,w,12.0,0.5168204000219703,1,+1,816,-44.62169853435848,0.2170941067747929,-0.10543749769409172,2731365.0,-1.3041352487587758,0.42920288626470526,0.013923704555154126,2734899.0,,,,,2737.0100908945114,2733.4760908945113,
169,7,19,f,1,4,161.0,9,1,low,5 + 1 + 1 + 9 + 1,17,17,16,19,2746.6011109999963,2748.625224700023,2750.1404656000086,2755.1581809000345,2755.7195552000194,2755.719560800004,2757.2356103000348,2758.252007000032,q,17.0,0.561374299984891,1,+1,817,-17.738755055234083,0.3641208690053199,0.11099767550487849,2744489.0,20.97881595341305,0.37934720032418934,-0.012419360152810643,2748022.0,,,,,2750.1330908945115,2746.6000908945116,
170,7,19,f,1,4,162.0,10,3,low,7 + 5 + 9 + 1 - 6,16,15,16,14,2759.7689522000146,2761.797185500036,2763.3123529999866,2768.3317996000405,2768.7836427,2768.783648099983,2770.299982400029,2771.316540900036,w,16.0,0.4518430999596603,1,+1,818,13.748383559953153,0.4277605277026564,-0.12963128658186185,2757661.0,-3.9987805706039476,1.0338593129789686,0.03259594873515925,2761196.0,,,,,2763.3070908945115,2759.7720908945116,
171,7,19,f,1,4,163.0,11,4,low,4 + 7 + 8 - 3 + 9,25,26,24,25,2772.832696800004,2774.85853170004,2776.373819700035,2781.3939501999994,2783.7996451000217,2783.799651600013,2785.3165665999986,2786.33389910002,q,26.0,2.405694900022354,0,+0,818,-48.248335303779406,1.1739340301072732,0.046117180804514435,2770722.0,-15.849607680181737,0.9475388150615256,0.11323632558483165,2774258.0,,,,,2776.3690908945114,2772.8330908945118,
172,7,19,f,1,4,164.0,12,2,high,5 - 1 + 1 + 8 + 9,22,23,21,22,2787.8504798000213,2789.875936800032,2791.390946700005,2796.4094172000187,2797.079561899998,2797.07956730004,2798.596157199994,2799.61339850002,e,22.0,0.6701446999795735,1,+10,828,21.53211142979518,1.1336780070841757,-0.13600658537611032,2785739.0,11.221729222888026,0.27901201673573617,0.06408891904841374,2789273.0,,,,,2791.3840908945117,2787.8500908945116,
173,7,19,f,1,4,165.0,13,4,high,5 + 8 - 4 - 6 + 9,12,13,12,14,2801.1305105999927,2803.158233300026,2804.6734311000328,2809.69184720004,2810.375689800014,2810.3756951999967,2811.891738000035,2812.9089266000083,w,12.0,0.6838425999740139,1,+10,838,-13.898438928386389,0.8507170203524828,-0.1081993458453483,2799021.0,-10.264584026654362,0.8109657754480915,0.07247187078865136,2802556.0,,,,,2804.6670908945116,2801.1320908945117,
174,7,19,f,1,4,166.0,14,2,high,9 + 5 - 6 + 1 - 1,8,8,9,7,2814.4255817999947,2816.452847000037,2817.9682938000187,2822.986668500001,2824.32762440003,2824.327629800013,2825.8450419,2826.862546299992,q,8.0,1.340955900028348,1,+10,848,-16.690145096579162,0.5607815760396893,-0.01844664621155201,2812317.0,-25.233525990023498,0.7865471069561627,0.03334842033211349,2815850.0,,,,,2817.9610908945115,2814.4280908945116,
175,7,19,f,1,4,167.0,15,2,low,3 + 8 + 1 - 5 + 1,8,8,6,9,2828.379401699989,2830.407493400038,2831.9226643000147,2836.94106490002,2837.471652899985,2837.47165880003,2838.988354200032,2840.0052376000094,q,8.0,0.5305879999650642,1,+1,849,-22.633827340572356,0.26974860507689336,-0.0009234096105514844,2826271.0,-7.280463941455768,1.0385091825899595,0.10587367839615247,2829805.0,,,,,2831.9160908945114,2828.3820908945117,
176,7,19,f,1,4,168.0,16,3,high,9 - 5 - 1 - 6 + 8,5,5,7,4,2841.522093300009,2843.5486461999826,2845.0638310000068,2850.081991999992,2852.0155778999906,2852.015583300032,2853.5323949999874,2854.54977350001,w,7.0,1.9335858999984337,0,+0,849,-9.998561592046585,0.784428686422511,0.06571315410276468,2839412.0,2.17517177654317,0.5016062262576955,-0.035897336571096394,2842946.0,,,,,2845.0570908945115,2841.5230908945114,
177,7,19,f,1,4,169.0,17,2,high,5 + 8 + 1 - 1 + 9,22,21,23,22,2856.066585100023,2858.093284200004,2859.6090188000235,2864.6278968999977,2865.5036450999905,2865.5036506000324,2867.0200385000207,2868.037702600006,e,22.0,0.8757481999928132,1,+10,859,-1.0264541454611873,0.17240761873851973,-0.0644339239709597,2853957.0,-81.52917042053058,0.9892546127283199,0.12505443923896964,2857490.0,,,,,2859.6010908945113,2856.0680908945114,
178,7,19,f,1,4,170.0,18,4,low,8 + 7 - 4 + 5 + 9,25,25,24,26,2869.554258599994,2871.5790218000184,2873.0942746000364,2878.112844599993,2878.927653599996,2878.927658800036,2880.44436600001,2881.461310099985,q,25.0,0.8148090000031516,1,+1,860,0.9892344196056264,0.49682944248199856,0.06230566711238894,2867443.0,2.2220159147783427,1.067426886027528,0.0400633013012508,2870976.0,,,,,2873.0870908945117,2869.554090894512,
179,7,19,f,1,4,171.0,19,4,high,3 + 8 - 4 + 9 + 6,22,21,23,22,2882.979206299992,2885.006760400021,2886.521220399998,2891.539128800039,2892.2876923999866,2892.2876982000307,2893.8042668999988,2894.8214616000187,e,22.0,0.7485635999473743,1,+10,870,20.924156367738764,0.11118980822621527,-0.16102436820491595,2880869.0,-0.8667807019715212,1.1518253287911886,-0.06648084344645566,2884403.0,,,,,2886.5140908945114,2882.9800908945117,
180,7,19,f,1,4,172.0,20,3,high,3 + 8 - 7 + 1 + 9,14,13,12,14,2896.338853100024,2898.363897400035,2899.87917140004,2904.897763099987,2905.6236727000214,2905.6236781000043,2907.140092400019,2908.157242599991,e,14.0,0.7259096000343561,1,+10,880,24.873486882542096,0.4030851239934927,0.6896931299584201,2894227.0,-24.145900535699056,1.039546387181315,0.1601767326809549,2897761.0,,,,,2899.8720908945115,2896.3380908945114,
181,7,19,f,1,4,173.0,21,2,low,8 + 1 + 4 - 7 + 1,7,7,6,5,2909.6739162000013,2911.70100619999,2913.216314200021,2918.2350658000214,2919.0156111000106,2919.015616799996,2920.5326421000063,2921.5495361000067,q,7.0,0.7805452999891713,1,+1,881,-36.80476728964265,0.691519277861504,-0.0039008084120022435,2907564.0,13.045545982312191,0.42338163535879847,-0.09826604333433808,2911098.0,,,,,2913.2090908945115,2909.6750908945114,
182,7,19,f,1,4,174.0,22,1,low,7 + 1 + 6 + 1 + 1,16,17,16,18,2923.066177400004,2925.0937208000105,2926.6089106000145,2931.6268766000285,2932.071800600039,2932.0718061000225,2933.5884794000303,2934.6051193000167,w,16.0,0.44492400001036,1,+1,882,55.080249876231775,0.7269320737196869,0.11028792451535763,2920957.0,23.38269031756374,0.5805055740575291,0.11153447833512509,2924490.0,,,,,2926.6010908945113,2923.0680908945114,
183,7,19,f,1,4,175.0,23,2,high,4 + 7 + 1 + 1 - 8,5,7,4,5,2936.121838800027,2938.147158799984,2939.6622072000173,2944.680694399984,2945.639679100015,2945.639684900001,2947.156222600024,2948.173535000009,e,5.0,0.9589847000315784,1,+10,892,-4.284029278201444,0.9323939559997854,0.009608164511496486,2934010.0,15.030760167686267,0.11493812803813697,-0.08761891576393688,2937544.0,,,,,2939.6550908945114,2936.121090894512,
184,7,19,f,1,4,176.0,24,3,low,2 + 9 + 1 - 5 + 7,14,12,14,15,2949.690261300013,2951.716516299988,2953.2317589999875,2958.25038089999,2958.815783600032,2958.81578960002,2960.332388000039,2961.3492189000244,w,14.0,0.5654027000418864,1,+1,893,4.328426413763891,0.7593231170725439,-0.15562492269739647,2947580.0,17.722923336748085,0.30194655855997876,0.07072379701151066,2951113.0,,,,,2953.2240908945114,2949.6910908945115,
185,7,19,f,1,4,177.0,25,4,high,4 + 7 - 8 + 9 - 4,8,8,9,7,2962.8659302000306,2964.8913123999955,2966.406565400015,2971.425532000023,2972.1117039000383,2972.1117092000204,2973.628250400012,2974.6457958000246,q,8.0,0.6861719000153244,1,+10,903,13.999820362638545,0.542616930004697,-0.10046928101996966,2960754.0,16.40330810855491,1.142721372029083,0.10026117206996377,2964288.0,,,,,2966.3990908945116,2962.8650908945115,
186,7,19,f,1,4,178.0,26,3,low,8 + 6 - 7 + 1 - 4,4,4,3,5,2976.163039200008,2978.18840079999,2979.703521599993,2984.7217411000165,2987.3997795000323,2987.399788599985,2988.916190800024,2989.933100300026,q,4.0,2.6780384000157937,1,+1,904,-35.592502839296145,0.7871271111206504,-0.43532999912026726,2974051.0,-9.35555225627435,0.6787446233171419,-0.012226807103055792,2977585.0,,,,,2979.6960908945116,2976.1620908945115,
187,7,19,f,1,4,179.0,27,2,high,4 + 9 + 1 - 7 - 1,6,8,6,5,2991.4497867000173,2993.4782094000257,2994.9936181000085,3000.011863699998,3000.671762100013,3000.671767599997,3002.1883022999973,3003.2056232999894,w,6.0,0.6598984000156634,1,+10,914,-8.609728104158252,0.940644473952446,-0.20604594516273833,2989340.0,-22.361357643165967,1.6380536188223402,0.06543203211970727,2992875.0,,,,,2994.9860908945116,2991.4510908945117,
188,7,19,f,1,4,180.0,28,1,high,5 + 1 + 1 + 6 + 1,14,13,16,14,3004.7222211000044,3006.7488194000325,3008.264210399997,3013.2824873999925,3013.9517367000226,3013.951742300007,3015.468705700012,3016.485842299997,e,14.0,0.6692493000300601,1,+10,924,-7.950570117517602,0.9771598633375351,-0.09929571045294527,3002612.0,-4.81088439206402,2.2415298718202568,-0.11745194579199403,3006145.0,,,,,3008.2560908945115,3004.7230908945116,
189,7,19,f,1,4,181.0,29,3,low,8 + 5 + 1 - 7 + 9,16,14,17,16,3018.002290000033,3020.026747099997,3021.5420781000284,3026.5609458999825,3027.751753300021,3027.751758700004,3029.2682523000403,3030.2845321000204,e,16.0,1.190807400038466,1,+1,925,29.36618005528603,0.692845047092649,0.2054057801321285,3015889.0,1.7346033769558797,0.6459020448043198,0.008557027434356712,3019424.0,,,,,3021.5350908945115,3018.0000908945117,
190,7,19,f,1,4,182.0,30,2,low,8 + 1 + 7 + 1 - 4,13,14,13,12,3031.8014312000014,3033.82802429999,3035.3431127000367,3040.361801800027,3041.0317953000194,3041.031801400008,3042.548350700002,3043.56544939999,w,13.0,0.6699934999924153,1,+1,926,9.877701616105464,0.2715686521749534,0.13345895397431917,3029691.0,3.8857706047640113,0.5288552424381425,-0.191156050315888,3033224.0,,,,,3035.3350908945117,3031.8020908945114,
191,7,19,f,1,4,183.0,31,3,high,7 - 5 + 9 + 1 - 4,8,9,7,8,3045.082726599998,3047.1100351000205,3048.6253796000383,3053.643764500041,3054.1517555000028,3054.151760699984,3055.6682206999976,3056.685531300027,e,8.0,0.5079909999622032,1,+10,936,-8.528978057561467,0.4354273001555544,-0.1169110289829165,3042973.0,3.6175097613166822,0.6259394250662851,0.0967091521667447,3046506.0,,,,,3048.6170908945114,3045.0840908945115,
192,7,19,f,1,4,184.0,32,3,low,3 + 8 + 1 + 5 - 9,8,9,7,8,3058.2026123999967,3060.2273842000286,3061.742567499983,3066.760550600011,3067.471757500025,3067.4717627000064,3068.988250099996,3070.0051634000265,e,8.0,0.7112069000140764,1,+1,937,19.578337567542295,1.5481935023379547,0.08650097667244916,3056090.0,-4.753520574828098,1.5637161950259069,-0.17832974815473324,3059623.0,,,,,3061.7340908945116,3058.2010908945117,
193,7,19,f,1,4,185.0,33,2,high,7 + 8 + 1 + 9 + 1,26,24,26,25,3071.5218574000173,3073.547657500021,3075.06293439999,3080.081757500011,3081.343760400021,3081.343765400001,3082.859767200018,3083.87699910003,w,26.0,1.2620029000099748,1,+10,947,-40.82517827526614,0.5767363605569535,0.06402062018857113,3069410.0,12.431315333911105,0.7303465263627409,0.10966550040589063,3072944.0,,,,,3075.0550908945115,3071.5210908945114,
194,7,19,f,1,4,186.0,34,3,high,8 + 4 + 1 - 7 + 9,15,15,13,16,3085.393829000008,3087.4213588000275,3088.9371622999897,3093.955825400015,3096.3278812000062,3096.327886599989,3097.844478700019,3098.861854500021,q,15.0,2.372055799991358,1,+10,957,-5.347147186482747,-0.5283222524886408,0.2560529395527342,3083284.0,2.309870513170626,-0.1233306025188261,0.06797638934398154,3086818.0,,,,,3088.929090894512,3085.3950908945117,
195,7,19,f,1,4,187.0,35,3,high,2 + 1 + 9 - 7 + 6,11,13,12,11,3100.378641200019,3102.4028536000405,3103.917155000032,3108.9356144000194,3109.631713700015,3109.631719600002,3111.1483378999983,3112.1659553000354,e,11.0,0.6960992999956943,1,+10,967,-16.801195549700623,0.1382952664212853,0.1003770038442191,3098265.0,9.946879159500257,0.48221961031912297,0.08831346522279837,3101798.0,,,,,3103.9090908945113,3100.3760908945114,
196,7,19,f,1,4,188.0,36,2,low,5 + 1 + 7 - 6 + 1,8,8,6,7,3113.68257970002,3115.7099004000197,3117.2251270000124,3122.243829299987,3122.815795500006,3122.815800899989,3124.332989300019,3125.3495381000102,q,8.0,0.5719662000192329,1,+1,968,11.160317507251353,0.8427340754166854,0.18939135840161403,3111572.0,-19.481003699441974,0.5173541910613118,0.008257321175609622,3115106.0,,,,,3117.217090894512,3113.6830908945117,
197,7,19,f,1,4,189.0,37,1,high,5 + 6 + 1 + 1 + 1,14,16,15,14,3126.8662573000183,3128.8943900000304,3130.4096618000185,3135.427276600036,3136.007796399994,3136.007802100037,3137.5243040000205,3138.541709700017,e,14.0,0.5805197999579832,1,+10,978,-20.638297397737546,0.6639331953429792,-0.06315295856896119,3124756.0,26.70682858220475,1.1333004359663086,0.015512331645402666,3128290.0,,,,,3130.4010908945115,3126.8670908945114,
198,7,19,f,1,5,190.0,0,1,high,6 + 9 + 1 + 1 - 1,16,15,16,14,3197.660199899983,3199.6864562000264,3201.202101300005,3206.2215965000214,3206.847904300026,3206.8479104000144,3208.364537300018,3209.3816290000104,w,16.0,0.6263078000047244,1,+10,988,-47.22750550145892,-1.538734902830158,0.005021692188417415,3195548.0,12.979800678754497,0.07971002807267036,-0.09972064315769935,3199083.0,,,,,3201.1940908945116,3197.6590908945113,
199,7,19,f,1,5,191.0,1,2,low,4 + 9 - 7 + 1 - 1,6,5,8,6,3210.8983685999992,3212.925807300024,3214.441113000037,3219.460336100019,3222.143810000038,3222.14381530002,3223.6598081000266,3224.676766799996,e,6.0,2.683473900018725,1,+1,989,13.650289415399069,1.0574689184901742,0.02836137346306411,3208788.0,9.67652129941123,0.670273934311322,0.05469582827523922,3212322.0,,,,,3214.4330908945117,3210.8990908945116,
