,id,age,sex,cued,block,trial,trialinblock,efflev,rewlev,calc,corAns,option1,option2,option3,tstart,ITI1Time,probTime,respTime,selectTime,ITI2Time,fbTime,ITI3Time,key_press,chosenAns,RT,acc,feedback,total_points,cuescr,cuecor,cuezyg,cuetime,probscr,probcor,probzyg,probtime,fbscr,fbcor,fbzyg,fbtime,probtime_c,cuetime_c,fbtime_c
0,8,18,m,0,Practice,,0,1,0,4 + 1 + 9 + 1 + 1,16,15,16,14,91.17201920005029,,91.17202170006932,96.4400174000766,101.06443919998128,101.06444480002392,102.58073799998964,103.60092790005729,w,16,4.624421799904667,1,Correct,0,,,,,-13.573147338306327,-1.2838215876263304,-0.3670692146883372,44929.0,22.494318384134008,2.8993038348747096,0.6061563052040801,56091.0,91.42670262002392,,102.58870262002392
1,8,18,m,0,Practice,,1,1,0,3 + 1 + 1 + 8 - 1,12,12,11,10,105.11762360006104,,105.11762689996976,110.13940049998928,111.06455420004204,111.06455989996904,112.58103920007125,113.59910820005462,q,12,0.9251537000527604,1,Correct,0,,,,,12.496533310375243,-0.22567138257208796,0.3546179913477894,58629.0,19.937205531010445,-4.356909606364042,6.472165882084411,66089.0,105.12670262002392,,112.58670262002391
2,8,18,m,0,Practice,,2,2,0,8 + 1 + 6 + 1 - 4,12,10,12,11,115.11699040001258,,115.11700620001648,120.13662200002,120.98467060003895,120.9846771999728,122.5020625999896,123.52005040005317,w,12,0.8480486000189558,1,Correct,0,,,,,11.502505324749812,-1.2367183205818169,0.0373425200779296,68626.0,-9.122402226708163,3.394819298722515,1.577487588142679,76009.0,115.12370262002392,,122.50670262002393
3,8,18,m,0,Practice,,3,2,0,9 + 4 - 6 + 1 - 1,7,6,5,7,125.03687359998004,,125.03687690000515,130.05597039998975,132.50443540001288,132.5044418000616,134.02073480002582,135.0381094000768,e,7,2.448465000023134,1,Correct,0,,,,,-1.1867969215841772,-11.22745270181718,0.9983894888337201,78545.0,-8.37747241955596,-3.018648405406333,-0.19459602155831268,87527.0,125.04270262002393,,134.02470262002393
4,8,18,m,0,Practice,,4,3,0,9 + 3 - 5 + 6 + 7,20,22,21,20,136.55451719998382,,136.55452070001047,141.57350240007509,144.68052639998496,144.6805325000314,146.19719660002738,147.2161334999837,w,21,3.1070239999098703,0,Incorrect,0,,,,,-33.0353782916803,-0.7660151908782735,-0.2766084172525123,90063.0,-13.67726835414664,1.459818634134317,2.35826967735387,99705.0,136.56070262002393,,146.20270262002393
5,8,18,m,0,Practice,,5,3,0,2 + 1 + 9 - 7 + 6,11,10,11,9,148.73316329997033,,148.73316669999622,153.7533439999679,154.68851280002855,154.6885186000727,156.20517910004128,157.22379970003385,w,11,0.9351688000606372,1,Correct,0,,,,,9.362328269373647,0.19368712742969407,7.832480051741961,102243.0,-5.888000745357024,-0.6409745388421388,0.270638720071422,109713.0,148.7407026200239,,156.2107026200239
6,8,18,m,0,Practice,,6,4,0,4 + 8 + 5 - 3 + 7,21,21,23,22,158.7409445999656,,158.74094809999224,163.76115899998695,164.6017598999897,164.60176600003615,166.11846749996766,167.1364440000616,q,21,0.8406009000027552,1,Correct,0,,,,,14.457034587343113,1.389672436125636,-0.17350621526317345,112250.0,25.185620014990135,0.7505215460429753,0.8422028785075213,119626.0,158.74770262002392,,166.12370262002392
7,8,18,m,0,Practice,,7,4,0,5 + 8 - 4 + 6 + 9,24,24,23,22,168.65367460006382,,168.65367819997482,173.67275909997988,176.16867260006256,176.1686783999903,177.68520289997105,178.70316570007708,q,24,2.495913500082679,1,Correct,0,,,,,-14.285469841553283,-1.3361886624402537,-0.15394615338155204,122162.0,4.962533648637773,-0.1400935835727548,-0.011012450269957785,131192.0,168.65970262002392,,177.68970262002392
8,8,18,m,1,0,0.0,0,2,high,5 + 7 - 8 + 1 + 1,6,7,8,6,347.7743988999864,349.81445770000573,351.3298705000197,356.40156869997736,358.14243210002314,358.14243730006274,359.65861539996695,360.675942300004,w,8,1.7408634000457823,0,+0,0,44.80787122536471,0.5578732485083711,0.38904122865397106,301303.0,-42.811639445697445,1.1266347575589029,-0.18524093628882277,304890.0,-20.158331329852466,-1.2377355163966506,-0.13898423714865604,354100.0,351.3877026200239,347.8007026200239,400.59770262002394
9,8,18,m,1,0,1.0,1,4,high,6 + 5 - 7 + 8 - 9,3,5,4,3,362.1927240000805,364.2791268000146,365.79400690004695,370.8129130000016,371.8383092000149,371.838314200053,373.35489279998,374.3716678000055,e,3,1.025396200013347,1,+10,10,14.153220126311222,-0.08452855356603539,0.3371025426596521,315767.0,20.944059712243234,-1.8437950425168932,0.0312890336543683,319301.0,14.578451931432078,-1.9688714995555756,0.12434893886995013,326860.0,365.7987026200239,362.2647026200239,373.35770262002393
10,8,18,m,1,0,2.0,2,1,high,2 + 1 + 9 + 1 - 1,12,12,13,11,375.8892271000659,377.92336800007615,379.4382700000424,384.456399000017,385.3583154000808,385.3583202000009,386.8743156000273,387.8912952999817,w,13,0.9019164000637828,0,+0,10,5.068253318888569,-1.3140298750616903,-0.1722234677424206,329412.0,-0.8989802413907428,-0.6994333731382252,-0.2771541088556573,332945.0,-3.9016134117108727,1.8423320671185879,0.03808182236344848,367764.0,379.4427026200239,375.9097026200239,414.2617026200239
11,8,18,m,1,0,3.0,3,2,low,7 + 5 + 1 + 9 + 1,23,21,23,22,389.4078155000461,391.4434586999705,392.9586311000167,397.9777753000381,399.0783855000045,399.0783904000418,400.59502670005895,401.6119427999947,w,23,1.100610199966468,1,+1,11,5.145150105226154,-0.7009862885970417,-0.3041074314547796,342931.0,49.63422536783633,0.6431824070935459,-0.1502721206583706,346466.0,20.864239740754655,-0.11956932786872443,0.3104768418486188,407771.0,392.9637026200239,389.4287026200239,454.26870262002393
12,8,18,m,1,0,4.0,4,1,high,6 + 1 + 1 + 9 - 1,16,14,16,15,403.12875610007904,405.1542201000266,406.6702042999677,411.68819770007394,412.74237880005967,412.7423839999829,414.258860800066,415.2758800999727,w,16,1.0541810999857262,1,+10,21,3.6587534522777134,-0.5979561633857937,-0.0236036282539116,356642.0,13.425166487119274,0.5824004349696423,0.3691849934282825,360177.0,1.2531514215760113,-0.24822038010117886,0.007906271884187355,394556.0,406.67470262002394,403.1397026200239,441.0537026200239
13,8,18,m,1,0,5.0,5,4,low,6 + 7 + 9 - 3 + 5,24,24,22,23,416.7928261000197,418.8338219000725,420.3489238000475,425.3681872000452,426.3984198999824,426.398425100022,427.9148397999816,428.93173309997655,q,24,1.0302326999371871,1,+1,22,11.160885275476694,-0.1488734399512861,0.07165404344717441,370322.0,-3.6194068800039227,-0.1520230067763233,0.08346789109512187,373856.0,3.9111185042551657,-0.3268589673410194,-0.1412974014252999,381420.0,420.3537026200239,416.8197026200239,427.91770262002393
14,8,18,m,1,0,6.0,6,1,high,4 + 9 + 1 - 1 - 1,12,11,12,13,430.44845979998354,432.4753756000428,433.99067510000896,439.0087047000416,439.5343367999885,439.5343420000281,441.0512771999929,442.0685251000105,w,12,0.5256320999469608,1,+10,32,-16.563885912986926,-0.7532689827990477,0.10585312412288417,383963.0,13.732271469361821,-0.597140387682785,-0.08856448276255424,387497.0,8.87032017401648,-0.8898275673590046,-0.17233725884761864,420947.0,433.99470262002393,430.46070262002394,467.4447026200239
15,8,18,m,1,0,7.0,7,2,low,3 + 1 + 8 - 5 - 1,6,5,7,6,443.584833699977,445.6109282000689,447.1261484000133,452.1443696999922,452.7504305000184,452.750435700058,454.2666596000781,455.2837806000607,e,6,0.6060608000261709,1,+1,33,-2.3656547430414205,-0.9789002244825724,-0.2594606598582372,397099.0,-8.597101277852742,-0.025188427671788638,0.09893481581309338,400632.0,-1.716808566424512,0.9174103116226924,15.058908996823327,557939.0,447.1297026200239,443.5967026200239,604.4367026200239
16,8,18,m,1,0,8.0,8,1,low,3 + 1 + 9 + 1 + 1,15,14,15,17,456.8006631999742,458.8279544999823,460.3430603999877,465.36094480007887,465.9264895999804,465.92649500002153,467.442578200018,468.4592470000498,w,15,0.565544799901545,1,+1,34,1.5071730699467967,-0.6674734744489523,-0.7661475788988312,410316.0,4.909829727899153,0.4665282534632942,-0.02589751806856455,413849.0,24.336189216068956,0.6407399866533918,0.1815739132604106,434492.0,460.3467026200239,456.8137026200239,480.98970262002393
17,8,18,m,1,0,9.0,9,1,low,6 + 9 + 1 + 1 - 1,16,16,14,15,469.9759849000257,471.9998534000479,473.51508929999545,478.5328388999915,479.4704330000095,479.47043810004834,480.9872456999729,482.0040402000304,q,16,0.937594100018032,1,+1,35,-4.360238613018091,0.8563479632429605,-0.09833524495415968,423488.0,12.64965542392651,-0.17612409152966357,-0.1953145802403533,427021.0,-11.760629975297695,-1.1920797309441218,-0.011506837840769002,447899.0,473.51870262002393,469.9857026200239,494.3967026200239
18,8,18,m,1,0,10.0,10,1,low,3 + 1 + 1 + 9 - 1,13,13,14,12,483.5205069000367,485.545009399997,487.0605191000504,492.078812199994,492.8783824000275,492.8783876000671,494.3948489000322,495.4125342000043,q,13,0.7995702000334859,1,+1,36,27.18716190170895,-1.1327830755490815,-1.3275863718217202,437033.0,3.1084224400307043,-1.6163013936281168,-0.2558753364737951,440567.0,-54.700575693622575,-0.5628714662818943,0.16878415416128423,489596.0,487.0647026200239,483.53070262002393,536.0937026200239
19,8,18,m,1,0,11.0,11,3,high,3 + 1 + 6 - 8 + 9,11,11,13,12,496.9296936000465,498.9687626999803,500.48393119999673,505.50222829997074,506.07839350006543,506.0783984999871,507.5948490999872,508.6116322000744,q,11,0.5761652000946924,1,+10,46,5.865862000230251,0.4133589317988573,0.23831067447395426,450456.0,-42.867015710655295,-0.3475516771962681,0.1876218708893891,453990.0,3.669280134317532,-0.8967556719359147,1.5691512535156846,461100.0,500.4877026200239,496.95370262002393,507.59770262002394
20,8,18,m,1,0,12.0,12,3,high,7 - 5 + 9 + 1 - 4,8,9,8,7,510.1285374000436,512.1526412999956,513.6679227000568,518.6864436999895,521.4225192000158,521.4225245000562,522.9392089999747,523.9565474999836,w,8,2.7360755000263453,1,+10,56,9.577641735017098,3.0729060157092354,0.03957811483181839,463640.0,0.9067728700914213,-0.36714989350686533,0.032932126322943844,467174.0,-22.173908018379137,-0.6740190381948699,-0.18446827930321597,476444.0,513.6717026200239,510.1377026200239,522.941702620024
21,8,18,m,1,0,13.0,13,1,high,9 + 8 + 1 + 1 - 1,18,18,20,17,525.4733322999673,527.4955942999804,529.0109603999881,534.0290319999913,534.5744225999806,534.5744273000164,536.0908439999912,537.108031700016,q,18,0.5453905999893323,1,+10,66,-20.294247343113405,-2.0074398961478703,-0.037451453366701415,478983.0,28.074487388841167,-0.6868192972128293,0.23336987020306843,482517.0,1.3383790307518577,2.655338961428514,0.25338706434054625,502764.0,529.014702620024,525.480702620024,549.2617026200239
22,8,18,m,1,0,14.0,14,1,low,2 + 1 + 9 + 1 + 1,14,13,12,14,538.6245562999975,540.6523804999888,542.1674401999917,547.185648099985,547.7424240000546,547.7424287999747,549.259731200058,550.276597200078,e,14,0.5567759000696242,1,+1,67,13.10855874930223,0.5597169796025874,-0.3381695253038144,492140.0,2.941297573416737,-0.03127605945459422,0.35090532375180583,495673.0,17.053067453877496,-0.8346332774712941,1.4053249002263293,531380.0,542.1707026200239,538.6377026200239,577.8777026200239
23,8,18,m,1,0,15.0,15,4,high,8 + 4 + 7 - 5 - 6,8,6,9,8,551.7935721999966,553.8204446000746,555.3352754000807,560.3539594999747,563.1343818000751,563.1343868999975,564.6519588000374,565.6691710000159,w,9,2.7804223001003265,0,+0,67,-16.880752292803116,0.9404892239682976,0.07984560401518159,505308.0,55.69272051477222,0.6193156214089877,0.07863894809373217,508841.0,-3.3650148629357544,1.1182571925105318,1.2730994704199219,626970.0,555.3387026200239,551.8057026200239,673.4677026200239
24,8,18,m,1,0,16.0,16,1,low,5 + 1 + 1 + 9 + 1,17,17,19,16,567.1859186000656,569.2137922999682,570.728704100009,575.7463983000489,576.3584264999954,576.3584320000373,577.8757857000455,578.8925177999772,q,17,0.6120281999465078,1,+1,68,7.961339409134553,1.9570564059068802,0.3689263708593673,520700.0,-21.12132274543048,-0.20831017601595558,1.690129778464497,524234.0,31.64185118324448,0.17666994184013873,1.267099238863608,544587.0,570.731702620024,567.197702620024,591.0847026200239
25,8,18,m,1,0,17.0,17,1,high,3 + 1 + 8 + 1 + 1,14,13,14,16,580.409322499996,582.437396000023,583.9526889000554,588.970891600009,589.5664733999874,589.5664785000263,591.082873800071,592.0999802000588,w,14,0.5955817999783903,1,+10,78,5.041815952233296,0.7792016531618486,0.7745621435317958,533925.0,8.919194052001629,-0.6040376744441627,-8.499233062096728,537458.0,54.988584188988455,-1.6417625274570593,-0.5674795766082212,597635.0,583.9557026200239,580.4227026200239,644.1327026200239
26,8,18,m,1,0,18.0,18,2,high,8 + 1 + 4 - 7 + 1,7,5,7,6,593.616458500037,595.6425093000289,597.1577715000603,602.1762346000178,602.9184600000735,602.9184647999937,604.4346445000265,605.4517311999807,w,7,0.7422254000557587,1,+10,88,12.57947429398187,0.2258117202404426,0.19951161972420905,547130.0,-8.085976866605778,-0.8973005893155275,0.3627445123802566,550664.0,11.04631665199888,0.4885350326514981,-0.08154206032421385,571171.0,597.1617026200239,593.6277026200239,617.668702620024
27,8,18,m,1,0,19.0,19,2,low,8 + 1 + 7 + 1 - 4,13,13,14,12,606.9684509000508,608.9954276999924,610.51060769998,615.5286570000462,616.150381000014,616.1503861000529,617.6669918000698,618.6838404000737,q,13,0.6217239999677986,1,+1,89,24.03052452142702,0.10796929054274962,-0.2835004090846738,560483.0,-45.3461277844658,-0.036176921294854836,-1.1038953096643027,564016.0,2.4838780886901954,0.14209090294051663,0.05337002483582154,584474.0,610.5137026200239,606.9807026200239,630.971702620024
28,8,18,m,1,0,20.0,20,2,low,6 + 1 + 7 - 8 - 1,5,5,7,4,620.2008341000183,622.2253624000587,623.7404396000784,628.7589692000765,629.4545461999951,629.4545512000332,630.970587000018,631.9881312000798,q,5,0.6955769999185577,1,+1,90,-21.916614838934933,-1.960946635815457,0.3132187041418213,573713.0,43.73356171805945,0.20414439334790835,-0.13517441344465908,577246.0,-28.883083527328946,-0.10823719682777799,0.30886626658377025,666571.0,623.7437026200239,620.2107026200239,713.0687026200239
29,8,18,m,1,0,21.0,21,1,low,6 + 1 + 8 + 1 - 1,15,15,13,14,633.5049531999975,635.530010699993,637.0457344000461,642.0638059000485,642.6144876000471,642.614492499968,644.13089270005,645.1477111000568,q,15,0.5506816999986768,1,+1,91,8.448934962710082,2.0445562347635056,1.1460903044786583,587017.0,3.0675030714519327,-0.06426430972703034,0.7369900828644873,590551.0,0.3069314715116356,-1.342805015982254,2.6882778203206428,640099.0,637.048702620024,633.514702620024,686.596702620024
30,8,18,m,1,0,22.0,22,4,low,3 + 8 - 4 + 9 + 7,23,24,22,23,646.6651140999747,648.6910574000794,650.2062172000296,655.2255768000614,658.6865059999982,658.6865113000385,660.2030639000004,661.2202455999795,q,24,3.4609291999368,0,+0,91,-2.9902833342485433,-0.4077062184489373,-0.7637879231557676,600178.0,7.546463822027751,-0.19348381106122048,-0.5241288701839224,603712.0,45.47593785502328,-2.2265422111441397,-0.35768169138319195,653339.0,650.2097026200239,646.6757026200239,699.836702620024
31,8,18,m,1,0,23.0,23,4,low,5 + 6 - 4 + 7 + 9,23,24,25,23,662.7371638000477,664.7608967999695,666.2757681000512,671.2943579000421,671.9504412000533,671.950446199975,673.466681699967,674.4834801000543,e,23,0.6560833000112325,1,+1,92,-9.670707020372477,2.261259116759864,0.36132837556633746,616248.0,-3.24583494858728,-1.1122182550614008,8.872960394424162,619781.0,-5.466517001314634,1.0457032387321394,1.1855453163344833,680363.0,666.2787026200239,662.745702620024,726.860702620024
32,8,18,m,1,0,24.0,24,1,high,7 + 1 + 4 + 1 - 1,12,12,11,13,675.9999273000285,678.0267440000316,679.5416925000027,684.5600686999969,685.07848320005,685.0784879999701,686.5950431000674,687.6122696000384,q,12,0.5184145000530407,1,+10,102,-5.830367677631461,-0.9262680877676193,-0.3282717582996284,629514.0,-2.8634639916205913,-0.6459503209769206,-0.33492729650370023,633047.0,-5.045348177682079,-3.3679399834883323,1.7951997700319495,693723.0,679.5447026200239,676.0117026200239,740.2207026200239
33,8,18,m,1,0,25.0,25,4,low,8 + 4 + 7 - 5 - 6,8,6,8,9,689.1289665000513,691.1552013000473,692.6704475000734,697.6892502000555,698.3186048000352,698.3186097000726,699.835050499998,700.851892100065,w,8,0.6293545999797061,1,+1,103,-5.54129506616934,-0.5501620054769853,-0.11796708716294546,642642.0,-15.242663610898536,0.3275843529581426,-0.29200015725874096,646176.0,-24.031496039083354,0.08887257607436716,-0.4404833561790724,708675.0,692.673702620024,689.139702620024,755.1727026200239
34,8,18,m,1,0,26.0,26,2,low,5 + 9 - 8 + 1 + 1,8,7,9,8,702.3681754000718,704.3956329000648,705.9108289000578,710.9293679000111,711.5504815999884,711.5504865000257,713.0670767000411,714.0838451000163,e,8,0.6211136999772862,1,+1,104,20.342148569741,2.065914579071614,0.026356848466399185,655882.0,5.511010946344139,0.7932179285668441,-0.713317434433236,659416.0,30.326273991680782,-1.2257803412778472,0.23049336214810268,721883.0,705.913702620024,702.3797026200239,768.380702620024
35,8,18,m,1,0,27.0,27,4,high,5 + 9 - 4 + 7 + 6,23,25,24,23,715.6004895999795,717.6265089000808,719.1416680000257,724.1612993000308,725.3425925000338,725.3425981000764,726.8593320000218,727.8765521000605,e,23,1.1812932000029832,1,+10,114,13.377870634944088,0.012919875457095387,0.11062457003882997,669113.0,-16.285808885920787,-0.5654372411644086,-0.3485083057601841,672648.0,10.770322720035898,-2.08533823656958,1.0921312989135714,803538.0,719.1457026200239,715.610702620024,850.0357026200239
36,8,18,m,1,0,28.0,28,1,low,3 + 1 + 8 - 1 + 1,12,13,10,12,729.393380500027,731.420314899995,732.9355667000636,737.9536739999894,738.7026293000672,738.7026345999911,740.2190896000247,741.235843100003,e,12,0.748955300077796,1,+1,115,6.026666147730786,2.4537811217784693,-0.5990494388598151,682907.0,-3.89843137924408,-1.0797286706459026,-0.047319329690637346,686440.0,41.86030156102218,-1.3106845246580425,-0.32917598527472336,751002.0,732.937702620024,729.404702620024,797.4997026200239
37,8,18,m,1,0,29.0,29,4,high,7 + 6 + 8 - 4 + 5,22,23,21,22,742.7526238000719,744.778709199978,746.2936205000151,751.3140149000101,753.6544886999764,753.6544936000137,755.1710620999802,756.1883590000216,e,22,2.340473799966276,1,+10,125,-5.59558965869533,1.1904288799083211,0.5341897055607703,696266.0,-39.30877307646952,-0.4143060562857386,-1.1191343096851938,699801.0,37.75597318392936,0.3885088214083874,3.144453137500289,900778.0,746.298702620024,742.7637026200239,947.2757026200239
38,8,18,m,1,0,30.0,30,2,high,6 + 8 + 1 + 1 - 7,9,9,11,8,757.705563900061,759.7315586999757,761.2464917000616,766.2649699000176,766.8624976000283,766.8625021000626,768.3795487000607,769.3968806000194,q,9,0.5975277000106871,1,+10,135,-38.34217920528155,2.877721739088411,1.0089257877502362,711218.0,4.881797697309814,0.36088635182980333,-0.14131486653565162,714752.0,27.589293533596518,4.4659798628567,0.5618929234012384,764259.0,761.2497026200239,757.7157026200239,810.7567026200239
39,8,18,m,1,0,31.0,31,3,low,8 + 3 + 1 - 7 + 9,14,12,15,14,770.9136213000165,772.9644804999698,774.4797556999838,779.4997421000153,782.1266304000746,782.1266356999986,783.6430105000036,784.6596274999902,e,14,2.6268883000593632,1,+1,136,16.73613886191666,0.4426815677399656,1.753386748338805,724451.0,-28.474578201211223,0.09271305788925233,-12.487207436763292,727986.0,-6.824983268178226,0.13628095744650448,0.33513192890470833,737146.0,774.4837026200239,770.9487026200239,783.6437026200239
40,8,18,m,1,0,32.0,32,1,high,2 + 9 + 1 + 1 + 1,14,14,12,13,786.1766054000473,788.2025360000553,789.7178542000474,794.7357831000118,795.9825797000667,795.9825843999861,797.4989604000002,798.5166173999896,q,14,1.2467966000549495,1,+10,146,13.086572461116308,0.27762722128264183,0.909334163059647,739689.0,11.130416832975133,-0.2504233135549745,0.6353275898021238,743222.0,25.89838530345608,0.9005905966297689,-195.15642034270996,790514.0,789.7197026200239,786.1867026200239,837.0117026200239
41,8,18,m,1,0,33.0,33,2,high,6 + 1 + 1 + 7 - 9,6,4,6,8,800.0330182000762,802.0600640000775,803.575354599976,808.5942493000766,809.2386267000111,809.238632200053,810.7550443999935,811.772261200007,w,6,0.6443773999344558,1,+10,156,15.73713572369649,-2.4275973509926025,0.07037432801572407,753546.0,-4.066514365808155,-0.42174652879427654,-0.019904300101160288,757080.0,1.537862807399173,0.19828111087283062,2.5799361395050973,966873.0,803.577702620024,800.043702620024,1013.370702620024
42,8,18,m,1,0,34.0,34,3,high,5 + 6 - 4 - 1 + 8,14,15,14,16,813.2894275999861,815.3159371999791,816.8310095000779,821.8490525999805,822.3745884000091,822.3745936000487,823.890239099972,824.9076221999712,w,14,0.5255358000285923,1,+10,166,3.509952954093146,1.081087674391628,0.5824104424986842,766802.0,7.9381472584699875,0.22094480563717145,1.014875422965936,770336.0,31.190432022642664,-0.12392004165904424,0.31535517948172753,777394.0,816.8337026200239,813.2997026200239,823.8917026200239
43,8,18,m,1,0,35.0,35,1,high,3 + 1 + 1 + 8 - 1,12,12,13,14,826.4243936999701,828.4486370000523,829.9640032000607,834.9820593000622,835.4945630000439,835.4945679000812,837.0109853000613,838.0281598999863,q,12,0.5125036999816075,1,+10,176,-12.153012276188578,0.4711620666577456,0.46888857096271863,779935.0,-0.9600548336568444,2.8147072785023273,0.07126407459422524,783468.0,-53.73468949717336,0.2531256474390018,3.000214161120695,927185.0,829.9657026200239,826.4327026200239,973.6827026200239
44,8,18,m,1,0,36.0,36,4,low,8 + 4 + 7 - 5 - 6,8,9,8,7,839.5447963000042,841.5718867999967,843.0870838999981,848.1060643000528,848.5186331999721,848.5186384000117,850.0350925000384,851.0517703000223,w,8,0.4125688999192789,1,+1,177,-4.193394259314736,0.7713801862177929,-0.8427171251396075,793058.0,-28.60525227108684,-0.6175590601060712,-0.015316248376628039,796592.0,35.102637858783524,-0.2934412146741803,0.8242990575850797,913985.0,843.0897026200239,839.5557026200239,960.4827026200239
45,8,18,m,1,0,37.0,37,3,high,3 - 7 + 5 + 1 + 9,11,12,11,13,852.5681926000398,854.5950721000554,856.1099381999811,861.1299205999821,861.5907566000242,861.59076130006,863.1067868999671,864.1241141000064,w,11,0.4608360000420362,1,+10,187,48.33615004031498,0.3511895259442692,-0.13070098708660538,806081.0,16.5347486818335,0.4853033027906575,-0.09572563806818124,809616.0,39.17186907855789,4.179375864336725,0.9342283188934601,816610.0,856.1137026200239,852.5787026200239,863.1077026200239
46,8,18,m,1,1,38.0,0,3,low,3 + 8 - 7 + 1 + 9,14,13,12,14,906.4428579000524,908.467618900002,909.982872899971,915.0021249999992,916.5026938000228,916.5026990000624,918.0200701999712,919.0378964999692,q,13,1.500568800023757,0,+0,187,-11.778122797200684,13.491900161354849,-1.893003875295462,859953.0,-3.0239209369124023,-1.1623956522807575,-0.23336145754973892,863489.0,-10.741548778748374,0.5949798727261539,-0.41979566717088446,884978.0,909.986702620024,906.4507026200239,931.4757026200239
47,8,18,m,1,1,39.0,1,3,low,5 + 6 - 4 - 1 + 7,13,14,15,13,920.5550267000216,922.5765638999874,924.0917512000306,929.1110230999766,929.95871060004,929.958716000081,931.475675099995,932.4924987000412,e,13,0.8476875000633299,1,+1,188,-4.19735217077902,-0.28233843629717104,-1.4971299732370813,874062.0,-19.438751386517445,-2.228795031381809,0.009396485981687519,877597.0,-10.583697211717197,2.9633143073600383,0.41904766920161407,980081.0,924.0947026200239,920.5597026200239,1026.578702620024
48,8,18,m,1,1,40.0,2,4,high,3 + 8 - 5 + 9 - 7,8,7,6,8,934.0092151999706,936.0308714000276,937.5460040000034,942.5643415000524,945.7586570000276,945.7586619000648,947.274600100005,948.2919890000484,e,8,3.194315499975346,1,+10,198,-18.954974542370007,0.7389407272088562,0.15354718682519763,887517.0,-13.156164711356524,-0.11968772572354336,0.14122662413763276,891050.0,-15.906507528574934,-0.2358827416335263,-0.6442212302655186,940274.0,937.5477026200239,934.014702620024,986.7717026200239
49,8,18,m,1,1,41.0,3,4,low,8 + 3 - 4 + 5 + 9,21,23,22,21,949.8091008000774,951.8358848000644,953.3507974999956,958.3687668000348,958.9666220999788,958.9666269000154,960.4830540000694,961.4998586999718,e,21,0.5978552999440581,1,+1,199,-4.497738044311507,-0.09450845303068878,-0.23849150771970784,903322.0,40.36987870250152,1.3817671697459195,-0.5689848062920149,906854.0,-5.772767641252937,0.6253400807818359,32.061491634428506,1019993.0,953.351702620024,949.8197026200239,1066.490702620024
50,8,18,m,1,1,42.0,4,1,low,7 - 1 + 1 + 9 - 1,15,14,13,15,963.0163138000062,965.0414708000608,966.5566417999798,971.5766336000524,972.166734599974,972.1667403000174,973.6831217000728,974.6997055000392,e,15,0.5901009999215603,1,+1,200,20.66458083249419,-0.03374619085269526,9.49535313079057,916527.0,25.7107597437065,1.1986994724041757,-0.5681657512553215,920062.0,-18.55190782217414,-0.469010097795147,-0.30546567258695134,953666.0,966.5597026200239,963.024702620024,1000.163702620024
51,8,18,m,1,1,43.0,5,4,low,5 + 7 - 4 - 6 + 9,11,13,11,12,976.216452499968,978.2435804000124,979.7588870000328,984.77766849997,985.2547904000384,985.2547954000764,986.7713062000694,987.7884118000512,w,11,0.477121900068596,1,+1,201,8.15668343378886,1.4653910231417537,-1.1544034184341285,929729.0,20.004642208003986,-0.9566753374298571,-3.3372251027802484,933263.0,-19.10889990616298,3.0584943526397375,1.202994029828841,1073305.0,979.760702620024,976.226702620024,1119.802702620024
52,8,18,m,1,1,44.0,6,1,high,2 + 1 + 1 + 9 - 1,12,13,11,12,989.3059813000727,991.3323819000508,992.8476252000546,997.8668345999904,998.646764400066,998.6467697999906,1000.1632945999736,1001.180642100051,e,12,0.7799298000754789,1,+10,211,-22.673511759556867,-0.7174453972274533,-0.5511062444719315,942818.0,25.49571065189427,0.2746085632123174,-0.338119502025755,946352.0,6.036041997834419,1.5778807307291451,-5.53219224039978,993274.0,992.8497026200239,989.3157026200239,1039.771702620024
53,8,18,m,1,1,45.0,7,2,low,9 + 1 + 6 + 7 + 1,24,23,25,24,1002.69743020006,1004.7251745000248,1006.2403329999652,1011.25791819999,1011.8546878000489,1011.854692999972,1013.3709545000456,1014.3875935999675,e,24,0.5967696000589058,1,+1,212,5.769186283389679,-3.274716429198005,-13.635784825536795,956210.0,-7.608021244562167,0.8026905874092378,-1.2476677837127816,959744.0,-1.6969220051456748,2.0247275869039933,23.782595686592778,1006553.0,1006.241702620024,1002.707702620024,1053.050702620024
54,8,18,m,1,1,46.0,8,3,low,7 - 1 + 8 - 6 + 4,12,11,13,12,1015.9043248000088,1017.932589199976,1019.4479008000344,1024.465887999977,1025.0627358000493,1025.0627410999732,1026.5790854999796,1027.5958888999885,e,12,0.5968478000722826,1,+1,213,-20.798751975928628,-3.383695942226625,32.32502957087125,969418.0,13.564051791431801,-0.2700154743999743,-0.2764098844172942,972952.0,-29.280607706894223,0.15958271426832482,0.12199415549191883,1046257.0,1019.4497026200239,1015.9157026200239,1092.754702620024
55,8,18,m,1,1,47.0,9,1,low,5 + 8 - 1 + 1 + 1,14,14,12,16,1029.1125822999747,1031.1402742000064,1032.6551259000553,1037.6733165000333,1038.2547320000594,1038.254737099982,1039.7718463999918,1040.7886819000123,q,14,0.5814155000261962,1,+1,214,-6.469100839961332,2.463067571589322,67.52931334308963,982626.0,-10.684056878477076,3.5612052603139723,-13.508937096777125,986159.0,-6.859357348912891,-3.0221369703828262,-142.65726762418575,1114153.0,1032.656702620024,1029.123702620024,1160.650702620024
56,8,18,m,1,1,48.0,10,2,low,4 + 9 - 7 + 1 - 1,6,6,8,5,1042.3055127999978,1044.3305868000025,1045.8457661999855,1050.865987300058,1051.5347023999784,1051.5347073000155,1053.0506967999972,1054.067376299994,q,6,0.6687150999205187,1,+1,215,-12.230846709670544,1.987195443442487,-39.98302226770039,995816.0,23.666921636311546,-0.20400175760392614,9.67626438546646,999351.0,4.960526017144261,2.0285021433210044,0.05392376968252677,1033153.0,1045.848702620024,1042.313702620024,1079.650702620024
57,8,18,m,1,1,49.0,11,4,high,5 + 8 - 6 + 7 + 4,18,17,18,19,1055.5842262000078,1057.6117374000603,1059.1269642000552,1064.145633300068,1064.974721900071,1064.974726799992,1066.49097360007,1067.5081398000475,w,18,0.8290886000031605,1,+10,225,18.269910479752497,4.311216687753678,-1.7079227017708902,1009097.0,7.507775342642263,4.254704537598084,-127.81489668462689,1012631.0,-14.838933196207382,1.3242970221257346,0.4608046768736429,1127289.0,1059.128702620024,1055.594702620024,1173.786702620024
58,8,18,m,1,1,50.0,12,2,high,6 + 1 + 1 + 8 - 9,7,7,9,5,1069.0249672000064,1071.0513798000757,1072.5671250000596,1077.5848356999925,1078.1348192000296,1078.1348246000707,1079.651123000076,1080.6683420999907,q,7,0.5499835000373423,1,+10,235,4.840083375654038,-0.7244879182746713,-0.3153962273010311,1022536.0,-1.7175428733771978,8.895527900435432,1.2205777026137135,1026070.0,5.79059603557519,-0.1899284393343077,-0.02257155337966399,1059458.0,1072.567702620024,1069.0337026200239,1105.955702620024
59,8,18,m,1,1,51.0,13,3,low,4 + 1 + 8 + 9 - 5,17,19,18,17,1082.1853207000531,1084.212604400003,1085.728209599969,1090.7465805000393,1091.2387027000077,1091.2387075000445,1092.7553340999875,1093.7723746000556,e,17,0.4921221999684348,1,+1,236,1.1939917357529168,-0.722909664158764,40.613471855565706,1035698.0,15.009659236143834,-0.028876349456769645,-0.2341558510467694,1039232.0,2.06672732269856,-3.517882988028882,-117.15681637989961,1100504.0,1085.729702620024,1082.1957026200241,1147.001702620024
60,8,18,m,1,1,52.0,14,2,low,7 + 6 + 1 + 8 + 1,23,21,22,23,1095.2900773000438,1097.317336200038,1098.832444800064,1103.8513309999837,1104.438781099976,1104.4387863000156,1105.9561799999792,1106.973578199977,e,23,0.5874500999925658,1,+1,237,20.1468628986373,2.995882871424577,2.6791022321199636,1048802.0,19.67640382717851,0.8988192636048336,-1.1295122117494616,1052336.0,2.4135001602999324,0.16285802003247518,10.579323336033667,1168474.0,1098.833702620024,1095.299702620024,1214.971702620024
61,8,18,m,1,1,53.0,15,4,high,6 + 9 + 7 - 3 - 5,14,14,13,12,1108.490034700022,1110.5159439999843,1112.0310712000355,1117.0497283000732,1118.2868515000446,1118.28685699997,1119.8032520000124,1120.820420700009,q,14,1.2371231999713928,1,+10,247,-8.876143457036072,-0.22638553890408097,0.15265121860202413,1062001.0,4.271911909922128,-1.4588009380805147,0.18805369342874645,1065535.0,28.579153669205354,0.9898692518770318,-0.38960474788627764,1221800.0,1112.032702620024,1108.498702620024,1268.297702620024
62,8,18,m,1,1,54.0,16,3,high,5 + 6 + 7 - 1 - 9,8,8,9,7,1122.337121700053,1124.3619011000264,1125.8771597000305,1130.8960284000495,1132.4147124000592,1132.4147173999809,1133.9310924999882,1134.9484869000737,e,7,1.5186840000096709,0,+0,247,-17.532259650931678,-3.3225545456913075,0.1365761304732116,1075847.0,16.91904808761482,-0.5886844276404508,17.949229274977768,1079381.0,25.156996121598077,0.6192384380852145,0.33127846628879354,1140346.0,1125.8787026200241,1122.344702620024,1186.843702620024
63,8,18,m,1,1,55.0,17,3,low,6 + 8 + 7 + 1 - 9,13,15,13,14,1136.4651525999652,1138.4909269000636,1140.006214300054,1145.0246311000085,1145.4867174000246,1145.4867229000663,1147.002954900032,1148.0197960999794,w,13,0.4620863000163808,1,+1,248,-27.492990943662665,0.9580186024582904,0.2842854832826234,1089975.0,24.236144082401673,-0.6110649187789088,0.7696117638339963,1093509.0,7.253039658892334,-2.749178023684946,-76.37528395780366,1153368.0,1140.006702620024,1136.472702620024,1199.865702620024
64,8,18,m,1,1,56.0,18,1,low,7 + 1 + 6 + 1 + 1,16,16,18,17,1149.5366743999766,1151.563219600008,1153.0784009000054,1158.0963429000694,1159.134782499983,1159.1347880000249,1160.6512732000556,1161.6679778000107,q,16,1.038439599913545,1,+1,249,45.67879074680377,0.46307138035047046,-0.7604340090664401,1103048.0,15.530139216847628,-0.1412093713279603,-0.2406619321608794,1106581.0,-3.623507841428201,0.1608211265082371,4.602517370029641,1181640.0,1153.078702620024,1149.545702620024,1228.1377026200241
65,8,18,m,1,1,57.0,19,4,low,2 + 9 - 3 + 5 + 8,21,22,23,21,1163.1839668999892,1165.2102286000736,1166.7254144999897,1171.7448509000242,1172.2709181000246,1172.2709239000687,1173.7878466000548,1174.8045262000524,e,21,0.5260672000003979,1,+1,250,-0.9321889639258458,1.00959363903553,12.049167085449344,1116695.0,14.925269644771044,-70.18530528111441,40.773674157446486,1120229.0,-59.701972288488335,-0.32545352579394304,-131.62303804610622,1369911.0,1166.726702620024,1163.192702620024,1416.408702620024
66,8,18,m,1,1,58.0,20,3,high,3 + 8 - 7 - 1 + 9,12,12,13,14,1176.321449900046,1178.349458700046,1179.8647520999657,1184.8833771999923,1185.3269066000355,1185.3269117000746,1186.8441011999969,1187.8615092000691,q,12,0.4435294000431895,1,+10,260,-62.303647128740046,-1.2723616094026058,0.805048814293226,1129834.0,23.175710354646846,-0.13812841904700512,0.2107660794091828,1133368.0,-38.886694065879645,-0.4814447501736474,0.024657035128797133,1208225.0,1179.865702620024,1176.331702620024,1254.722702620024
67,8,18,m,1,1,59.0,21,3,low,4 + 8 - 9 + 1 + 7,11,9,11,13,1189.378649799968,1191.400810000021,1192.91604609997,1197.9345792999957,1198.3507983000018,1198.3508035000414,1199.8668800999876,1200.8839318000246,w,11,0.4162190000060946,1,+1,261,46.345585844414664,0.006637506706320906,-0.7640072628973336,1142885.0,12.289407397973907,-0.8453086478801417,-128.09279488836293,1146419.0,-71.258755518291,2.090115685558832,-0.545619282404755,1262656.0,1192.9167026200241,1189.382702620024,1309.153702620024
68,8,18,m,1,1,60.0,22,2,high,3 + 9 - 1 - 5 + 1,7,6,7,5,1202.400567600038,1204.4243675000034,1205.9401185000315,1210.9576687000226,1213.4548723000337,1213.4548776000738,1214.971845800057,1215.9893104999792,w,7,2.497203600010834,1,+10,271,33.73034854163764,-2.289255950401455,2.8058066868991567,1155908.0,-9.358187098463851,0.4395861832647956,0.06276177187208631,1159443.0,16.41432567961751,0.09073720704808785,-61.27745897924079,1194944.0,1205.940702620024,1202.405702620024,1241.441702620024
69,8,18,m,1,1,61.0,23,1,low,6 + 1 + 1 + 7 - 1,14,12,13,14,1217.506179100019,1219.5334467000794,1221.0483977000697,1226.0667102000443,1226.6228844000725,1226.622889499995,1228.1391490000533,1229.156003399985,e,14,0.5561742000281811,1,+1,272,22.890830195201605,0.6804087320361552,4.293299051327249,1171018.0,-22.986818489438786,-0.6391240839934742,2.120749699443355,1174551.0,-23.533877436507712,0.3780305481246353,1.0837100188830995,1249480.0,1221.048702620024,1217.515702620024,1295.977702620024
70,8,18,m,1,1,62.0,24,2,low,9 + 5 - 6 + 1 - 1,8,8,7,9,1230.6726809999673,1232.7004321999848,1234.2153415000066,1239.2349255000008,1239.926867100061,1239.9268724999856,1241.443415799993,1242.460907700006,q,8,0.6919416000600904,1,+1,273,-9.26937401044804,4.83960344826462,0.45476274501678304,1184185.0,3.9105327804388885,-1.0025556682690917,-0.4496705543158619,1187719.0,-54.96760436650664,1.3345581982456407,0.2555097597207485,1235857.0,1234.216702620024,1230.682702620024,1282.354702620024
71,8,18,m,1,1,63.0,25,3,high,2 + 1 + 9 - 4 + 6,14,14,15,16,1243.9774001999758,1246.003863699967,1247.518792500021,1252.536775100045,1253.206787900068,1253.206793099991,1254.7236725999974,1255.74089320004,q,14,0.6700128000229597,1,+10,283,12.427755396502029,1.2657047955594685,0.08950527594816293,1197488.0,-18.835673680555697,-0.05407192053033505,-0.15148438056842295,1201021.0,-24.505201217527834,0.490869807739319,-0.07211035092522255,1275736.0,1247.518702620024,1243.985702620024,1322.2337026200241
72,8,18,m,1,1,64.0,26,4,low,9 + 8 - 5 - 7 + 6,11,10,13,11,1257.257858900004,1259.2863956000656,1260.8016547000734,1265.8219009999884,1266.7828926000511,1266.7828979999758,1268.2993907000637,1269.3168189000571,e,11,0.960991600062698,1,+1,284,-40.24015760195009,-0.8023847453213122,-0.2320307454475774,1210770.0,-3.3728142338752507,-0.43576876336378145,-0.0823350445792208,1214306.0,-32.22237116074763,4.116045076927168,1.0515523907526791,1431295.0,1260.803702620024,1257.267702620024,1477.792702620024
73,8,18,m,1,1,65.0,27,2,high,5 - 1 + 1 + 8 + 9,22,21,23,22,1270.833860100014,1272.858018900035,1274.3731316999765,1279.3908852000022,1280.838937500026,1280.838942500064,1282.3555595000507,1283.3725109000225,e,22,1.4480523000238463,1,+10,294,2.218520330435286,1.530000821561809,0.7198833555415867,1224342.0,46.68988504275716,-1.344496915810982,0.06255407851612205,1227875.0,-6.692542450481014,-0.6109730784737231,0.3701005790318197,1302048.0,1274.372702620024,1270.8397026200241,1348.545702620024
74,8,18,m,1,1,66.0,28,1,low,3 + 1 + 8 + 1 + 1,14,14,13,12,1284.8897968999809,1286.9154413000217,1288.430461400072,1293.4486447999952,1294.462903500069,1294.4629085999914,1295.9794537000123,1296.9963985000504,q,14,1.014258700073697,1,+1,295,19.30287287100865,0.5595876644256608,18.13893146881509,1238399.0,-42.716391585344866,0.6521488476803263,26.340410880364935,1241933.0,6.005277300512258,-0.4185174839033241,-0.8325090271413771,1341488.0,1288.430702620024,1284.896702620024,1387.985702620024
75,8,18,m,1,1,67.0,29,3,high,7 - 1 + 8 - 6 + 4,12,12,11,13,1298.513255800004,1300.5414961000206,1302.0568372000707,1307.0760428999783,1307.638875300065,1307.6388835000107,1309.1553529000375,1310.172709900071,q,12,0.5628324000863358,1,+10,305,-4.134403625229044,-1.4598036841670634,-157.97304001365467,1252025.0,-3.3058215445296373,-0.4896143430872568,-0.9672641850732839,1255560.0,18.2914715094292,-6.9114150097763005,-2.9502631034871243,1289024.0,1302.057702620024,1298.5227026200241,1335.521702620024
76,8,18,m,1,1,68.0,30,3,high,4 + 1 + 8 + 9 - 5,17,18,17,19,1311.689460800029,1313.7144458000548,1315.2299490000587,1320.247776800068,1320.7188658000669,1320.718870599987,1322.23551030003,1323.2526157000102,w,17,0.4710889999987557,1,+10,315,28.412473477289026,-0.8888965459460128,-0.44133992507265596,1265198.0,10.902331299762015,1.5195646888373506,0.0737820798538511,1268732.0,35.88135754761512,-18.29922646508956,-5.914476120949839,1356608.0,1315.229702620024,1311.6957026200241,1403.105702620024
77,8,18,m,1,1,69.0,31,3,low,6 - 1 + 7 - 8 + 9,13,11,13,12,1324.7694593999768,1326.795029800036,1328.3101341000292,1333.3288724999877,1334.0069196000695,1334.0069248999937,1335.523422300001,1336.539790400071,w,13,0.6780471000820398,1,+1,316,40.8991209786501,-6.2961460608115445,-0.11930703144045474,1278279.0,14.647566455094967,-2.6982629140284775,0.10017533304613924,1281813.0,-6.687763907349593,-0.4958763273141811,0.27184903548757244,1484440.0,1328.3107026200241,1324.776702620024,1530.937702620024
78,8,18,m,1,1,70.0,32,2,high,9 + 4 - 6 + 1 - 1,7,7,9,8,1338.0563723000232,1340.081818900071,1341.5976288999664,1346.6154225000646,1347.0308970999904,1347.03090230003,1348.547395200003,1349.5646414000075,q,7,0.4154745999258011,1,+10,326,22.9606443696941,1.580569832235338,0.014380173680705433,1291565.0,-7.692089824097046,-1.364904355339946,0.09854761793953859,1295099.0,16.96506488473134,-0.3480309782179516,-0.13222642380758387,1315200.0,1341.596702620024,1338.062702620024,1361.697702620024
79,8,18,m,1,1,71.0,33,2,high,8 + 1 + 9 + 1 - 4,15,14,16,15,1351.0815027999924,1353.113129000063,1354.6282332000555,1359.6459724999731,1360.1828864000272,1360.1828913000645,1361.6992640000535,1362.7165509000188,e,15,0.5369139000540599,1,+10,336,-27.60068655874497,1.216101282824705,-0.02149044212844764,1304597.0,-1.0628441614364839,-2.100663612374385,8.662644010449972,1308130.0,20.79748521679049,0.7476713861051811,-0.14260497184407583,1328392.0,1354.6277026200241,1351.094702620024,1374.889702620024
80,8,18,m,1,1,72.0,34,2,high,4 + 9 - 7 + 1 - 1,6,5,6,8,1364.23328210006,1366.2556748000206,1367.7705985000357,1372.7893392000117,1373.374936499982,1373.3749417000215,1374.8913119999925,1375.9085528000724,w,6,0.5855972999706864,1,+10,346,-6.867338079148869,-1.774976953267264,0.716088962200498,1317739.0,-3.5439692099659506,0.055172755424043984,0.40219893573986454,1321273.0,-42.13063552707486,-0.591346071250511,-0.6538878128223935,1405056.0,1367.770702620024,1364.236702620024,1451.553702620024
81,8,18,m,1,1,73.0,35,1,high,3 + 1 + 9 + 1 - 1,13,13,14,12,1377.4254494999768,1379.4524486999726,1380.9675360000692,1385.9859178999905,1386.4709189999849,1386.4709242000245,1387.9876746999798,1389.0049654999748,q,13,0.4850010999944061,1,+10,356,1.588545447337422,1.3348552047589042,-0.16884913708164007,1330936.0,-47.43161177431551,-1.5113719714934968,-0.581211462166749,1334469.0,-13.586692486510696,0.3752963014401969,-0.009363235641277612,1418193.0,1380.966702620024,1377.433702620024,1464.690702620024
82,8,18,m,1,1,74.0,36,3,high,9 + 3 - 4 + 6 + 7,21,21,23,22,1390.5216986000305,1392.546166800079,1394.061008400051,1399.079156300053,1401.5908878999762,1401.590893400018,1403.107497400022,1404.1246129000792,q,21,2.5117315999232237,1,+10,366,18.76897349570283,-0.5509186258955872,-0.12655777073927865,1344030.0,-36.377552177248255,-0.8965269282258355,-0.33867652103872103,1347563.0,1.9867517741900613,3.4024458629799117,-0.5954982543873681,1511007.0,1394.0607026200241,1390.527702620024,1557.504702620024
83,8,18,m,1,1,75.0,37,4,low,4 + 9 - 7 + 8 + 5,19,20,19,21,1405.641232099966,1407.6671931999736,1409.1822632000549,1414.2006622999909,1414.8948607000057,1414.8948658000445,1416.4111294000177,1417.4278577000368,w,19,0.6941984000150114,1,+1,367,8.972180037211157,-0.2768835437215982,-2.4945245166691805,1359150.0,2.4919051888107475,-0.2239564676463912,0.29556568024885266,1362684.0,40.82295777762015,1.2353647632932088,-0.16354651788976948,1497615.0,1409.181702620024,1405.6477026200241,1544.112702620024
84,8,18,m,1,2,76.0,0,2,low,2 + 1 + 9 - 4 + 1,9,9,8,11,1425.3544679000042,1427.381199000054,1428.8963288000086,1433.9155958000338,1436.734955699998,1436.7349606000353,1438.2515181000344,1439.2686014000792,e,11,2.819359899964184,0,+0,367,-4.457765036409258,2.913446964796458,8.089070362234974,1378864.0,26.98218131613755,-0.09778198514754344,0.5326623313522134,1382399.0,28.493758876666195,1.5378656345682753,0.9760502593801847,1551166.0,1428.896702620024,1425.361702620024,1597.663702620024
85,8,18,m,1,2,77.0,1,2,high,4 + 1 + 9 + 1 - 6,9,7,8,9,1440.7853398000589,1442.8107947000535,1444.326059599989,1449.3452469999902,1450.0389416000107,1450.0389468000503,1451.5553079000674,1452.5730009999825,e,9,0.6936946000205353,1,+10,377,18.076406243380653,-2.618992173542769,-22.4672952430012,1394294.0,-7.518682415148582,0.30436611957736925,0.5257976110666078,1397828.0,14.357080369060565,3.554022661537531,0.786495796145732,1577815.0,1444.325702620024,1440.7917026200241,1624.312702620024
86,8,18,m,1,2,78.0,2,1,low,6 + 1 + 8 + 1 + 1,17,17,15,16,1454.0900507000042,1456.116308900062,1457.6319367999677,1462.6504988999804,1463.174959899974,1463.174965400016,1464.692641200032,1465.7096190999728,q,17,0.5244609999936074,1,+1,378,23.67121211110061,0.4728901047758738,0.5525874541907001,1407599.0,12.705102651343841,-0.541135320261076,-1.0558053566244894,1411134.0,32.77118056477839,0.7918484788709046,0.051440870626179525,1444863.0,1457.631702620024,1454.096702620024,1491.360702620024
87,8,18,m,1,2,79.0,3,4,low,2 + 5 - 3 + 9 + 8,21,22,21,19,1467.2264441000298,1469.253512699972,1470.7686027999737,1475.7876549999928,1476.2790651000105,1476.279069900047,1477.7950053999666,1478.8122176000616,w,21,0.4914101000176742,1,+1,379,-0.2707679200427471,-2.30228597313374,35.47067762098911,1420736.0,21.38631363358794,-0.17716093507969255,0.20038745382725143,1424271.0,-42.53086243389572,-1.2157646884022562,-0.2229797875756816,1537887.0,1470.768702620024,1467.2337026200241,1584.384702620024
88,8,18,m,1,2,80.0,4,1,high,8 + 1 + 1 + 1 - 4,7,8,5,7,1480.3288669000613,1482.3548692000331,1483.8699466000544,1488.888102500001,1489.8469556000782,1489.8469609000022,1491.3630686000688,1492.3798684000503,e,7,0.9588531000772492,1,+10,389,-25.78209566389339,4.532319188103508,-0.018094563665933983,1433838.0,15.32674974918138,-1.6135144936617811,-0.08919723577822491,1437371.0,-7.585690251894384,1.5534450458440343,-0.07228402746761553,1458135.0,1483.8687026200241,1480.335702620024,1504.632702620024
89,8,18,m,1,2,81.0,5,1,high,7 + 1 + 5 + 1 - 1,13,12,13,14,1493.8966602999717,1495.9202249000082,1497.4355009000285,1502.4542517999653,1503.1190758000594,1503.1190813999856,1504.6354384999722,1505.652539200033,w,13,0.6648240000940859,1,+10,399,-24.462809940508922,-1.1783166633934217,0.12994586160980415,1447403.0,-120.89067310421605,-0.040551305468079946,0.4402986441454164,1450937.0,5.2182679983574864,-1.573977180718253,0.10068961642114616,1471311.0,1497.434702620024,1493.900702620024,1517.808702620024
90,8,18,m,1,2,82.0,6,1,high,8 + 1 + 1 + 1 - 3,8,9,6,8,1507.1692848000675,1509.1915974000003,1510.7068211999722,1515.724757299991,1516.2949662000174,1516.294971000054,1517.8108885000693,1518.8281871000072,e,8,0.5702089000260457,1,+10,409,-0.12337002260250785,1.5280911952534604,-0.04492343465618642,1460675.0,15.469620666702975,1.9737020540812136,-0.5661349778523448,1464208.0,19.556522828181045,3.491897546671532,0.9448310244364713,1564575.0,1510.705702620024,1507.172702620024,1611.072702620024
91,8,18,m,1,2,83.0,7,3,high,2 - 4 + 9 + 7 + 1,15,13,15,16,1520.3451459000353,1522.371150500025,1523.8865915000206,1528.9050627000397,1529.4231400999706,1529.4231459000148,1530.9402784999693,1531.9572149000596,w,15,0.5180773999309167,1,+10,419,-5.972025165972235,6.211358216563887,0.6862316395067678,1473854.0,-16.100928597295514,2.0764998545274924,0.12833900096210016,1477388.0,-17.03074257149746,-2.5908332859331367,-0.16299409597937142,1524479.0,1523.885702620024,1520.351702620024,1570.976702620024
92,8,18,m,1,2,84.0,8,4,high,2 + 9 - 6 + 8 - 4,9,7,11,9,1533.4736562999897,1535.5000239000656,1537.0151831000112,1542.0344832000555,1542.5989649000112,1542.5989703000523,1544.1150583999697,1545.1320591999684,e,9,0.5644816999556497,1,+10,429,-10.747790339377481,2.5198243221622176,0.13855519654070125,1486983.0,13.78128570733726,-2.4997742468585944,0.17768129495634355,1490517.0,-23.196184036208848,2.9831694285321184,0.929285058019544,1605743.0,1537.014702620024,1533.480702620024,1652.240702620024
93,8,18,m,1,2,85.0,9,3,low,4 + 7 - 3 + 5 - 1,12,12,11,13,1546.6488407000434,1548.6747914999723,1550.189923100057,1555.2084742999868,1555.9910590000218,1555.9910642000614,1557.5073052999796,1558.5238862000406,q,12,0.7825847000349313,1,+1,430,24.89595373607453,0.3099920472010256,-0.0941464734983466,1500157.0,-20.949488937109184,-2.88481696657579,-2.199329319092409,1503691.0,19.23938186649932,-0.67574695701434,-0.19402157422804223,1592478.0,1550.188702620024,1546.654702620024,1638.975702620024
94,8,18,m,1,2,86.0,10,3,low,7 + 1 + 9 + 5 - 6,16,16,15,14,1560.040567500051,1562.067439300008,1563.5826295000734,1568.600897300057,1569.4631622000595,1569.4631675999844,1570.9795968000544,1571.9961681000425,q,16,0.8622649000026286,1,+1,431,-0.3394436581491469,0.2607798532921244,0.3701677925171172,1513549.0,4.906264825376359,0.2949150991548475,-0.45347358949458094,1517083.0,10.955626629201197,-3.5534722755047774,0.06191389075169873,1618806.0,1563.580702620024,1560.046702620024,1665.303702620024
95,8,18,m,1,2,87.0,11,4,high,9 + 3 - 5 + 8 + 6,21,19,21,23,1573.5129369000206,1575.5401069000363,1577.055378900026,1582.0732935999986,1582.8709614999825,1582.870966700022,1584.3874946000287,1585.4047971999971,w,21,0.7976678999839351,1,+10,441,11.825144883862166,-5.12236093537323,0.15925786422686006,1527023.0,10.792781432644652,0.9396877769307688,0.2190920234330287,1530556.0,3.5412458135962535,-0.2053407253987647,-0.07752083725530134,1646991.0,1577.053702620024,1573.520702620024,1693.488702620024
96,8,18,m,1,2,88.0,12,2,low,7 + 1 + 9 - 1 - 8,8,8,6,7,1586.9215462000575,1588.9500463000732,1590.465190900024,1595.4846133000683,1596.1510201999918,1596.1510257000336,1597.6671019999776,1598.6839454000583,q,8,0.6664068999234587,1,+1,442,18.54375880881868,0.9144473351445006,-0.07645423014783415,1540432.0,-10.587777165091278,0.8695832645015056,0.09070007166514049,1543966.0,11.669479682976464,3.1073433001797746,1.2640540291839129,1686246.0,1590.463702620024,1586.929702620024,1732.7437026200241
97,8,18,m,1,2,89.0,13,1,high,9 + 8 + 1 + 1 - 1,18,19,18,17,1600.200689200079,1602.2267954000272,1603.7418788999785,1608.760939800064,1609.559083500062,1609.5590889999876,1611.075390700018,1612.0928354000207,w,18,0.798143699998036,1,+10,452,16.65145048295351,1.2791646616200731,1.097163085820652,1553709.0,2.905492080986436,1.5433208921272437,0.08654339050976478,1557243.0,24.659484176142016,-1.4123758282773462,-0.4772192394279644,1631862.0,1603.740702620024,1600.206702620024,1678.359702620024
98,8,18,m,1,2,90.0,14,2,low,5 + 8 + 1 - 1 + 9,22,22,23,21,1613.6094289000612,1615.6354398999829,1617.1502210000765,1622.169105399982,1622.7991225000003,1622.7991278000409,1624.3155421999982,1625.3324194999875,q,22,0.6300171000184491,1,+1,453,-0.4593014653562939,-0.9700757887570202,-0.06265080564633685,1567118.0,17.660863551856348,0.7407415872717493,-0.004416801954641336,1570650.0,17.12508003963132,-1.0814979667410007,0.4450451234256869,1714893.0,1617.1477026200241,1613.615702620024,1761.390702620024
99,8,18,m,1,2,91.0,15,3,low,7 - 6 + 8 + 1 + 7,17,15,17,16,1626.8492894000374,1628.87443299999,1630.3892963000108,1635.409111200017,1637.4630733000813,1637.463078300003,1638.979568000068,1639.9960203999651,w,17,2.053962100064382,1,+1,454,6.931894963503259,0.8063860799277753,0.12458972555040848,1580357.0,-3.213757218760634,0.5916931861985653,-0.19359415286997006,1583891.0,-21.118561978294238,-2.36409577386277,-0.1005079800956894,1673094.0,1630.388702620024,1626.854702620024,1719.591702620024
100,8,18,m,1,2,92.0,16,4,high,6 + 9 - 7 + 8 - 5,11,13,11,12,1641.5130139000248,1643.5382476000814,1645.05305029999,1650.0714141000062,1650.7270719000371,1650.7270768000744,1652.2432588000083,1653.260532699991,w,11,0.6556578000308946,1,+10,464,10.930123761757617,3.476332478399808,2.719767876455836,1595020.0,-20.30845804318823,0.5976951736263931,0.10001628085156433,1598554.0,-17.373437779432784,-2.5007222299625234,-0.14373909307128319,1700230.0,1645.0517026200241,1641.517702620024,1746.727702620024
101,8,18,m,1,2,93.0,17,3,low,6 - 1 + 7 - 8 + 9,13,13,12,11,1654.7774146000156,1656.802480500075,1658.3176407000285,1663.3361139000626,1663.791173000005,1663.791178100044,1665.3076784000732,1666.324424499995,q,13,0.4550590999424457,1,+1,465,-26.368608461869332,-2.975980483433789,-2.8056013652813316,1608285.0,-26.300080642737022,-0.7151605283691858,-0.029042204821046802,1611818.0,5.647953775423023,8.71532951615636,-1.080092344744532,1767486.0,1658.315702620024,1654.782702620024,1813.9837026200241
102,8,18,m,1,2,94.0,18,1,low,9 + 1 + 1 + 7 - 1,17,17,16,19,1667.8412722999929,1669.8688367999855,1671.3842027999926,1676.4026152000297,1676.8470923000714,1676.8470974999946,1678.3634966000682,1679.3802489000373,q,17,0.4444771000416949,1,+1,466,-15.546666462028917,-0.5191446836530336,0.07553449069071583,1621351.0,10.275393232471178,0.3029064884117272,-0.4795567815639403,1624884.0,-11.059030272972393,-0.02964066851753433,0.05061748204356231,1660055.0,1671.381702620024,1667.8487026200241,1706.552702620024
103,8,18,m,1,2,95.0,19,4,high,6 + 9 + 7 - 3 - 5,14,15,14,13,1680.8969630000647,1682.923550800071,1684.4383716000011,1689.458265800029,1691.97510400007,1691.9751093999948,1693.4915273999795,1694.508884400013,w,14,2.516838200041093,1,+10,476,-14.218183212861433,1.081516858853317,-0.06374618159711076,1634405.0,22.028847105939505,-1.044491587759346,0.21417881539778705,1637940.0,16.621664469829597,0.1074639875401715,0.1287469961025467,1728159.0,1684.437702620024,1680.902702620024,1774.6567026200241
104,8,18,m,1,2,96.0,20,1,high,7 - 1 + 8 + 1 - 1,14,14,13,12,1696.0258410000242,1698.0501690000528,1699.5650248000163,1704.5835319000762,1705.039139200002,1705.0391444000416,1706.5556889000582,1707.5728207000066,q,14,0.4556072999257594,1,+10,486,2.136742372424848,3.396099539480229,0.3003610069544935,1649532.0,-25.844947594146536,1.0765840095827457,-0.3519997182712613,1653065.0,-39.54731023676596,-0.28190608395249583,0.22738463161344313,1754398.0,1699.562702620024,1696.029702620024,1800.895702620024
105,8,18,m,1,2,97.0,21,3,low,5 - 1 - 4 + 6 + 7,13,13,14,15,1709.0894765000558,1711.1145661000628,1712.629673300078,1717.647721300018,1718.0791332999945,1718.0791382000316,1719.595563900075,1720.6125648000743,q,13,0.4314119999762624,1,+1,487,5.371623898293329,0.7505952692534574,-0.03187188422998943,1662596.0,18.87892435531277,-0.09078377538236904,-0.05986197166146123,1666130.0,-10.365690757312336,1.8053252909514397,0.2262136787116722,1892790.0,1712.6277026200241,1709.093702620024,1939.287702620024
106,8,18,m,1,2,98.0,22,2,high,9 + 4 + 5 + 1 - 1,18,17,19,18,1722.1291833000723,1724.156073900056,1725.6718545000767,1730.6901735999854,1731.2311820000175,1731.2311871000566,1732.7476271999767,1733.7647556000156,e,18,0.5410084000322968,1,+10,497,10.624370833656597,-0.6366260498541294,1.0756678070388421,1675638.0,3.642190850117382,-6.567832793548,-3.775146444113071,1679172.0,-3.3453206461863516,-3.4860055386904314,0.02825642426715902,1975708.0,1725.669702620024,1722.135702620024,2022.205702620024
107,8,18,m,1,2,99.0,23,4,low,5 + 7 - 4 + 6 + 9,23,23,24,25,1735.2816982000368,1737.3037543999965,1738.819008300081,1743.8383128000423,1745.2151202000678,1745.215125399991,1746.731471600011,1747.7483008999843,q,23,1.3768074000254271,1,+1,498,-20.486855599318197,0.548555253167466,-0.2262181712885436,1688785.0,-12.27081750925579,-6.801972106046282,-0.4271926813524072,1692319.0,-11.651627189203658,1.8886856353196784,0.013067827672479382,1741231.0,1738.816702620024,1735.282702620024,1787.728702620024
108,8,18,m,1,2,100.0,24,2,high,3 + 8 + 1 - 5 + 1,8,9,8,6,1749.2650820000565,1751.2870077000698,1752.8019478999777,1757.8201174000278,1759.8791298000142,1759.8791346000507,1761.3947789999656,1762.4116813000292,w,8,2.0590123999863863,1,+10,508,10.766835246152626,-0.3145228168611318,-0.055093379408710064,1702769.0,15.75178839630576,2.9612384295037266,1.5285996914248052,1706302.0,-15.159649995359933,1.5505072649816185,0.11474658448934605,2029741.0,1752.799702620024,1749.266702620024,2076.238702620024
109,8,18,m,1,2,101.0,25,4,high,8 + 5 - 4 + 7 + 9,25,25,24,26,1763.9281540000811,1765.9558563000755,1767.4710949000437,1772.4897827999666,1773.1432010000572,1773.1432064999826,1774.6597573000472,1775.677193999989,q,25,0.6534182000905275,1,+10,518,-13.489870260147326,-0.2843461749846927,0.13492787135372808,1717437.0,-3.2792623616078767,-0.004327386358918162,-0.16290309003435421,1720971.0,9.56118795464755,0.7924651960788589,0.24413649546880567,1838358.0,1767.468702620024,1763.934702620024,1884.855702620024
110,8,18,m,1,2,102.0,26,4,high,9 + 7 - 5 + 8 + 6,25,24,25,27,1777.1939075000118,1779.2185473999707,1780.7345203000586,1785.753325900063,1786.215197600075,1786.215203300002,1787.7324501000112,1788.74932120007,w,25,0.4618717000121251,1,+10,528,-37.48521434017934,1.0098459900642833,-0.28343200372508637,1730700.0,10.698816505114765,-1.7636984804862266,-0.06037234879696651,1734235.0,-38.92666256000743,3.3670827415553903,-0.06598776637730275,1852677.0,1780.732702620024,1777.197702620024,1899.174702620024
111,8,18,m,1,2,103.0,27,1,low,7 - 1 + 9 + 1 - 1,15,13,14,15,1790.2660319000715,1792.293532700045,1793.8078957999824,1798.826251500053,1799.3831701000454,1799.3831748999655,1800.899560000049,1801.916430799989,e,15,0.5569185999920592,1,+1,529,-14.837590709946799,-0.19060777785108662,0.026702150817885517,1743774.0,0.8777249395459372,-1.5615997730770035,-0.07224781415859205,1747308.0,4.568660867711241,2.8560844571127655,0.1211867299150331,1781047.0,1793.805702620024,1790.271702620024,1827.544702620024
112,8,18,m,1,2,104.0,28,3,high,7 - 1 + 9 - 5 + 4,14,15,13,14,1803.433236600016,1805.4596304000588,1806.975496000028,1811.9939425999764,1812.471240299987,1812.47124600003,1813.987890299992,1815.0050852000716,e,14,0.4772977000102401,1,+10,539,-1.3625420306086582,0.7704444027744035,0.18697334960606504,1756941.0,2.7122952304793184,-1.3115452647428665,-0.3260680411961907,1760475.0,-30.397224541563467,0.23069731879709465,-0.4719364979209324,1936101.0,1806.972702620024,1803.438702620024,1982.5987026200241
113,8,18,m,1,2,105.0,29,1,high,5 + 6 + 1 + 1 + 1,14,16,14,15,1816.522107900004,1818.5457226000728,1820.060718000052,1825.0790942000456,1826.0312875000527,1826.0312927999769,1827.5485610000324,1828.5663351999829,w,14,0.9521933000069112,1,+10,549,22.131052231240673,-17.983455858961566,-0.8286288793388632,1770027.0,-10.43778758917257,-0.8237964035384344,0.20070870701836263,1773560.0,17.40567597681572,0.4138763191021262,-0.207815236990478,1794254.0,1820.057702620024,1816.524702620024,1840.751702620024
114,8,18,m,1,2,106.0,30,1,high,6 + 9 + 1 + 1 - 1,16,14,16,15,1830.0829312000424,1832.1058012000285,1833.621108200052,1838.6392048000123,1839.2392634999703,1839.2392686000092,1840.75559299998,1841.7727148999693,w,16,0.6000586999580264,1,+10,559,5.723769355291616,1.2571574924199043,0.9384019200276859,1783587.0,-31.55958803506016,-1.0415624242163997,0.17515748079432125,1787120.0,-12.642173555173978,-0.8545817406086726,0.044156888538340766,1807390.0,1833.617702620024,1830.084702620024,1853.8877026200241
115,8,18,m,1,2,107.0,31,1,high,7 + 1 + 4 + 1 - 1,12,12,11,13,1843.289773800061,1845.3165844000175,1846.831681100069,1851.8504544000607,1852.3751732000385,1852.3751782000763,1853.8919180000669,1854.9094361000464,q,12,0.5247187999775633,1,+10,569,19.287036450185287,-0.5711397855699278,-0.1783157764436023,1796798.0,13.756657454168945,-0.5793253975638386,0.12230564193321847,1800331.0,-5.726282667347163,-0.16485154000598445,0.7576744707812466,1949269.0,1846.828702620024,1843.295702620024,1995.766702620024
116,8,18,m,1,2,108.0,32,2,low,4 + 7 + 1 + 1 - 8,5,4,7,5,1856.4267575000413,1858.4534821000416,1859.96867089998,1864.9870417000493,1867.903260200052,1867.903265299974,1869.4195051999995,1870.436553700012,w,7,2.9162185000022878,0,+0,569,27.1727298567055,0.4006557157608883,-0.11809148213517418,1809934.0,-5.1465970440918944,-0.17849051397395055,-0.29441953951465116,1813468.0,-15.979237819067459,-2.3499340260269506,-0.11054621643129359,2096589.0,1859.965702620024,1856.431702620024,2143.086702620024
117,8,18,m,1,2,109.0,33,4,high,4 + 7 + 8 - 3 + 9,25,24,25,26,1871.9529023000505,1873.9807986000087,1875.496061700047,1880.5156442000296,1883.3433254000263,1883.3433305000651,1884.8595770000247,1885.876670100028,w,25,2.827681199996732,1,+10,579,5.99703790690417,-0.18564487542547425,0.14837528118993504,1825462.0,-3.3191271651060816,1.1964188674092338,-0.25253809714183006,1828996.0,44.9873983091107,0.08665123772346206,0.4462598656833219,1866429.0,1875.4937026200241,1871.959702620024,1912.9267026200241
118,8,18,m,1,2,110.0,34,4,high,9 + 4 - 6 + 8 + 7,22,21,24,22,1887.3933960000288,1889.4173845000328,1890.9327136999927,1895.950730200042,1897.6632170999656,1897.6632222000044,1899.179349299986,1900.1966130000076,e,22,1.7124868999235332,1,+10,589,-2.82245807028254,0.0008733058697583118,-0.04490653856995763,1840898.0,-5.191978417487473,-0.6343425320278673,-0.11336615232599634,1844432.0,24.806119184569802,-3.0858196150606814,-2.5439941687518193,1879565.0,1890.929702620024,1887.395702620024,1926.062702620024
119,8,18,m,1,2,111.0,35,4,low,3 + 9 - 4 + 7 + 6,21,21,19,20,1901.713065800024,1903.739098399994,1905.2544163999848,1910.2729262000648,1911.415218200069,1911.4152234999929,1912.9317410000367,1913.9483139000367,q,21,1.1422920000040904,1,+1,590,8.037758787553527,-1.919928342706016,0.4259263956159831,1855220.0,-6.269202819341027,0.6093081823656283,0.35505090558933183,1858754.0,-2.5892448628927065,2.3388934113607203,0.1605902530653731,1922950.0,1905.251702620024,1901.717702620024,1969.447702620024
120,8,18,m,1,2,112.0,36,4,low,4 + 8 + 9 - 3 + 7,25,24,26,25,1915.464669000008,1917.4885358000172,1919.0037880999732,1924.0222312000117,1924.551289699972,1924.5512949000115,1926.06769419997,1927.084727199981,e,25,0.5290584999602288,1,+1,591,-49.95643497532791,-1.4188898529314624,0.5066548312686265,1868969.0,8.313658686335351,-0.08334255754256414,0.11415954566613529,1872503.0,31.599945469587574,3.262236926063234,0.6340665258150615,1989357.0,1919.000702620024,1915.466702620024,2035.854702620024
121,8,18,m,1,2,113.0,37,3,high,2 + 9 + 1 - 5 + 7,14,12,15,14,1928.6013693000425,1930.627572200028,1932.1435183000283,1937.1617057999829,1937.7753607999769,1937.77536650002,1939.2919810999883,1940.309090900002,e,14,0.6136549999937415,1,+10,601,-36.53814814004777,-0.5718240632430325,0.18027817516587952,1882108.0,-14.285118874104535,-0.47132327079033676,-0.3609208756738873,1885643.0,-8.003174876672238,2.73471037697409,0.4838995542676008,1962637.0,1932.140702620024,1928.605702620024,2009.134702620024
122,8,18,m,1,3,114.0,0,4,high,7 + 6 - 4 + 9 - 5,13,14,13,12,1958.8833425000776,1960.9093069999944,1962.4243614000732,1967.4441956999945,1967.935228700051,1967.935233999975,1969.4522591000425,1970.4694020000752,w,13,0.4910330000566318,1,+10,611,1.8084882052247977,2.66815530491402,0.3668788415919657,1912390.0,13.169890023199585,-0.8923820354138625,-0.2995076369759495,1915925.0,-8.048025210358311,-1.4461796350925828,0.04044919070800379,2003493.0,1962.422702620024,1958.8877026200241,2049.990702620024
123,8,18,m,1,3,115.0,1,3,low,9 - 5 - 1 - 6 + 8,5,4,7,5,1971.9857447000688,1974.0123925000664,1975.52807260002,1980.546212400077,1981.087211200036,1981.087216400076,1982.6036842999747,1983.6206879999957,e,5,0.5409987999591976,1,+1,612,7.519259729988317,-8.37875500629891,0.033946604828393845,1925493.0,5.372655298269514,0.4069843727712108,-0.058594356332367425,1929027.0,-8.90539096921573,-5.951430556379991,-1.1296833098683052,2016660.0,1975.524702620024,1971.990702620024,2063.157702620024
124,8,18,m,1,3,116.0,2,1,high,6 + 9 + 1 + 1 - 1,16,15,14,16,1985.1374374000588,1987.1629844000563,1988.67824030004,1993.6962312000103,1994.2552680000665,1994.2552781000268,1995.7716692000397,1996.78904980002,e,16,0.5590368000557646,1,+10,622,18.140803222597835,1.799637377458871,-0.15728580707827788,1938643.0,19.272084779344656,-0.7310025850949007,0.06728553358123524,1942177.0,-16.832512202591,0.19055707498294172,0.23562204313812707,2043396.0,1988.674702620024,1985.140702620024,2089.8937026200238
125,8,18,m,1,3,117.0,3,3,low,2 + 9 - 3 + 4 + 1,13,11,14,13,1998.305427800049,2000.33331570006,2001.848501999979,2006.86678869999,2007.623257500003,2007.623262600042,2009.1398066000547,2010.1568052000368,e,13,0.7564688000129536,1,+1,623,-24.501083758883333,-6.036022263557301,-1.7036739905731526,1951813.0,8.847721825789652,-0.40622328104815164,0.2972629018387103,1955347.0,0.29692681244342367,2.0377780561732264,0.17440031360899333,2139661.0,2001.844702620024,1998.3107026200241,2186.158702620024
126,8,18,m,1,3,118.0,4,2,low,3 + 8 - 5 + 1 + 1,8,6,8,9,2011.673829799984,2013.7015143000756,2015.2166380999845,2020.2345144000135,2020.69521809998,2020.695222600014,2022.211424899986,2023.2282430999912,w,8,0.4607036999659613,1,+1,624,18.934363968936097,0.45377897115464805,-0.03235479181041079,1965182.0,-0.7383946601484315,-0.6779429629284417,0.0287272786384829,1968715.0,34.268014282026854,0.27463783633112193,-0.6233967129937543,2166108.0,2015.212702620024,2011.679702620024,2212.605702620024
127,8,18,m,1,3,119.0,5,4,high,3 + 9 - 5 + 6 + 8,21,23,22,21,2024.7450445999857,2026.7726473000369,2028.287824600004,2033.306992799975,2034.3433320000768,2034.3433372,2035.8600934999995,2036.8773772000568,e,21,1.0363392001017928,1,+10,634,8.982557175408651,0.7218965999084972,-0.14167735405793103,1978252.0,21.008999327346586,-0.4138831948045576,-0.17377016619650387,1981787.0,0.18204613879540155,-0.7689807683216179,-0.44062242766560544,2056669.0,2028.284702620024,2024.749702620024,2103.166702620024
128,8,18,m,1,3,120.0,6,4,low,8 + 4 - 5 + 7 - 6,8,6,8,7,2038.3940572000572,2040.4214526000435,2041.9364943000253,2046.954918900039,2048.4792947999667,2048.4793003000086,2049.995880600065,2051.012183999992,w,8,1.5243758999276906,1,+1,635,-24.22120199114744,-4.196369548341896,-1.8940392244811823,1991901.0,43.43070602279232,-0.9166396348524284,0.34070314734804175,1995435.0,16.266690721338527,-1.3971535158783137,-0.35545438101888394,2069853.0,2041.932702620024,2038.398702620024,2116.350702620024
129,8,18,m,1,3,121.0,7,3,high,4 + 7 + 1 + 9 - 5,16,16,18,17,2052.5289818000747,2054.5540886999806,2056.069280300057,2061.0890714999987,2061.647300300072,2061.647305499995,2063.163526499993,2064.180290200049,q,16,0.558228800073266,1,+10,645,7.717555189985953,-0.4228355117368636,0.42989192737108883,2006034.0,21.54607146479136,0.9462199324030989,0.0571357747345127,2009569.0,27.699330068081885,-1.409031997319131,-0.09068480187694128,2152836.0,2056.066702620024,2052.531702620024,2199.333702620024
130,8,18,m,1,3,122.0,8,2,high,3 + 9 + 1 - 5 + 1,9,7,9,8,2065.6967824000167,2067.7239951000083,2069.2388420000207,2074.256795100053,2074.727325499989,2074.727331000031,2076.243833000073,2077.2610052999808,w,9,0.4705303999362513,1,+10,655,-41.916569929617545,1.1397092265622977,0.5761944823963727,2019204.0,-8.919690720842869,0.5439092153151508,-0.059493015363219826,2022737.0,-11.701262039735944,1.9954428992972222,0.6974097915283561,2303388.0,2069.234702620024,2065.7017026200238,2349.885702620024
131,8,18,m,1,3,123.0,9,1,low,9 + 7 + 1 + 1 + 1,19,20,19,18,2078.777375000064,2080.804784200038,2082.319935800042,2087.3393796000164,2088.383388999966,2088.383394400007,2089.899730400066,2090.9170594000025,w,19,1.044009399949573,1,+1,656,-2.473118427118044,-1.1062711074363776,-0.036394977669422346,2032284.0,-4.33929910205995,0.2741584439325484,0.16347526383625155,2035819.0,-8.994729310945225,-6.998613812425203,-0.8676849586424318,2123972.0,2082.316702620024,2078.781702620024,2170.4697026200242
132,8,18,m,1,3,124.0,10,4,high,4 + 7 - 8 + 9 - 4,8,7,8,9,2092.433478299994,2094.461058599991,2095.9760058000684,2100.994517700048,2101.6554015000584,2101.655406699981,2103.172196600004,2104.189457500004,w,8,0.6608838000101969,1,+10,666,3.5978251394306326,-0.6734610005627619,0.1425968271054856,2045941.0,14.92687109084575,0.15714876244948783,2.0729347512425615,2049474.0,1.5778732192075076,2.2016784301643044,2.4026012572593896,2083188.0,2095.971702620024,2092.438702620024,2129.685702620024
133,8,18,m,1,3,125.0,11,4,low,3 + 9 - 5 + 8 - 7,8,9,7,8,2105.7065909999656,2107.7321226000786,2109.24726069998,2114.2672437999863,2114.839444500045,2114.8394494999666,2116.3569609000115,2117.374357599998,e,8,0.5722007000586018,1,+1,667,9.43334128764863,-1.3162809475239499,-0.09960924514902736,2059212.0,-10.614375699936584,-0.7621252983078399,0.13404541789629487,2062747.0,-14.928671385889746,-3.1086434928640445,0.338412858366377,2110796.0,2109.244702620024,2105.709702620024,2157.293702620024
134,8,18,m,1,3,126.0,12,4,low,5 + 7 - 4 + 8 + 6,22,22,24,23,2118.891054900014,2120.915912299999,2122.431043300079,2127.449870100012,2128.1757834000746,2128.175788499997,2129.692084599985,2130.708675200003,q,22,0.7259133000625297,1,+1,668,7.158155416367276,2.1275678386875754,-0.7534540175103146,2072395.0,7.15249710978925,0.9598657980875016,0.06603250222583856,2075929.0,28.03929406443722,-0.3528098186687991,-0.2393005092043463,2223787.0,2122.426702620024,2118.892702620024,2270.284702620024
135,8,18,m,1,3,127.0,13,2,high,2 + 9 - 4 + 1 + 1,9,9,8,11,2132.2257612000685,2134.253290600027,2135.768499800004,2140.786498500034,2141.575339599978,2141.5753445000155,2143.091734800022,2144.1092776000733,q,9,0.7888410999439657,1,+10,678,11.004554904216223,-1.6675956243435834,-0.6770535689531831,2085733.0,5.355357615860142,-1.5967524846841865,0.10764087320368354,2089266.0,-20.074651286708143,0.3550119620843457,-0.019310941128303227,2344651.0,2135.763702620024,2132.230702620024,2391.148702620024
136,8,18,m,1,3,128.0,14,4,low,4 + 7 + 9 - 5 + 7,22,24,23,22,2145.6263089000718,2147.6525199000025,2149.167722400045,2154.186390600051,2155.7833474000217,2155.78335240006,2157.299889200018,2158.3165001000743,e,22,1.5969567999709398,1,+1,679,12.70286482731419,1.706420059047975,0.13972031410377905,2099132.0,-23.371460842678964,-0.027331519686551786,-0.2232141190801631,2102666.0,-16.403876901296037,4.989072719905305,1.4366975566372702,2237188.0,2149.163702620024,2145.629702620024,2283.685702620024
137,8,18,m,1,3,129.0,15,1,high,4 + 1 + 1 + 7 - 1,12,14,12,13,2159.8328753999667,2161.8596321999794,2163.3747270000167,2168.393337900052,2168.959385300055,2168.9593900999757,2170.4758138000034,2171.492924400023,w,12,0.5660474000032991,1,+10,689,-10.855223044755204,0.7805821270335542,0.6993476469860944,2113339.0,-15.094292610594767,-0.43873943861120335,-0.012952230883779059,2116873.0,-45.01557786936971,1.089298304227711,0.42853129949371294,2194228.0,2163.370702620024,2159.836702620024,2240.725702620024
138,8,18,m,1,3,130.0,16,3,high,2 + 1 + 9 - 7 + 6,11,12,13,11,2173.0096517000347,2175.0343390000053,2176.5495205000043,2181.567777400021,2184.6474683000706,2184.6474731999915,2186.1643184999702,2187.181418300024,e,11,3.0796909000491723,1,+10,699,6.149985441947205,-7.720740333223212,-0.40117466852213823,2126514.0,12.355078633461101,0.009298708479700935,0.07214624545794379,2130047.0,24.52657175757349,-3.3536810232765673,0.41752004675544896,2208604.0,2176.544702620024,2173.011702620024,2255.101702620024
139,8,18,m,1,3,131.0,17,3,high,3 + 1 + 8 - 5 + 6,13,15,13,14,2188.697918000049,2190.719897900009,2192.235022800043,2197.2526919000084,2197.8233898000326,2197.823394600069,2199.3397758000065,2200.3576382000465,w,13,0.5706979000242427,1,+10,709,1.0898997260470082,-1.010454955290757,-0.3435955294512798,2142199.0,3.1429284961994632,0.935915227733676,-0.06429670713173863,2145732.0,-39.60478627131049,2.3738920509636445,4.760324768298021,2276963.0,2192.229702620024,2188.696702620024,2323.460702620024
140,8,18,m,1,3,132.0,18,2,low,2 + 1 + 9 - 4 + 1,9,11,8,9,2201.8742828000104,2203.902032100013,2205.417127200053,2210.434823799995,2211.095442400081,2211.0954476000043,2212.6121344000567,2213.6290096000303,e,9,0.660618600086309,1,+1,710,16.80946240522051,0.6237742304045995,-0.4118343688569226,2155381.0,1.6108683885647466,-0.7865798152389569,0.02922687569162008,2158914.0,3.196280561784168,1.3350546895917645,4.011627569320794,2469570.0,2205.4117026200242,2201.878702620024,2516.067702620024
141,8,18,m,1,3,133.0,19,2,high,6 + 1 + 8 + 5 - 1,19,19,17,18,2215.146317500039,2217.175121200038,2218.690286100027,2223.708420900046,2225.9273670000257,2225.9273718000622,2227.4437937000766,2228.460689199972,w,17,2.218946099979803,0,+0,710,10.77927406094598,-0.021948275346129975,-0.3890932235533189,2168654.0,19.32069283909189,-4.9036862983740575,-0.4356174651487894,2172187.0,24.403520346144695,-0.4017557536543075,0.1328739994237189,2551962.0,2218.684702620024,2215.151702620024,2598.459702620024
142,8,18,m,1,3,134.0,20,1,low,2 + 1 + 9 + 1 - 1,12,12,11,13,2229.9775212999666,2232.003715400002,2233.518757199985,2238.537643700023,2239.2154196000192,2239.215424800059,2240.731977700023,2241.748535700026,q,12,0.6777758999960497,1,+1,711,5.983396949674033,-4.063874282757286,-0.5098780136059577,2183483.0,2.9897508861807545,-3.602032344815047,-0.19465683939645473,2187016.0,-22.64308833707531,-1.362724954369689,-13.701018861813393,2400538.0,2233.513702620024,2229.980702620024,2447.035702620024
143,8,18,m,1,3,135.0,21,3,high,8 + 5 + 1 - 7 + 9,16,17,16,14,2243.265449300059,2245.291423900053,2246.806548899971,2251.824699399993,2253.591441800003,2253.5914471000438,2255.1079922000645,2256.125181999989,w,16,1.7667424000101164,1,+10,721,14.49542470084998,1.1388074654579707,0.2511471135098393,2196770.0,6.386733227925699,-0.2999586603902298,0.921053052045897,2200304.0,-27.850666044333014,-14.959590249045903,-1.0906727377379148,2290227.0,2246.801702620024,2243.267702620024,2336.724702620024
144,8,18,m,1,3,136.0,22,4,low,7 + 6 - 9 + 8 - 3,9,7,8,9,2257.641915000044,2259.669939000043,2261.185135400039,2266.204394100001,2268.7754899000283,2268.775495300069,2270.291957500041,2271.3087676999858,e,9,2.5710958000272512,1,+1,722,31.20953592439544,2.6342238920582055,4.095686376585379,2211149.0,31.998977303177284,1.406149248530122,-1.1737670775474172,2214683.0,5.614819628888231,-1.177339869910445,-0.16571266179632183,2250332.0,2261.180702620024,2257.646702620024,2296.829702620024
145,8,18,m,1,3,137.0,23,4,high,4 + 7 - 8 + 9 - 3,9,9,8,11,2272.825396500062,2274.851759099984,2276.3672925999854,2281.3856449000305,2282.1754928000737,2282.1754980999976,2283.692151800031,2284.709532800014,q,9,0.7898479000432417,1,+10,732,-28.018602983948927,4.1576155299493776,-1.1902723207436186,2226330.0,-10.974982421397069,-2.2171275725535624,-0.18195246788670438,2229865.0,17.674437943407508,4.028592032578244,6.222804817855078,2263851.0,2276.362702620024,2272.827702620024,2310.348702620024
146,8,18,m,1,3,138.0,24,4,high,3 + 8 - 7 + 9 - 5,8,7,9,8,2286.226407399983,2288.263074000017,2289.778201400069,2294.7968090000795,2295.3194353000727,2295.319440399995,2296.835885300068,2297.853120999993,e,8,0.522626299993135,1,+10,742,0.4157180416413562,5.746715809414974,0.7045907369116104,2239741.0,-50.73278561850679,-2.4157558127285723,3.15729474137604,2243275.0,9.116342948157232,1.2397876597723547,4.65068253188498,2744977.0,2289.772702620024,2286.238702620024,2791.474702620024
147,8,18,m,1,3,139.0,25,4,high,2 + 9 - 4 + 8 + 7,22,21,22,23,2299.370522200013,2301.3951746000675,2302.910343099968,2307.929279800039,2308.8394425000297,2308.839447500068,2310.355335799977,2311.372744000051,w,22,0.9101626999909058,1,+10,752,13.472794667545351,-0.4277300070790462,-0.11739059344059655,2252874.0,-11.083452502690633,1.088644683203042,-0.12573966412966797,2256407.0,23.66756019635867,-0.14145814342954122,-0.35650612093137646,2799410.0,2302.904702620024,2299.371702620024,2845.907702620024
148,8,18,m,1,3,140.0,26,3,low,2 + 1 + 9 - 5 + 6,13,13,14,11,2312.8900738999946,2314.9175437999656,2316.432869800017,2321.4509285000386,2321.9514926000265,2321.951497900067,2323.4676907999674,2324.4844036999857,q,13,0.5005640999879688,1,+1,753,-0.979762481324812,-8.790107342990623,-12.149452673581091,2266396.0,12.80747287551487,0.1719721872366824,0.37098466459854595,2269930.0,27.41890295775238,-0.1487679349793165,0.023638354008859608,2316595.0,2316.427702620024,2312.893702620024,2363.092702620024
149,8,18,m,1,3,141.0,27,3,low,9 - 1 + 5 - 6 + 8,15,17,15,14,2326.0013320000144,2328.026279999991,2329.5414136999752,2334.559784400044,2335.215500500053,2335.215505099972,2336.731957299984,2337.749381600064,w,15,0.6557161000091583,1,+1,754,-0.10946201708289749,0.27289103503488477,0.2527995449074556,2279505.0,-14.510598183634976,-75.02593506142985,-13.654722729262271,2283038.0,14.369556656616739,9.947272111726857,7.907380544539546,2359923.0,2329.535702620024,2326.002702620024,2406.420702620024
150,8,18,m,1,3,142.0,28,2,high,7 + 6 + 1 - 1 - 8,5,3,4,5,2339.2657965000253,2341.2924589000177,2342.807329299976,2347.82583039999,2348.3754423999926,2348.375447600032,2349.8922504000366,2350.909417500021,e,5,0.5496120000025257,1,+10,764,-31.871295046510795,5.879262290554964,5.277681981622058,2292771.0,-11.90943697770006,0.1435457912631355,-0.32144200703197257,2296304.0,0.8886903096713041,-2.9912188389975842,-0.18864882647859993,2619562.0,2342.801702620024,2339.268702620024,2666.059702620024
151,8,18,m,1,3,143.0,29,3,low,8 - 7 + 9 + 1 + 4,15,16,15,14,2352.426481100032,2354.4525129999965,2355.9674000000814,2360.987513900036,2361.5835638999706,2361.5835689000087,2363.1000907999696,2364.1170496999985,w,15,0.5960499999346212,1,+1,765,-7.157875736650309,-0.7782984210355677,-0.019968311059383126,2305931.0,8.725906567299965,0.5551090469319702,0.11281535817589017,2309466.0,-3.8836859494792675,0.029773446239578227,0.1555204656734901,2374315.0,2355.963702620024,2352.428702620024,2420.812702620024
152,8,18,m,1,3,144.0,30,4,low,7 + 8 - 4 + 6 - 5,12,13,11,12,2365.633259500028,2367.6603050000267,2369.175341799972,2374.194056999986,2376.3915522000752,2376.391557099996,2377.907862900058,2378.9246890000068,q,13,2.197495200089179,0,+0,765,12.231827828244398,-0.9169311845552457,-0.013351366878239901,2319139.0,11.588611981690875,-1.8694274927840322,-0.10879139236688395,2322672.0,10.145972508502897,0.9146600161060805,-0.1952072505907907,2867233.0,2369.169702620024,2365.636702620024,2913.730702620024
153,8,18,m,1,3,145.0,31,2,low,9 + 6 + 1 + 7 + 1,24,23,25,24,2380.441484000068,2382.4685293000657,2383.983663500054,2389.0026863999665,2389.6395929000573,2389.639597899979,2391.1558191999798,2392.1726353999693,e,24,0.6369065000908449,1,+1,766,9.753056390185874,-1.106602147523712,0.060393649555214424,2333947.0,-35.36379874000862,-1.4274816124144873,-1.2911715113493258,2337481.0,-3.6496913151327988,2.284610612633159,1.5513558894520738,2632693.0,2383.9787026200243,2380.444702620024,2679.1907026200242
154,8,18,m,1,3,146.0,32,3,high,8 + 6 - 7 + 1 - 4,4,4,5,3,2393.689447400044,2395.717528400012,2397.2326506000245,2402.2513161000097,2404.9116095000645,2404.9116142999846,2406.427851199988,2407.4448282000376,q,4,2.660293400054797,1,+10,776,9.575629921432018,8.319745866387352,1.0216117281791277,2347195.0,-16.06995527753282,-2.230347555942922,-14.957827984564709,2350730.0,-13.449872860474812,1.8402716426056784,0.23996846465792387,2387490.0,2397.227702620024,2393.692702620024,2433.987702620024
155,8,18,m,1,3,147.0,33,3,low,6 + 7 + 8 + 1 - 9,13,15,14,13,2408.9615165999858,2410.9837097000564,2412.497571400017,2417.516215800075,2419.303571700002,2419.3035770000424,2420.820451800013,2421.8370084000053,e,13,1.7873558999272063,1,+1,777,-22.475931441471026,-4.956391822504065,4.029701179789784,2362462.0,-5.318596336137128,-0.2880391912600695,0.10151265350669547,2365994.0,5.475355510148367,3.290748029023683,5.540538694236247,2427531.0,2412.491702620024,2408.959702620024,2474.028702620024
156,8,18,m,1,3,148.0,34,3,low,3 + 8 + 1 + 5 - 9,8,8,7,9,2423.353811700013,2425.376131800004,2426.8909026000183,2431.9089097999968,2432.4795500000478,2432.4795550999697,2433.995674900012,2435.0123928000685,q,8,0.5706402000505477,1,+1,778,5.637721857063557,0.6065651580341465,0.14599015809335292,2376854.0,2.8079002756902867,0.615065143864074,-0.10780085653272131,2380387.0,14.860423284697466,-1.359932734812153,-4.308714333031045,2456475.0,2426.884702620024,2423.351702620024,2502.972702620024
157,8,18,m,1,3,149.0,35,1,low,8 - 1 + 1 + 6 + 1,15,16,15,14,2436.5291550999973,2438.5563162000617,2440.0711484000785,2445.0889433000702,2445.5275411000475,2445.5275459999684,2447.043890699977,2448.060670500039,w,15,0.4385977999772876,1,+1,779,0.4322669291114174,-0.2856737426299105,-0.29922621213149725,2390034.0,-21.632025319588244,-1.825669843824631,1.863883562446711,2393567.0,-13.817850201908215,-0.872203904850231,-0.06792716395261955,2413635.0,2440.064702620024,2436.531702620024,2460.1327026200242
158,8,18,m,1,3,150.0,36,1,low,7 + 1 + 4 + 1 - 1,12,12,13,14,2449.5776497999905,2451.6019985000603,2453.11807159998,2458.1365102999844,2458.6235806000186,2458.623585500056,2460.140118099982,2461.156915400061,q,12,0.4870703000342473,1,+1,780,-36.427743844887644,-1.3922464989620913,0.15796608694300218,2403080.0,-21.572431923374598,-2.9690520839838017,0.14884316752951854,2406614.0,25.412210961995115,1.2613239566453336,-0.30333508718047675,2512402.0,2453.111702620024,2449.577702620024,2558.899702620024
159,8,18,m,1,3,151.0,37,3,high,5 + 7 + 1 - 4 + 6,15,17,15,13,2462.6745221000165,2464.700872000074,2466.216124700033,2471.234717100044,2472.519501300063,2472.5195071999915,2474.036284700036,2475.053569699987,w,15,1.2847842000192031,1,+10,790,1.4393282649846297,0.14105397515004547,0.19275413235299155,2416179.0,34.21707493378834,0.441682248844236,0.13954122259380775,2419712.0,-8.44501374166031,-1.1717193978726694,-0.13361700229702933,2498995.0,2466.209702620024,2462.676702620024,2545.492702620024
160,8,18,m,1,4,152.0,0,3,high,3 + 1 + 8 - 5 + 9,16,17,16,15,2491.003620899981,2493.028936100076,2494.544069500058,2499.5637611000566,2501.4636671000626,2501.4636723999865,2502.980175100034,2503.997447200003,w,16,1.8999060000060128,1,+10,800,18.71343884673288,1.5248883619477231,0.6550834946855346,2444507.0,-22.778808998792,-0.81233495113697,-0.35867882113087113,2448041.0,-15.161791191559331,-0.44623345244099344,0.3020630633434127,2566146.0,2494.538702620024,2491.004702620024,2612.643702620024
161,8,18,m,1,4,153.0,1,2,low,9 + 6 + 1 + 7 + 1,24,23,24,25,2505.514015599969,2507.539799900027,2509.054952400038,2514.072882200009,2514.559568800032,2514.55957380007,2516.075770700001,2517.092466100002,w,24,0.4866866000229493,1,+1,801,-0.7961711961203868,-1.0538483672062693,-0.2923007026067399,2459017.0,-3.5401445825370295,-1.1446114207431783,-1.9639454369475384,2462550.0,-44.81770897735825,-1.761095475019279,-0.21180285207402605,2646090.0,2509.047702620024,2505.514702620024,2692.587702620024
162,8,18,m,1,4,154.0,2,4,high,7 + 8 - 4 + 6 + 5,22,22,23,21,2518.609282899997,2520.6352130000014,2522.1504263000097,2527.1689806000795,2530.895583400037,2530.8955886000767,2532.411817800021,2533.4286737000803,w,23,3.726602799957618,0,+0,801,-21.095866491533013,-1.0910590312844803,0.584627424581134,2472113.0,14.555683754032719,0.7823861087331316,0.031304266778350964,2475647.0,9.753761304008867,-2.5297604989386206,0.32052884983036556,2934569.0,2522.144702620024,2518.610702620024,2981.066702620024
163,8,18,m,1,4,155.0,3,3,low,8 - 1 + 6 - 7 + 5,11,12,11,13,2534.9452483999776,2536.9692562000128,2538.484399100067,2543.5024882999714,2543.983854499995,2543.9838597000344,2545.500538200024,2546.51721020008,w,11,0.4813662000233307,1,+1,802,11.223689514844944,3.0067063874346136,5.013364439395964,2488446.0,1.1200404676334745,-0.5897362637153787,-0.21091727294527196,2491980.0,19.30067766111194,4.281044876058908,4.296050547049926,2592379.0,2538.477702620024,2534.943702620024,2638.876702620024
164,8,18,m,1,4,156.0,4,1,high,5 + 6 + 1 + 1 + 1,14,16,13,14,2548.0341229999904,2550.0582157999743,2551.5731731000124,2556.5905230999924,2557.391607100028,2557.391611900064,2558.907988699968,2559.925252099987,e,14,0.8010840000351891,1,+10,812,7.168808861881628,-0.8537039591570954,0.2156700937772804,2501535.0,-5.513420682578493,-0.2424150271747081,-0.09201058677191831,2505068.0,-4.250819570202957,3.2441284447555088,4.444420933807974,2525443.0,2551.5657026200242,2548.032702620024,2571.9407026200242
165,8,18,m,1,4,157.0,5,1,low,4 + 8 + 1 - 1 - 1,11,9,13,11,2561.44196950004,2563.4659072000068,2564.981061200029,2569.999145900016,2570.431565199978,2570.431570100016,2571.948948199977,2572.96584040008,e,11,0.4324192999629304,1,+1,813,-19.637805670832435,-0.4537699803201658,0.08307199589247993,2514943.0,-5.771083449563513,-1.4601643327407876,-0.3711511412371511,2518476.0,-17.83144761394616,-0.9143187976589093,0.23500030628027524,2579234.0,2564.973702620024,2561.4407026200242,2625.731702620024
166,8,18,m,1,4,158.0,6,4,low,8 + 7 - 4 + 5 + 9,25,24,25,26,2574.482580000069,2576.510587500059,2578.0258719000267,2583.044262600015,2583.751677399967,2583.7516826000065,2585.2681953000138,2586.2853524000384,e,26,0.7074147999519482,0,+0,813,8.551833466706722,4.5575997106672315,0.09203053900518121,2527988.0,-14.316750481756403,12.622301435192893,0.9335502644346647,2531521.0,29.010122272867534,2.7019454115900023,2.6500665718351577,2981512.0,2578.018702620024,2574.485702620024,3028.009702620024
167,8,18,m,1,4,159.0,7,2,low,2 + 9 + 1 + 1 - 5,8,7,8,6,2587.801753100008,2589.830108999973,2591.3453372999797,2596.3637633000035,2596.9516681999667,2596.951673500007,2598.4680344000226,2599.4850002999883,w,8,0.5879048999631777,1,+1,814,-7.505140199407121,1.6229441876514334,0.07749019714301753,2541307.0,9.128364079139766,-0.5436743013608947,0.3302994569541706,2544841.0,-7.220825876316072,-0.034411485686454135,0.07074642516097995,2659746.0,2591.338702620024,2587.804702620024,2706.243702620024
168,8,18,m,1,4,160.0,8,3,low,6 + 1 + 8 + 7 - 9,13,15,14,13,2601.0017493000487,2603.0280911000445,2604.543044800055,2609.563354599988,2611.1356832999736,2611.135689000017,2612.6521339999745,2613.668586099986,e,13,1.572328699985519,1,+1,815,-2.4278944061797234,2.503622987080906,-0.16742589915276263,2554505.0,-13.82973267252763,-0.3961717185254896,-0.1992046147429729,2558040.0,-4.1980934564115175,-0.610978187808608,-0.052912102845787956,2717938.0,2604.537702620024,2601.002702620024,2764.435702620024
169,8,18,m,1,4,161.0,9,1,low,8 + 1 + 1 - 1 - 4,5,6,5,3,2615.2461361000314,2617.277301799972,2618.792627900024,2623.8108876000624,2624.2236470000357,2624.223652100074,2625.7401376999915,2626.7574817000423,w,5,0.412759399972856,1,+1,816,-9.02917172903591,0.8979528437666167,-0.7869388244387654,2568754.0,-2.1342082021919673,-0.5964604235712283,0.40305242210665604,2572288.0,-0.23480769612611363,-5.790731764634737,6.291421041827965,2605890.0,2618.785702620024,2615.251702620024,2652.387702620024
170,8,18,m,1,4,162.0,10,3,high,4 + 8 - 3 + 5 - 1,13,13,12,14,2628.274263800005,2630.2994024000363,2631.8146186000668,2636.833046999993,2637.3676541000605,2637.3676593999844,2638.884722199989,2639.902235500049,q,13,0.5346071000676602,1,+10,826,-15.766156969656699,1.8281371074575334,0.4725533839810385,2581776.0,-6.7477479364508826,-0.08190853917889473,-0.02931777368405797,2585311.0,-30.882628572426697,2.8079315057088587,5.635669544880534,2731121.0,2631.808702620024,2628.273702620024,2777.618702620024
171,8,18,m,1,4,163.0,11,1,high,8 + 1 + 4 + 1 + 1,15,15,16,14,2641.4197748000734,2643.443417200004,2644.958501300076,2649.976344799972,2650.8797070999863,2650.8797121000243,2652.3961640000343,2653.4132592000533,q,15,0.9033623000141232,1,+10,836,-0.6841875901649495,-2.344228716421453,-5.229327119266626,2594921.0,-4.542723205059879,-0.5723295726324036,-0.01965108490206191,2598453.0,8.916103635761598,-3.456786174153528,-10.294827735774534,2690569.0,2644.950702620024,2641.418702620024,2737.066702620024
172,8,18,m,1,4,164.0,12,2,high,8 + 1 + 1 + 9 - 4,15,14,16,15,2654.9293660999974,2656.9550077000167,2658.4706426999765,2663.4888058999786,2664.551666000043,2664.551671099965,2666.0678674000083,2667.0851090999786,e,15,1.0628601000644269,1,+10,846,5.7469744352894345,-11.392219581347247,-0.10435189853023807,2608432.0,-12.570754716345302,-4.346298042844074,-7.0025162006388815,2611966.0,12.459464544133658,-1.5487064876633827,0.018794897749485173,2676801.0,2658.463702620024,2654.929702620024,2723.298702620024
173,8,18,m,1,4,165.0,13,2,high,5 + 1 + 7 - 6 + 1,8,7,8,6,2668.6018231000053,2670.62523980008,2672.1403579000616,2677.158525099978,2677.671761100064,2677.671766399988,2679.1883862999966,2680.216860100045,w,8,0.5132360000861809,1,+10,856,19.679225840128428,0.7483859336750234,0.2296392685247035,2622102.0,-9.518417774737907,-0.017268718749480882,0.040298408511501904,2625635.0,17.17126603418507,1.4975911602260004,0.3002335267046572,2704385.0,2672.1327026200242,2668.599702620024,2750.8827026200242
174,8,18,m,1,4,166.0,14,2,low,4 + 8 + 1 + 1 - 5,9,8,9,11,2681.73376079998,2683.7612541000126,2685.276521999971,2690.294481400051,2691.079933900037,2691.079939000076,2692.596248200047,2693.6131549000274,w,9,0.7854524999856949,1,+1,857,8.578144269234672,3.073160122062852,0.08601732861215972,2635238.0,-3.8944990885023145,-0.8484457649076589,-0.19737185150028758,2638771.0,-3.079628260027201,-0.6037945562422209,-0.08714651559659892,2772433.0,2685.268702620024,2681.735702620024,2818.930702620024
175,8,18,m,1,4,167.0,15,2,high,5 - 8 + 7 + 1 + 1,6,8,6,7,2695.1299182000803,2697.1587782000424,2698.6742665000493,2703.693153899978,2704.735818300047,2704.73582349997,2706.2522692000493,2707.2698770000134,w,6,1.042664400069043,1,+10,867,-5.765884906624356,-0.6453472023036033,-0.12959388245246473,2648635.0,-4.955433379230193,-2.962274790212655,-5.992768163245776,2652170.0,29.072547133637173,-0.98822520196304,0.1796583937634626,2786281.0,2698.667702620024,2695.1327026200242,2832.778702620024
176,8,18,m,1,4,168.0,16,2,low,6 + 1 + 8 + 7 - 1,21,21,19,23,2708.786476899986,2710.8145437000785,2712.3302888000617,2717.34829860006,2721.79178780003,2721.791792800068,2723.308245299966,2724.325201999978,q,21,4.4434891999699175,1,+1,868,16.256936330376448,0.1913226301908182,0.6352291357509898,2662291.0,8.697189931096839,0.20944328467691609,-0.044640542498331826,2665825.0,-0.5767082777483736,-0.4973659142055631,0.029232057453173255,2825569.0,2712.322702620024,2708.788702620024,2872.066702620024
177,8,18,m,1,4,169.0,17,1,low,5 + 1 + 1 + 6 + 1,14,16,13,14,2725.8415544000454,2727.866040199995,2729.380681400071,2734.398835800006,2735.559701799997,2735.559707100037,2737.0762399999658,2738.093134799972,e,14,1.1608659999910742,1,+1,869,28.638626801514622,-1.0232949020962492,-0.2835240961830774,2679342.0,4.785728081799862,0.21435403105601036,0.01125335905007141,2682875.0,8.886604985087398,1.630513812003822,0.3259494726707981,2838666.0,2729.372702620024,2725.839702620024,2885.163702620024
178,8,18,m,1,4,170.0,18,2,low,6 + 1 + 1 + 7 - 9,6,6,8,4,2739.6101212999783,2741.63793940004,2743.1534362999955,2748.172283200081,2749.375812600017,2749.3758177000564,2750.892233600025,2751.9087322000414,q,6,1.2035293999360874,1,+1,870,34.32063749470104,0.9760919562133932,0.45035490320679017,2693114.0,-6.628019787727098,-0.31832014564626565,-0.16147911816591787,2696648.0,18.000474398420362,-36.87224817418618,-3.7966430773762188,2851761.0,2743.145702620024,2739.611702620024,2898.258702620024
179,8,18,m,1,4,171.0,19,3,high,5 + 1 + 7 - 8 + 6,11,11,13,9,2753.4254290000536,2755.450848200009,2756.965964299976,2761.986219100072,2762.92776630004,2762.92777160008,2764.4442425000016,2765.4620307000587,q,11,0.9415471999673172,1,+10,880,10.249418469081608,-0.6617019600321115,-0.6911424707293641,2706927.0,28.962407541652134,0.46510169418596625,0.018321358042287628,2710462.0,14.97346505836215,1.4202445855170183,0.3354675066894206,2759265.0,2756.959702620024,2753.424702620024,2805.762702620024
180,8,18,m,1,4,172.0,20,3,high,4 + 5 - 3 + 7 - 1,12,13,12,11,2766.978732599993,2769.00358020002,2770.5187795000384,2775.538616099977,2776.111706900061,2776.1117119999835,2777.628216000041,2778.6451543000294,w,12,0.5730908000841737,1,+10,890,5.084189517636535,-1.3734696991050726,1.3473006428571637,2720480.0,-6.855521477013559,0.9243266284182887,-0.1683194605015892,2724015.0,19.765621468904904,0.24020301750463968,-0.07689453609473418,2812521.0,2770.512702620024,2766.977702620024,2859.018702620024
181,8,18,m,1,4,173.0,21,4,low,5 + 8 - 4 - 6 + 9,12,14,13,12,2780.161573600024,2782.187294100062,2783.7024742000503,2788.721171300044,2789.967724899994,2789.9677299000323,2791.4842477000784,2792.501172600081,e,12,1.2465535999508577,1,+1,891,15.292157535559264,9.191185285144321,-11.172468747977215,2733663.0,15.351623057579175,0.6020407765260103,0.021815876917587573,2737197.0,,,,,2783.694702620024,2780.160702620024,
182,8,18,m,1,4,174.0,22,3,low,8 + 4 + 1 - 7 + 9,15,15,13,16,2794.0183227000525,2796.047213000013,2797.5623784000054,2802.5807324000634,2804.2556854999857,2804.2556907000253,2805.7722632000223,2806.7891639000736,q,15,1.674953099922277,1,+1,892,17.54635212703945,1.226503735241896,1.1367419162660042,2747523.0,5.435701807899141,-6.35893480708943,-21.701766327582117,2751057.0,6.281692801037057,2.1199158663134057,0.787302626065749,2894032.0,2797.554702620024,2794.020702620024,2940.529702620024
183,8,18,m,1,4,175.0,23,2,high,3 - 1 + 9 - 5 + 1,7,6,5,7,2808.3055388000794,2810.330328800017,2811.845173900016,2816.878928399994,2817.42375070008,2817.4237556000007,2818.93995140004,2819.956974499976,e,7,0.5448223000857979,1,+10,902,-18.70965149530045,-1.631308750525931,0.09609508698861902,2761806.0,-13.028967724659708,0.9358571628734111,0.058995517172544254,2765355.0,1.1875120011837073,0.0009107995820505366,-0.19308773413101576,2880393.0,2811.852702620024,2808.303702620024,2926.890702620024
184,8,18,m,1,4,176.0,24,2,low,6 + 1 + 7 + 5 - 1,18,18,17,16,2821.473973400076,2823.5017277000006,2825.0169696999947,2830.036287300056,2831.2718597999774,2831.271864900016,2832.7884926999686,2833.80539860006,q,18,1.2355724999215454,1,+1,903,-17.31626007184046,-0.39116054868159367,0.0943834646295123,2774977.0,3.4588675367310735,-1.0073376065814275,-0.3075907525325263,2778511.0,19.476279093030982,-0.12978887253448512,0.024808367449601576,2907153.0,2825.008702620024,2821.474702620024,2953.650702620024
185,8,18,m,1,4,177.0,25,4,high,5 + 7 - 4 - 6 + 9,11,12,11,13,2835.369394600042,2837.395983500057,2838.910970899975,2843.929011599976,2844.3998164000222,2844.399821900064,2845.9163052000804,2846.9340148000047,w,11,0.4708048000466078,1,+10,913,-4.8122809699908835,8.753990184138384,0.13011070495967125,2788872.0,-8.978797959077909,0.1302282674846822,-3.1565871169558744,2792405.0,,,,,2838.9027026200242,2835.369702620024,
186,8,18,m,1,4,178.0,26,3,high,6 - 1 + 7 - 8 + 9,13,13,11,12,2848.4508302999893,2850.476448200061,2851.991760600009,2857.0103786999825,2857.5117595000197,2857.511764600058,2859.0282568000257,2860.0455506000435,q,13,0.5013808000367135,1,+10,923,30.011991302869387,-0.36992129313340794,0.2047252968380242,2801952.0,-9.940383570415687,-1.3601835886079936,-0.027897269040231265,2805486.0,,,,,2851.983702620024,2848.4497026200243,
187,8,18,m,1,4,179.0,27,2,low,8 + 1 + 9 + 1 - 5,14,14,13,15,2861.562271700008,2863.588275199989,2865.103386600036,2870.12139450002,2870.559770800057,2870.5597757999785,2872.076209300081,2873.092967999982,q,14,0.4383763000369072,1,+1,924,8.229560851650259,1.465638592136071,0.1474372525547043,2815064.0,-10.889021877201152,-0.21176750761310004,-0.02054938220449465,2818597.0,-0.7861969210276776,0.16868074937656363,0.6081827929329968,2947672.0,2865.0947026200242,2861.561702620024,2994.169702620024
188,8,18,m,1,4,180.0,28,1,high,5 + 9 - 1 + 1 + 1,15,15,13,17,2874.60988480004,2876.6388372000074,2878.1541157000465,2883.17240530008,2883.655774199986,2883.655779100023,2885.172478500055,2886.1911448000465,q,15,0.4833688999060541,1,+10,934,0.27040250444233926,-5.027096001593054,-0.2180314353526036,2828114.0,9.356686712558655,0.15613039893328207,-0.2812391093510005,2831648.0,9.287626630102324,-0.6540185195459349,-0.450115625172101,2960960.0,2878.145702620024,2874.611702620024,3007.457702620024
189,8,18,m,1,4,181.0,29,2,high,4 + 9 + 1 - 7 - 1,6,6,8,5,2887.7078196000075,2889.734164400026,2891.2493084999733,2896.267798200017,2896.751736500068,2896.7517414999893,2898.2682598000392,2899.2858482999727,q,6,0.4839383000507951,1,+10,944,16.47204385560562,1.4805582996548141,0.8098639717314313,2841209.0,8.494912815093727,-5.800658866163079,-0.008787205133273801,2844743.0,,,,,2891.240702620024,2887.706702620024,
190,8,18,m,1,4,182.0,30,4,low,4 + 7 + 8 - 3 + 9,25,26,24,25,2900.8021885000635,2902.826118499972,2904.3412899000105,2909.359625900048,2912.2238728000084,2912.2238783000503,2913.740396599984,2914.7571710000047,e,25,2.8642468999605626,1,+1,945,-18.12885514962234,-8.113640180970307,-1.3822702192593166,2854302.0,14.980826842407152,-0.9451797795394805,0.11910662454895515,2857835.0,,,,,2904.332702620024,2900.799702620024,
191,8,18,m,1,4,183.0,31,2,high,7 + 5 + 1 - 1 - 8,4,4,3,2,2916.273873200058,2918.3000202999683,2919.8154112000484,2924.833756900043,2925.383852800005,2925.383858400048,2926.8999693000223,2927.9171172999777,q,4,0.5500958999618888,1,+10,955,9.189659695037168,2.251707964057692,-0.1109672602509022,2869775.0,25.848213353928244,-0.5656428808220015,-0.478133925665043,2873309.0,,,,,2919.806702620024,2916.272702620024,
192,8,18,m,1,4,184.0,32,3,low,7 + 5 + 9 + 1 - 6,16,14,16,15,2929.433825800079,2931.4607172000688,2932.975853300072,2937.994363500038,2939.023761600023,2939.0237668000627,2940.53995970008,2941.5573885000776,w,16,1.0293980999849737,1,+1,956,-21.174773365140368,4.0511498707862375,1.586007784495413,2882936.0,4.932892900519434,-0.21771274063317492,0.355317184415858,2886470.0,,,,,2932.967702620024,2929.433702620024,
193,8,18,m,1,4,185.0,33,2,high,7 + 8 + 1 + 9 + 1,26,25,26,24,2943.0740501000546,2945.100648000021,2946.615962299984,2951.635659500025,2952.143764300039,2952.143772999989,2953.66025820002,2954.677250200068,w,26,0.5081048000138253,1,+10,966,-14.190985949092504,-0.16502699987794056,1.4144979276352014,2896576.0,12.051819284282512,0.1116478900412492,0.5160434782079513,2900111.0,,,,,2946.608702620024,2943.073702620024,
194,8,18,m,1,4,186.0,34,1,low,4 + 7 + 1 - 1 - 1,10,10,9,11,2956.1948057999834,2958.222488600062,2959.739046400064,2964.7581659000134,2966.543977900059,2966.5439842999917,2968.0600906000477,2969.077205999987,e,11,1.7858120000455528,0,+0,966,-8.613347146277997,2.4068115658452855,0.31046323906010187,2909698.0,-1.0150202319537822,-0.7979875402754368,0.21396186890640756,2913234.0,-26.683088055873423,-1.2416258995543012,-0.1995958014148691,2994656.0,2959.731702620024,2956.195702620024,3041.153702620024
195,8,18,m,1,4,187.0,35,4,high,7 + 6 - 9 + 8 - 3,9,9,8,7,2970.593820800073,2972.62188900006,2974.137021500035,2979.1571641999763,2979.5599177000117,2979.55992280005,2981.076319799992,2982.093537200009,q,9,0.4027535000350326,1,+10,976,0.4871488477639634,-1.4240425823554892,0.05107068399651027,2924097.0,19.37422398093919,0.10566682646545456,0.37930093566902734,2927632.0,,,,,2974.129702620024,2970.5947026200242,
196,8,18,m,1,4,188.0,36,2,low,4 + 8 + 1 + 1 - 6,8,7,8,9,2983.610433600028,2985.637526400038,2987.152709300048,2992.1715287000407,2992.6639563000062,2992.663961400045,2994.1804931000806,2995.1974182999693,w,8,0.4924275999655947,1,+1,977,16.47760782021722,-1.225600145742419,0.4561672290075851,2937113.0,-1.0412395018547347,-1.5701864650123207,-1.3433943491518523,2940646.0,,,,,2987.143702620024,2983.610702620024,
197,8,18,m,1,4,189.0,37,1,low,8 + 1 + 5 + 1 + 1,16,17,15,16,2996.7140545999864,2998.739328900003,3000.2544701000443,3005.273589699995,3005.9518927000463,3005.951897699968,3007.4682696000677,3008.4848643000005,e,16,0.6783030000515282,1,+1,978,-8.384333929526752,0.5385956242768017,0.1716071713880627,2950214.0,-6.3405871316720095,-0.6117456426078212,-0.4727470748757323,2953749.0,,,,,3000.246702620024,2996.711702620024,
198,8,18,m,1,5,190.0,0,4,low,3 + 8 - 4 + 9 + 6,22,23,22,21,3016.020041599986,3018.04581000004,3019.5610049000243,3024.5802827000152,3026.504074900062,3026.5040801999858,3028.0207324000075,3029.0375942999963,w,22,1.9237922000465917,1,+1,979,14.979219570963748,1.9280532377649129,2.4550477049730866,2969521.0,5.523787236250682,-0.4030620454957736,-0.8257321113206171,2973055.0,,,,,3019.552702620024,3016.018702620024,
199,8,18,m,1,5,191.0,1,1,high,2 + 9 + 1 + 1 + 1,14,14,12,13,3030.5542705999687,3032.5820681999903,3034.097458100063,3039.11635580007,3039.647934500012,3039.647939800052,3041.1644349000417,3042.1816545000765,q,14,0.5315786999417469,1,+10,989,-34.90759089624501,2.938715723759474,0.6196613479863746,2984056.0,-2.3540250955238085,0.5868866741927778,0.08535332358032122,2987591.0,,,,,3034.088702620024,3030.553702620024,
