,id,age,sex,cued,block,trial,trialinblock,efflev,rewlev,calc,corAns,option1,option2,option3,tstart,ITI1Time,probTime,respTime,selectTime,ITI2Time,fbTime,ITI3Time,key_press,chosenAns,RT,acc,feedback,total_points,cuescr,cuecor,cuezyg,cuetime,probscr,probcor,probzyg,probtime,fbscr,fbcor,fbzyg,fbtime,probtime_c,cuetime_c,fbtime_c
0,9,32,f,0,Practice,,0,1,0,4 + 1 + 9 + 1 + 1,16,16,15,14,66.36760269990191,,66.36760499991942,71.59742349991575,74.69218179991003,74.69218789995648,76.2094994999934,77.23230629996397,q,16.0,3.0947582999942824,1,Correct,0,,,,,16.94106361466676,-0.5054610170702918,0.6841328091900172,13310.0,17.868204093690373,0.2236018824867001,-0.19943290440750738,22945.0,66.58491229744402,,76.21991229744403
1,9,32,f,0,Practice,,1,1,0,3 + 1 + 1 + 8 - 1,12,12,10,11,78.7498379999306,,78.74984079995193,83.77271699998528,86.25222049991135,86.25222679995932,87.76910879998468,88.78695589990821,q,12.0,2.479503499926068,1,Correct,0,,,,,4.167499876733073,0.09400359625829768,-0.09578288074875063,25485.0,4.81281386905887,-0.14309244211829242,-0.087646051125009,34500.0,78.75991229744403,,87.77491229744402
2,9,32,f,0,Practice,,2,2,0,8 + 1 + 6 + 1 - 4,12,11,12,10,90.30485759989824,,90.30486409994774,95.32498529995792,99.24406709999312,99.24407319992316,100.76074369996786,101.77885509992484,w,12.0,3.919081800035201,1,Correct,0,,,,,-2.5770671304771735,-0.18699640222683023,-0.632744559415114,37038.0,-17.58463079636646,0.44741952386015527,0.2025943330161608,47491.0,90.31291229744403,,100.76591229744403
3,9,32,f,0,Practice,,3,2,0,9 + 4 - 6 + 1 - 1,7,6,7,5,103.29551999992692,,103.29552269994748,108.31465679989196,111.94018959999084,111.94019569992088,113.45687409990931,114.47583739995024,e,5.0,3.625532800098881,0,Incorrect,0,,,,,-1.2828378994732361,0.6001263992100783,0.0598286444722973,50027.0,0.02018017181873155,-0.17400375166885373,-0.0644278391940376,60188.0,103.30191229744403,,113.46291229744403
4,9,32,f,0,Practice,,4,3,0,9 + 3 - 5 + 6 + 7,20,21,20,22,115.99308729998302,,115.9930902000051,121.0137843999546,123.43619319994468,123.43619939999188,124.95315779990052,125.97047089994884,w,20.0,2.4224087999900803,1,Correct,0,,,,,17.248771307200094,0.4813394087238665,0.3866961385712193,62726.0,12.899400827579818,0.008167677057941969,1.0738256103779378,71683.0,116.00091229744402,,124.95791229744404
5,9,32,f,0,Practice,,5,3,0,2 + 1 + 9 - 7 + 6,11,9,10,11,127.48646949999966,,127.48647239990532,132.50731529993936,134.32424289989285,134.3242489999393,135.8411603999557,136.85944419994485,e,11.0,1.8169275999534875,1,Correct,0,,,,,-8.94138275061185,-1.2316689168855133,-6.522814224469377,74220.0,15.723084796293595,0.2584087019429848,0.12081681776627784,82572.0,127.49491229744402,,135.84691229744402
6,9,32,f,0,Practice,,6,4,0,4 + 8 + 5 - 3 + 7,21,21,22,23,138.37647199991625,,138.3764749999391,143.3981520999223,146.9642496999586,146.9642623999389,148.4811069999123,149.4993626999203,e,23.0,3.5660976000363007,0,Incorrect,0,,,,,-21.952680186198997,-0.3236429186622214,0.0015760106890714276,85109.0,5.659578333018864,-0.3237808828310542,-0.004302176332045438,95212.0,138.38391229744403,,148.48691229744404
7,9,32,f,0,Practice,,7,4,0,5 + 8 - 4 + 6 + 9,24,24,22,23,151.01665999996476,,151.01666269998532,156.0364746999694,158.2361241999315,158.23613049997948,159.752738299896,160.77076619991567,e,23.0,2.1996494999621063,0,Incorrect,0,,,,,-15.757520528927374,0.14895488711074778,-0.11297647991188153,97749.0,18.39739199702485,-0.6006068109042904,0.255112491357395,106483.0,151.023912297444,,159.75791229744402
8,9,32,f,1,0,0.0,0,3,high,9 + 3 - 4 + 6 + 7,21,21,23,22,343.15398809988983,345.2000849999022,346.71542499994393,351.74301219999325,354.99399579991587,354.994001199957,356.5101214000024,357.5270699999528,w,23.0,3.25098359992262,0,+0,0,28.385611853582333,-0.42083689833051086,-0.38638949909744236,289911.0,-7.705321280124535,-1.2450228846256364,0.24641117610608632,293454.0,-11.021188502951873,-0.21983342016899066,0.020749661086325144,303238.0,346.728912297444,343.185912297444,356.512912297444
9,9,32,f,1,0,1.0,1,3,high,6 - 1 + 7 - 8 + 9,13,12,13,11,359.0433270999929,361.06964559992775,362.5845466000028,367.60409349994734,369.3699201999698,369.3699250998907,370.8856530999765,371.9026535999728,w,13.0,1.765826700022444,1,+10,10,-45.19333639705929,-0.00028345841350319034,0.18228728965083985,305781.0,-16.396444219961833,0.10652089965216671,0.16969070380320428,309315.0,-19.13448186878725,0.5512887380355425,0.6472137662037056,469238.0,362.589912297444,359.055912297444,522.512912297444
10,9,32,f,1,0,2.0,2,2,high,5 + 8 + 1 - 1 + 9,22,23,22,21,373.4196424999973,375.45351809996646,376.9686510999454,381.9873954999493,387.0050324999029,387.0050349999219,388.52110729995184,389.5432075998978,,,,0,Too Slow!,10,-11.061379865945268,-0.5438796951658826,-0.23892219715342655,320165.0,4.37491950336357,-0.3367434377648735,0.11788438993056616,323698.0,-21.439405754234173,0.8696468001791162,-0.1578288254412974,335254.0,376.972912297444,373.43991229744404,388.52891229744404
11,9,32,f,1,0,3.0,3,2,low,8 + 1 + 1 + 9 - 4,15,15,16,14,391.0600398998941,393.1333067999221,394.6484644999728,399.6670359999407,401.0180165999336,401.01802199997474,402.5349070999073,403.5520900998963,q,15.0,1.3509805999929083,1,+1,11,-4.800604523203212,0.8320111174043183,3.162633460065595,337844.0,5.870665311371268,-0.488476676327505,-0.2941268813477915,341378.0,,,,,394.652912297444,391.118912297444,
12,9,32,f,1,0,4.0,4,4,low,4 + 9 - 7 + 8 + 5,19,19,21,20,405.06984949996695,407.1433714999585,408.65907279995736,413.67771819990594,415.6259927999927,415.6259980999166,417.14303979999386,418.160533499904,e,20.0,1.9482746000867337,0,+0,11,-2.8648066247831494,-0.028442375022684097,0.05630911489059898,351854.0,-18.235256055568378,0.08980357405754713,0.11467292413344543,355389.0,,,,,408.663912297444,405.128912297444,
13,9,32,f,1,0,5.0,5,4,low,8 + 4 + 7 - 5 - 6,8,7,8,9,419.6773821999086,421.69969179993495,423.214557499974,428.2333512000041,431.8099368999247,431.809941799962,433.3270517999772,434.3443447999889,w,8.0,3.5765856999205425,1,+1,12,5.320047421957101,0.43900655267502087,0.2586112816874859,366411.0,25.664528948840406,-0.05676527927108399,0.10522137147304633,369944.0,,,,,423.21891229744404,419.685912297444,
14,9,32,f,1,0,6.0,6,4,low,7 + 6 + 8 - 4 + 5,22,23,22,21,435.8604552999605,437.8851621999638,439.4003189998912,444.4200821999693,446.5059663999127,446.5059713999508,448.022379299975,449.0398941999301,e,21.0,2.085884199943393,0,+0,12,-2.5329991131924734,-0.9490412746304493,0.1901518939017266,382596.0,7.00878660665106,-0.7767749116984701,-0.3617071013366484,386131.0,,,,,439.405912297444,435.870912297444,
15,9,32,f,1,0,7.0,7,2,low,6 + 1 + 7 + 5 - 1,18,16,17,18,450.5572542999871,452.58500279998407,454.1004812999163,459.1194192999974,461.3140542999608,461.3140595000005,462.83037109998986,463.8478319999994,e,18.0,2.194634999963455,1,+1,13,-25.73746918720572,0.3745320636997693,0.18581005433243192,397296.0,-19.879817830994053,0.2722923751489974,0.07613172359291687,400830.0,,,,,454.104912297444,450.570912297444,
16,9,32,f,1,0,8.0,8,1,high,5 + 9 - 1 + 1 + 1,15,17,13,15,465.36509609990753,467.44191890000366,468.95693739992566,473.9750402999344,476.90594199998304,476.905946899904,478.4220133998897,479.438971699914,e,15.0,2.9309017000487074,1,+10,23,5.950711405787992,0.3317223508949003,-0.18504831989683046,412152.0,34.59993642582192,-0.4447756769532978,0.15724459190879658,415686.0,,,,,468.960912297444,465.426912297444,
17,9,32,f,1,0,9.0,9,1,high,6 + 9 + 1 + 1 - 1,16,16,15,14,480.9559596999316,482.9813987999223,484.4969648999395,489.5146631998941,490.9700298999669,490.9700350998901,492.4864872999024,493.5037848999491,q,16.0,1.4553667000727728,1,+10,33,-27.768459393693945,0.349953332665196,0.08418628902066727,427691.0,-40.55502608725929,-0.14528178378433054,-0.014842389357700991,431225.0,,,,,484.49991229744404,480.965912297444,
18,9,32,f,1,0,10.0,10,2,low,2 + 9 + 1 + 1 - 5,8,7,6,8,495.020785599947,497.0477206999203,498.5629834999563,503.58070459996816,506.5940678999759,506.59407329990063,508.1104453000007,509.1273801999632,e,8.0,3.013363300007768,1,+1,34,-5.508053935733704,0.40566847238311876,0.07288554495706334,441758.0,18.920713936442866,-0.26093306290432583,-0.18199958432577867,445291.0,,,,,498.565912297444,495.032912297444,
19,9,32,f,1,0,11.0,11,3,high,4 + 5 - 3 + 7 - 1,12,12,13,11,510.6440653000027,512.6711936999345,514.186104399967,519.2049864999717,520.9940853998996,520.9940905999392,522.5105936999898,523.5276038999436,e,11.0,1.7890988999279216,0,+0,34,-6.394117056014263,-0.3561700055907222,-0.18693632133476568,457381.0,0.4757689292136771,0.02103244899502421,-0.09267959706086915,460915.0,,,,,514.189912297444,510.655912297444,
20,9,32,f,1,0,12.0,12,3,high,2 - 4 + 9 + 7 + 1,15,16,13,15,525.0446008999133,527.0684009999968,528.583665199927,533.6020944999764,535.1700359999668,535.1700409000041,536.6865562999155,537.7040573999984,e,15.0,1.567941499990411,1,+10,44,-46.45588973626691,0.046685658124513196,0.04103097121229915,471779.0,-6.048089564999343,0.32705491466539094,-0.7305685590667808,475312.0,,,,,528.5869122974441,525.0539122974441,
21,9,32,f,1,0,13.0,13,2,high,3 + 8 - 5 + 1 + 1,8,9,6,8,539.2221905000042,541.2492094999179,542.7645196999656,547.782801699941,549.6420412999578,549.6420460999943,551.1584177999757,552.1756557999179,e,8.0,1.8592396000167355,1,+10,54,4.997608197956652,-0.7815571229134091,0.035237961877419455,485959.0,0.8577929156895401,-0.2986998859310388,0.03681877627500807,489493.0,,,,,542.767912297444,539.233912297444,
22,9,32,f,1,0,14.0,14,2,low,8 + 1 + 9 + 1 - 5,14,14,13,15,553.6929820999503,555.7192496999633,557.2344678998925,562.2535900999792,565.3460671999492,565.346072699991,566.8625965999672,567.8797915999312,w,13.0,3.092477099969983,0,+0,54,-13.119573184892289,0.5197003221199656,0.4995504887292952,500429.0,11.318319306030197,-1.2505034106583253,0.12584355685565773,503964.0,,,,,557.238912297444,553.703912297444,
23,9,32,f,1,0,15.0,15,3,low,3 + 1 + 8 - 5 + 9,16,17,16,15,569.3965044999495,571.4299116999609,572.9450498999795,577.9641167999944,580.0821217999328,580.0821268999716,581.5986534999683,582.6155455999542,w,16.0,2.118004999938421,1,+1,55,-0.42669172225850005,0.06613153397079863,-0.32311356525984536,516140.0,1.0118832618299884,-0.8817061896400196,-0.3026567665036888,519674.0,,,,,572.948912297444,569.4149122974441,
24,9,32,f,1,0,16.0,16,2,low,4 + 9 + 1 - 7 - 1,6,5,6,8,584.1326654999284,586.159490399994,587.6745274999412,592.6931622999255,594.1860824999167,594.1860927999951,595.7025008999044,596.7193812999176,w,6.0,1.4929201999912038,1,+1,56,0.9540741850586296,0.005484181187793702,0.10149878338613005,530869.0,3.2406399880835144,0.5207719689359709,0.10592257144085604,534403.0,,,,,587.6779122974441,584.1439122974441,
25,9,32,f,1,0,17.0,17,2,high,2 + 9 - 4 + 1 + 1,9,8,11,9,598.2360985999694,600.2610326999566,601.7761154999025,606.7955176999094,608.1461161999032,608.146121299942,609.6630445999326,610.679538999917,e,9.0,1.3505984999937937,1,+10,66,4.228153719405551,0.5561786412084255,0.242361067082431,544971.0,6.916419479837447,0.3995504148453124,-0.24812372163021745,548505.0,,,,,601.7799122974441,598.2459122974441,
26,9,32,f,1,0,18.0,18,1,low,5 + 1 + 1 + 9 + 1,17,17,19,16,612.1963806999847,614.22370829992,615.7389085999457,620.7570453999797,622.0180713000009,622.0180822999682,623.5343876999104,624.5513600999257,q,17.0,1.2610259000211954,1,+1,67,6.786733867240542,0.12073180880369527,-0.050821068102284706,558933.0,4.395468905910963,0.02757386690383523,-0.06047848554325297,562466.0,,,,,615.7409122974441,612.2079122974441,
27,9,32,f,1,0,19.0,19,2,high,8 + 1 + 4 - 7 + 1,7,6,7,5,626.0681307999184,628.0941254999489,629.6089654999087,634.628648999962,637.1461554999696,637.1461603998905,638.6628090000013,639.6799919999903,w,7.0,2.5175065000075847,1,+10,77,-1.8833907987831822,0.2631054269331443,0.09029649419913044,572804.0,-16.627890234527555,-0.19814360219555915,-0.012336970739506459,576339.0,,,,,629.6139122974441,626.078912297444,
28,9,32,f,1,0,20.0,20,1,low,6 + 1 + 1 + 7 - 1,14,14,12,13,641.1968043999514,643.2232455000049,644.7385242999298,649.7569385999814,650.8981976999203,650.8982033999637,652.4145907999482,653.4316215999424,q,14.0,1.1412590999389067,1,+1,78,-14.916772210110988,-0.05207249431077532,0.7677322777446518,587933.0,12.849088264375096,-0.135569226252648,-0.13780097960302173,591467.0,,,,,644.7419122974441,641.2079122974441,
29,9,32,f,1,0,21.0,21,4,low,9 + 7 - 5 + 8 + 6,25,27,24,25,654.9481947999448,656.9758538999595,658.4911232999293,663.5092641999945,664.9140982999234,664.9141029999591,666.4308209998999,667.4478312999709,e,25.0,1.4048340999288484,1,+1,79,14.169279296733029,0.2926082041497402,0.2520316193719352,601686.0,-40.06095094480379,0.19854561517200375,0.17304367235736962,605219.0,,,,,658.4939122974441,654.9609122974441,
30,9,32,f,1,0,22.0,22,2,high,4 + 9 - 7 + 1 - 1,6,5,6,8,668.9646480999654,670.9887042999035,672.5038386998931,677.5238460999681,678.722082799999,678.7220881999237,680.2385686999187,681.2558384999866,w,6.0,1.198236700030975,1,+10,89,42.61059880699793,0.5999069197545706,0.11678144292237169,615698.0,17.70344896098657,0.40900666663542484,-0.008440103070673555,619233.0,,,,,672.507912297444,668.972912297444,
31,9,32,f,1,0,23.0,23,1,high,8 + 1 + 4 + 1 + 1,15,14,16,15,682.7726034999359,684.7983941999264,686.3126258999109,691.330875899992,692.3701122999191,692.370117399958,693.8874061999377,694.9047537998995,e,15.0,1.0392363999271763,1,+10,99,3.4727111824809995,0.08102648494972442,0.06438051985187743,629508.0,-23.670700265394856,0.4726220346952852,-0.1204603896818317,633040.0,,,,,686.314912297444,682.7829122974441,
32,9,32,f,1,0,24.0,24,1,high,9 + 7 + 1 + 1 + 1,19,18,20,19,696.4211090999888,698.4444539999822,699.9594528999878,704.9786404999904,706.0421942999819,706.0421996999066,707.5586620999966,708.5759181999601,e,19.0,1.063553799991496,1,+10,109,6.560539805139564,0.13350877117519433,-0.06712035268592409,643154.0,-13.050069150822864,0.354886726938747,-0.10815839007083339,646688.0,,,,,699.9629122974441,696.4289122974441,
33,9,32,f,1,0,25.0,25,4,low,7 + 8 - 4 + 6 + 5,22,22,21,23,710.0925600999035,712.1192626999691,713.6340984998969,718.6525366998976,720.17827699997,720.1782820998924,721.694570499938,722.7115279999562,w,21.0,1.525740300072357,0,+0,109,2.6923210751653084,0.6874851420182999,-0.05922236675898507,656829.0,5.96013035415921,0.38655400418065966,-0.03559550207920159,660362.0,,,,,713.636912297444,710.103912297444,
34,9,32,f,1,0,26.0,26,1,high,8 + 1 + 1 + 1 - 3,8,8,9,6,724.2283631999744,726.255287899985,727.7704440999078,732.7875815998996,733.8741997999605,733.8742050000001,735.3906257998897,736.4078873998951,q,8.0,1.0866182000609117,1,+10,119,-20.83388652421576,1.3927642561419917,3.9099510414417424,670964.0,9.166320918206171,0.4551814014768878,-0.24956090508871442,674498.0,,,,,727.7729122974441,724.2389122974441,
35,9,32,f,1,0,27.0,27,2,low,6 + 1 + 1 + 8 - 9,7,9,5,7,737.9246959999437,739.9526477999752,741.4674875999335,746.4862566998927,747.64214729995,747.6421523999888,749.1586056998931,750.1753450999968,e,7.0,1.1558906000573188,1,+1,120,-2.1079825174965237,0.17303698384500388,0.010338371747137476,684662.0,-7.688023002864631,-0.10859874144567083,-0.17825033562093218,688195.0,,,,,741.4699122974441,737.9369122974441,
36,9,32,f,1,0,28.0,28,3,low,8 - 1 + 6 - 7 + 5,11,13,12,11,751.6917458999669,753.7185209000017,755.233552099904,760.251797099947,761.490200500004,761.4902053999249,763.006845499971,764.0241146999178,e,11.0,1.2384034000569957,1,+1,121,4.718681962404288,0.40856968028537244,0.24964047090543673,698428.0,30.540092274674556,0.07375535409413292,0.17867625610291338,701961.0,,,,,755.2359122974441,751.7029122974441,
37,9,32,f,1,0,29.0,29,3,low,8 + 5 + 1 - 7 + 9,16,14,17,16,765.5407896999968,767.5645175999962,769.0797721999697,774.0985241999151,775.1782215998974,775.1782265999354,776.6949667999288,777.7118129999144,e,16.0,1.0796973999822512,1,+1,122,16.41028191533995,-0.5591820985178222,0.11778708748108357,712274.0,15.033062493676994,-0.6906735524497631,-0.21737647209588307,715807.0,,,,,769.0819122974441,765.5489122974441,
38,9,32,f,1,0,30.0,30,2,high,3 - 1 + 9 - 5 + 1,7,5,6,7,779.2286328999326,781.2552499999292,782.7704026999418,787.7888826999115,788.7861444998998,788.7861495999387,790.3024476999417,791.3200560999103,e,7.0,0.9972617999883368,1,+10,132,30.947625878308482,0.28796337543097117,0.09674966129926732,725964.0,-9.829406736158042,-0.2608709243790752,-0.22866376667485344,729497.0,,,,,782.771912297444,779.2389122974441,
39,9,32,f,1,0,31.0,31,4,high,5 + 6 - 4 + 7 + 9,23,24,23,25,792.8364502999466,794.8696415999439,796.3847035999643,801.4036754999543,802.6501449999632,802.6501501000021,804.1671553999186,805.1848224999849,w,23.0,1.2464695000089705,1,+10,142,-11.733353180440176,-0.04765717344805598,-0.09990221590704307,739579.0,-6.624635871307859,-0.693566713215267,0.24048565699287083,743112.0,,,,,796.386912297444,792.853912297444,
40,9,32,f,1,0,32.0,32,3,low,6 + 1 + 8 + 7 - 9,13,13,14,15,806.701579399989,808.7263814999023,810.2415846999502,815.2604790999321,818.0022434999701,818.0022486998932,819.5187721999828,820.5365112998988,e,15.0,2.741764400037937,0,+0,142,-27.929490511747133,0.3140862605609831,0.004115126683872372,753435.0,-11.262482026578233,-0.43158925154923944,0.37120414996978,756969.0,,,,,810.2439122974441,806.709912297444,
41,9,32,f,1,0,33.0,33,4,low,8 + 3 - 4 + 5 + 9,21,22,23,21,822.053021300002,824.0798991000047,825.595011599944,830.6131463999627,831.7221869999776,831.7221921999007,833.2383820998948,834.2552227999549,e,21.0,1.1090406000148505,1,+1,143,-19.344417333956475,0.7774054992365724,0.21701941029850058,768789.0,-1.417095539199484,0.5211522746240131,-0.18391718821552727,772322.0,,,,,825.5969122974441,822.0639122974441,
42,9,32,f,1,0,34.0,34,4,high,5 + 7 - 4 - 6 + 9,11,12,11,13,835.7717881998979,837.7970309999073,839.3121960998978,844.3309765999438,846.2182722999714,846.2182775998954,847.7348944999976,848.7522298999829,e,13.0,1.8872957000276076,0,+0,143,-8.934343899424508,0.41566410135623766,-0.2886085864116148,782506.0,13.906169947656627,-0.2189833038647726,0.021300295813817982,786039.0,,,,,839.3139122974441,835.780912297444,
43,9,32,f,1,0,35.0,35,2,low,9 + 6 + 1 + 7 + 1,24,25,24,23,850.2691116998903,852.2970051999437,853.8118488999316,858.8294141999213,859.938247299986,859.9382524999091,861.4548616999527,862.4715849999338,w,24.0,1.1088331000646576,1,+1,144,12.077472221069023,-0.5027729510170884,-0.10063471122563605,797005.0,-13.345913605283835,0.26096231462027575,0.17429802099185654,800538.0,,,,,853.8129122974441,850.2799122974441,
44,9,32,f,1,0,36.0,36,1,low,7 + 1 + 6 + 1 + 1,16,18,17,16,863.9886963999597,866.0138253999176,867.5291203999659,872.5479886999819,873.6582772999536,873.6582820999902,875.174661399913,876.1915950999828,e,16.0,1.1102885999716818,1,+1,145,-0.03633327587658286,-0.01265825186498537,-0.11529718738606398,810722.0,32.3121263285238,0.18458570792527373,-0.14668922807842621,814256.0,,,,,867.530912297444,863.996912297444,
45,9,32,f,1,0,37.0,37,1,low,6 + 9 + 1 + 1 - 1,16,14,15,16,877.7081486999523,879.7337822999107,881.2488710999023,886.2673265999183,887.2981715999776,887.2981767999008,888.8145084999269,889.8318953999551,e,16.0,1.030845000059344,1,+1,146,9.160925929736763,-0.5686303901612915,-0.07011734109696777,824442.0,16.597457575310415,-0.12274956604066656,0.03691342048782653,827975.0,,,,,881.2499122974441,877.7169122974441,
46,9,32,f,1,1,38.0,0,3,high,5 - 1 - 4 + 6 + 7,13,13,15,14,917.5985141999554,919.6267742998898,921.1418467999902,926.1617312999442,927.3542999000056,927.3543050999288,928.8711971999146,929.8884793999604,q,13.0,1.1925686000613496,1,+10,156,7.917306229442315,-0.42595284553808543,0.19268437325141363,864335.0,4.091155539538313,0.6798291040911826,-0.6574363327862613,867870.0,,,,,921.1449122974441,917.6099122974441,
47,9,32,f,1,1,39.0,1,1,low,8 + 1 + 5 + 1 + 1,16,15,16,17,931.405209599994,933.4317222998944,934.9466599998996,939.9646808999825,941.1462371998932,941.1462420999304,942.662971999962,943.67987969995,w,16.0,1.1815562999108806,1,+1,157,20.88445618948508,0.1522767619446972,0.12529958805840602,878139.0,16.20473386229987,-0.10385333364680172,0.07644181200926115,881673.0,,,,,934.9479122974441,931.4139122974441,
48,9,32,f,1,1,40.0,2,3,low,5 + 6 - 4 - 1 + 7,13,14,15,13,945.1967517999,947.2201119998936,948.7346297999612,953.7534179999492,954.9222737998934,954.9222786999308,956.438155299984,957.4548992000056,e,13.0,1.16885579994414,1,+1,158,23.313421904835195,0.1859077391900259,0.023519746208111147,891928.0,28.6608085594332,0.6510968881906574,0.14981459730031155,895461.0,,,,,948.7359122974441,945.2029122974441,
49,9,32,f,1,1,41.0,3,1,low,2 + 9 + 1 + 1 + 1,14,14,12,13,958.971669999999,960.999160499894,962.5143578998976,967.5323716999264,968.298322699964,968.2983276000014,969.8149392999476,970.83180429996,q,14.0,0.7659510000376031,1,+1,159,-8.418479594485285,0.5718835955211254,0.07154199418080531,905707.0,0.5067657792634712,-0.20345309501198283,-0.012585651847094592,909240.0,,,,,962.5149122974441,958.9819122974441,
50,9,32,f,1,1,42.0,4,3,low,8 + 4 + 1 - 7 + 9,15,15,16,13,972.3477366999724,974.3739927998976,975.8891084999776,980.9075230999152,981.8427064999704,981.8427125999006,983.359323599958,984.3766992999008,w,16.0,0.9351834000553936,0,+0,159,-15.038808956473051,-0.06088943669552638,-0.004901472719271993,919082.0,4.280639557560752,-0.18912262506253175,-0.06889545418412002,922615.0,,,,,975.8899122974441,972.3569122974441,
51,9,32,f,1,1,43.0,5,1,high,6 + 9 + 1 + 1 - 1,16,14,15,16,985.893667700002,987.9156161999564,989.430377899902,994.4481114998924,995.1863688000012,995.1863738999236,996.7030234999256,997.7201229999772,e,16.0,0.7382573001086712,1,+10,169,30.491619915285284,1.677994623728842,4.945825254344797,932623.0,3.0419775126622715,-0.521241441160579,-0.2165280662918545,936156.0,,,,,989.430912297444,985.8979122974441,
52,9,32,f,1,1,44.0,6,3,low,7 + 5 + 9 + 1 - 6,16,14,16,15,999.2369684999576,1001.2584982999832,1002.7732678999892,1007.7918491999152,1008.5462405999424,1008.5462452999782,1010.0628675000044,1011.0800116999308,q,14.0,0.7543914000270888,0,+0,169,13.082609509417127,0.35146904938050083,0.1189070034901345,945966.0,-14.67457354533931,0.04707399717282579,-0.08509379361340486,949499.0,,,,,1002.7739122974441,999.2409122974441,
53,9,32,f,1,1,45.0,7,2,high,6 + 8 + 1 + 1 - 7,9,8,11,9,1012.5966245000018,1014.6235867999494,1016.1386234998936,1021.1569989999988,1021.9942807999904,1021.9942855999108,1023.5105542999228,1024.527769899927,e,9.0,0.8372817999916151,1,+10,179,1.5235008904556224,0.36341390456393663,0.011123419757967934,959331.0,23.69630496571266,0.6899532262859611,0.040711869827407376,962865.0,,,,,1016.1399122974441,1012.6059122974441,
54,9,32,f,1,1,46.0,8,1,low,8 + 1 + 1 - 1 - 4,5,3,6,5,1026.0445340999868,1028.0701317999046,1029.5852732999483,1034.603582099895,1035.3944603999844,1035.3944655999076,1036.9110170999777,1037.9281238999683,e,5.0,0.7908783000893891,1,+1,180,-14.502652714211742,0.22762635314129964,0.08101406321616267,972778.0,21.963907443266148,-0.08652324683395829,-0.10505816259851297,976311.0,,,,,1029.585912297444,1026.052912297444,
55,9,32,f,1,1,47.0,9,2,low,7 + 6 + 1 + 8 + 1,23,21,22,23,1039.4449081999485,1041.4697231999598,1042.9848575999497,1048.002865199931,1048.778338499949,1048.778343699989,1050.2946179999271,1051.311347399955,e,23.0,0.7754733000183478,1,+1,181,-31.254038972281712,-0.21422374382141118,-0.07353661848520865,986177.0,-26.486242041650836,-0.24530454994390638,-0.15092487825308654,989710.0,,,,,1042.984912297444,1039.451912297444,
56,9,32,f,1,1,48.0,10,1,low,2 + 1 + 9 + 1 - 1,12,12,13,11,1052.8285641999682,1054.8566553998971,1056.371776499902,1061.389767799992,1062.0583424998913,1062.0583473999286,1063.574731899891,1064.5915644998895,q,12.0,0.6685746998991817,1,+1,182,5.141263754955199,0.33489005146120876,-0.14595796765836466,999563.0,4.143465714760763,0.19636788231074576,0.2700363022854302,1003097.0,,,,,1056.371912297444,1052.837912297444,
57,9,32,f,1,1,49.0,11,4,low,7 + 6 - 4 + 9 - 5,13,13,12,14,1066.1082982999503,1068.1344925999874,1069.6495940999594,1074.669630899909,1075.2904329999585,1075.2904383999994,1076.8069461999694,1077.8241634999868,q,13.0,0.6208021000493318,1,+1,183,8.969743419551335,0.07249483969570925,-0.1361424064956327,1012842.0,-18.786790302977316,0.15526652207804936,0.09276735587316631,1016377.0,,,,,1069.651912297444,1066.116912297444,
58,9,32,f,1,1,50.0,12,1,high,4 + 8 + 1 - 1 - 1,11,13,11,9,1079.340845800005,1081.3677121999208,1082.8828122999985,1087.9009445999982,1088.658535699942,1088.6585408999815,1090.1747362999013,1091.191943499958,w,11.0,0.7575910999439657,1,+10,193,0.15455865031963612,0.33349739711457627,0.16799243470492642,1026075.0,31.777145694396378,-0.6142891681968545,-0.05401338261785549,1029608.0,,,,,1082.882912297444,1079.349912297444,
59,9,32,f,1,1,51.0,13,1,high,6 + 1 + 8 + 1 - 1,15,13,15,14,1092.7085171999645,1094.7318126999307,1096.2467657999368,1101.2654401999898,1101.8743914999068,1101.8743967999471,1103.3907879999606,1104.409421499935,w,15.0,0.6089512999169528,1,+10,203,59.034849848516906,0.3430162059770998,-0.18812102418173327,1039439.0,-5.1121739271636315,-0.06885567857665897,0.15964608592865215,1042972.0,,,,,1096.246912297444,1092.713912297444,
60,9,32,f,1,1,52.0,14,2,low,6 + 1 + 8 + 5 - 1,19,17,18,19,1105.9259928999236,1107.9498533000003,1109.464672799921,1114.4827920999378,1115.082387499977,1115.0823923998978,1116.5984205999412,1117.615107599995,e,19.0,0.5995954000391066,1,+1,204,4.896990490372517,0.32665799107110427,0.02132445489800716,1052657.0,5.5245996163354825,0.23603593117021404,0.004419854993417793,1056190.0,,,,,1109.464912297444,1105.931912297444,
61,9,32,f,1,1,53.0,15,1,high,5 + 8 - 1 + 1 + 1,14,12,14,16,1119.1320999999298,1121.158200099948,1122.6730120999273,1127.6911736999173,1128.3624669999117,1128.3624720999503,1129.8796804999,1130.897386299912,w,14.0,0.6712932999944314,1,+10,214,13.140122449671562,0.006873956072957377,-0.11937055661970142,1065865.0,15.479918788889579,-0.5147836110052775,0.20673373287050834,1069398.0,,,,,1122.6729122974439,1119.139912297444,
62,9,32,f,1,1,54.0,16,4,low,5 + 8 - 4 - 6 + 9,12,13,14,12,1132.4137818999588,1134.4394850999815,1135.9537326999707,1140.9720187999774,1142.346436199965,1142.3464416998904,1143.862736399984,1144.8795643999474,e,12.0,1.3744173999875784,1,+1,215,-13.93677874889266,0.13750991236616095,0.06946095789438766,1079146.0,-16.82838470059639,-0.22262333738610796,-0.04005706747078941,1082679.0,,,,,1135.953912297444,1132.420912297444,
63,9,32,f,1,1,55.0,17,2,high,6 + 1 + 7 - 8 - 1,5,4,7,5,1146.396293799975,1148.4207879999883,1149.935981299961,1154.9544473999413,1155.642450199928,1155.6424555999693,1157.158848799998,1158.1762407999486,e,5.0,0.6880027999868616,1,+10,225,20.87370397372206,0.37572216290941673,-0.6429426506221709,1093128.0,-11.609260416126837,-0.4604506794079555,0.17127458704502474,1096661.0,,,,,1149.935912297444,1146.402912297444,
64,9,32,f,1,1,56.0,18,1,high,7 + 1 + 5 + 1 - 1,13,13,12,14,1159.6933228999842,1161.7210078999633,1163.2361887999575,1168.2540795999812,1168.890451299958,1168.8904564999975,1170.4068532999372,1171.423639799934,q,13.0,0.6363716999767348,1,+10,235,-24.650444598308354,0.0369463801897183,-0.008381241759687352,1106428.0,7.740261545753919,0.09619421075487189,0.25991535708933156,1109961.0,,,,,1163.235912297444,1159.702912297444,
65,9,32,f,1,1,57.0,19,4,high,6 + 7 + 9 - 3 + 5,24,22,23,24,1172.9402915999526,1174.9651523999637,1176.480389199918,1181.49896779994,1182.2584634999512,1182.2584688999923,1183.7749785999767,1184.7924691999797,e,24.0,0.7594957000110298,1,+10,245,1.4741126002829859,-0.44058406817607754,0.1701662133604287,1119672.0,23.332592600364265,0.2132337763691492,-0.07488665096839364,1123206.0,,,,,1176.4809122974439,1172.946912297444,
66,9,32,f,1,1,58.0,20,3,high,7 - 1 + 8 - 6 + 4,12,13,12,11,1186.3242450999096,1188.3491759999888,1189.8643161999062,1194.8830620999215,1195.6345530999824,1195.6345584999071,1197.1510645999806,1198.1684547999175,w,12.0,0.7514910000609234,1,+10,255,20.864637865499578,-0.4173677525798647,-0.36979050329883734,1133056.0,-9.959662760657046,0.706297741494998,0.373577452091419,1136590.0,,,,,1189.8649122974439,1186.330912297444,
67,9,32,f,1,1,59.0,21,2,high,9 + 1 + 6 + 7 + 1,24,25,23,24,1199.6853792999173,1201.713239799952,1203.2282783999108,1208.246392400004,1209.7064011999173,1209.7064065999584,1211.2227241999935,1212.239957599901,e,24.0,1.460008799913339,1,+10,265,4.643734131698228,0.07056764026666329,2.210144048808049,1146420.0,5.2174606990081855,0.49337655118980805,-0.1722841160784645,1149953.0,,,,,1203.227912297444,1199.694912297444,
68,9,32,f,1,1,60.0,22,3,low,7 - 6 + 8 + 1 + 7,17,15,17,16,1213.756690399954,1215.783762399922,1217.2988677999238,1222.3188585999887,1223.2265438999748,1223.226549499901,1224.7436555000022,1225.7609896999784,e,16.0,0.907685299986042,0,+0,265,7.440804694607149,0.710250960548251,-0.12426817437214455,1160490.0,3.7145304958970726,0.028880264439867798,0.04881640567142509,1164025.0,,,,,1217.299912297444,1213.764912297444,
69,9,32,f,1,1,61.0,23,1,low,3 + 1 + 9 + 1 + 1,15,14,15,17,1227.2777115999488,1229.304786899942,1230.8199191999156,1235.8377277998952,1236.4104226999916,1236.4104278999148,1237.9264006000012,1238.9431753999088,w,15.0,0.5726949000963941,1,+1,266,5.688156241893948,0.35441404442699564,0.20146843425063876,1174011.0,32.77817258616611,-0.12132723651322941,-0.2243633262698297,1177544.0,,,,,1230.818912297444,1227.285912297444,
70,9,32,f,1,1,62.0,24,2,low,3 + 9 - 1 - 5 + 1,7,6,7,5,1240.4599417999852,1242.486418299959,1244.001525699976,1249.0208251998993,1249.458520299988,1249.4585255999118,1250.9748194999993,1251.991686699912,w,7.0,0.4376951000886038,1,+1,267,0.7576880254950193,-0.28114559908060777,0.037097053801113056,1187193.0,13.617354012531521,0.2217040400507,0.04965928593231261,1190727.0,,,,,1244.001912297444,1240.467912297444,
71,9,32,f,1,1,63.0,25,2,low,8 + 1 + 9 + 1 - 4,15,15,16,14,1253.5084054999752,1255.5327103999443,1257.0482889999405,1262.0663395999,1262.690510299988,1262.690515599912,1264.2070895999204,1265.223741899943,q,15.0,0.6241707000881433,1,+1,268,19.423989481503035,-0.37933508539211847,-0.1325811884621848,1200239.0,26.57903819882899,-0.12380153106007441,-0.09193181280496598,1203772.0,,,,,1257.046912297444,1253.513912297444,
72,9,32,f,1,1,64.0,26,4,low,9 + 3 - 5 + 8 + 6,21,23,19,21,1266.7406758998986,1268.7674866999732,1270.28269189992,1275.3009637999348,1276.8104149999565,1276.8104202999966,1278.3267092999304,1279.3439906999702,q,23.0,1.5094512000214309,0,+0,268,9.017765751358978,0.0859881595879104,0.0013154349714743496,1213474.0,-60.08942285763655,-0.20305593110725972,0.043751762919037596,1217007.0,,,,,1270.281912297444,1266.748912297444,
73,9,32,f,1,1,65.0,27,4,low,8 + 4 + 7 - 5 - 6,8,8,6,9,1280.8608492999338,1282.8847022999544,1284.4003187998896,1289.4185386999743,1291.2505435999483,1291.2505484999856,1292.767066299915,1293.7842911999903,w,6.0,1.832004899973981,0,+0,268,27.31958674434835,1.1382657589944722,2.0294392303452424,1227591.0,-15.252145344671431,0.1872677789780468,-0.2061991630067901,1231125.0,,,,,1284.399912297444,1280.8659122974439,
74,9,32,f,1,1,66.0,28,3,low,4 + 7 - 3 + 5 - 1,12,13,11,12,1295.301335099968,1297.3281631999416,1298.8432620998938,1303.8614441999234,1304.5704724999378,1304.5704778999789,1306.0870458999416,1307.1039344999008,e,12.0,0.7090283000143245,1,+1,269,16.48948536938707,0.2663626790748719,-0.091854405908943,1242034.0,-13.729897974767105,0.3500749292232834,-0.29487914011473393,1245568.0,,,,,1298.842912297444,1295.308912297444,
75,9,32,f,1,1,67.0,29,2,high,7 + 5 + 1 + 9 + 1,23,23,22,21,1308.6206849999726,1310.6471506999806,1312.1622585000005,1317.1801829999313,1317.8425664999522,1317.8425713999895,1319.3591158000054,1320.3761655999117,q,23.0,0.662383500020951,1,+10,279,-0.30288283313631936,-0.3844011623597545,-0.15883372084933844,1255354.0,19.738654876511323,0.3018857125606731,0.238515766402422,1258886.0,,,,,1312.160912297444,1308.628912297444,
76,9,32,f,1,1,68.0,30,4,high,2 + 5 - 3 + 9 + 8,21,21,19,22,1321.9047851999055,1323.9322720998898,1325.447468900005,1330.465712999925,1332.0745445999785,1332.0745498999022,1333.5909670999972,1334.6088334999513,e,22.0,1.608831600053236,0,+0,279,34.689370965770046,0.12011343750797643,-0.004992335945662951,1268638.0,-33.434241953768954,-0.31564748919685925,0.06429455061984468,1272171.0,,,,,1325.445912297444,1321.9129122974439,
77,9,32,f,1,1,69.0,31,2,high,2 + 1 + 9 - 4 + 1,9,9,8,11,1336.1258483999409,1338.1534287999384,1339.6682773999637,1344.68617729994,1346.474568799953,1346.4745742999949,1347.9909230999183,1349.00795619993,q,9.0,1.788391500012949,1,+10,289,33.86743166394117,-0.46030703108399784,-0.017272626465401952,1282859.0,-35.03428021012907,0.35236293554577713,0.022599823563962174,1286392.0,,,,,1339.666912297444,1336.1339122974439,
78,9,32,f,1,1,70.0,32,4,high,3 + 8 - 4 + 9 + 7,23,23,24,22,1350.5248775999062,1352.550971299992,1354.0660359999165,1359.0843566999538,1360.9944802999962,1360.9944850999163,1362.5110617999453,1363.5282782999566,w,24.0,1.910123600042425,0,+0,289,12.471638217348413,0.26622970013065306,-0.03906152604673574,1297257.0,24.029719318135363,0.612454831704059,0.14407353630951114,1300790.0,,,,,1354.064912297444,1350.531912297444,
79,9,32,f,1,1,71.0,33,4,high,6 + 5 - 7 + 8 - 9,3,5,4,3,1365.044952799915,1367.0691701999167,1368.584296099958,1373.6029779999517,1374.38647519995,1374.3864800999872,1375.9269688999048,1376.944310199935,w,4.0,0.7834971999982372,0,+0,289,-22.606826998843534,-0.20768427047439353,0.2412353361764037,1311775.0,-23.44805905689062,0.10753972875345053,0.08521369816409141,1315309.0,,,,,1368.583912297444,1365.049912297444,
80,9,32,f,1,1,72.0,34,2,low,5 - 1 + 1 + 8 + 9,22,22,23,21,1378.460940699908,1380.4879395999014,1382.0030658999458,1387.0216948000016,1387.5785512999864,1387.5785568999129,1389.0948034999892,1390.1116679999975,q,22.0,0.5568564999848604,1,+1,290,-16.455581736380495,-0.3952738906598485,0.08597626318566487,1325194.0,-37.954994996247514,-0.13820072350311552,-0.26711382235890824,1328727.0,,,,,1382.001912297444,1378.468912297444,
81,9,32,f,1,1,73.0,35,3,low,6 + 7 + 8 + 1 - 9,13,13,15,14,1391.6283203999046,1393.6567726999056,1395.1719334999798,1400.1904390999116,1400.7625910999486,1400.7625962999882,1402.2791214999745,1403.296778399963,q,13.0,0.5721520000370219,1,+1,291,45.803001071190565,0.21489398809827698,-0.12858665495026966,1338361.0,40.19100886906043,0.17093734550546902,0.017594113042697312,1341896.0,,,,,1395.170912297444,1391.635912297444,
82,9,32,f,1,1,74.0,36,2,low,6 + 1 + 8 + 7 - 1,21,19,21,23,1404.813105099951,1406.840657099965,1408.3556471999036,1413.37433339993,1414.7145969999256,1414.7146021999652,1416.2312769999262,1417.2485399999423,e,23.0,1.3402635999955237,0,+0,291,19.000761090653466,0.4429118392079472,0.06340392486932434,1351546.0,-32.09928968321488,0.3468875686734352,-0.12423830854362494,1355079.0,,,,,1408.353912297444,1404.820912297444,
83,9,32,f,1,1,75.0,37,3,high,3 + 8 - 7 + 1 + 9,14,14,12,13,1418.765600399929,1420.7921209998894,1422.3070825999605,1427.3592061999952,1427.970600200002,1427.9706052999245,1429.4870127999457,1430.504226199933,q,14.0,0.6113940000068396,1,+10,301,39.159426541483505,0.6998494250725056,0.6870386131814454,1365497.0,-52.673629064760895,0.29984898701292906,-0.02745436582566385,1369064.0,,,,,1422.338912297444,1418.771912297444,
84,9,32,f,1,2,76.0,0,1,high,7 - 1 + 1 + 9 - 1,15,13,14,15,1450.17445089994,1452.1998524999944,1453.714645299944,1458.7344575999305,1459.4026359999552,1459.4026411999948,1460.9190520999257,1461.936468299944,e,15.0,0.6681784000247717,1,+10,311,1.7251101889169487,-0.22109786731886727,0.1083891824535439,1396905.0,8.85111609330918,0.2649701545160603,0.08582838087493228,1400440.0,,,,,1453.714912297444,1450.179912297444,
85,9,32,f,1,2,77.0,1,1,low,6 + 1 + 8 + 1 + 1,17,15,17,16,1463.4533659999724,1465.4805839000037,1466.9956990999635,1472.0136642999714,1472.6266173999757,1472.6266226998996,1474.1423313999549,1475.158445799956,w,17.0,0.6129531000042334,1,+1,312,39.35309086213583,-0.22553228470445763,0.13381316138438581,1410186.0,12.64387503562526,0.6009222603973399,-0.24331981904097,1413719.0,,,,,1466.993912297444,1463.4609122974439,
86,9,32,f,1,2,78.0,2,4,high,6 + 9 + 7 - 3 - 5,14,13,14,15,1476.6755639999174,1478.704192699981,1480.2193177998995,1485.2377016999526,1485.8105677999556,1485.810572699993,1487.327068499988,1488.3442452999298,w,14.0,0.5728661000030115,1,+10,322,8.45003510427149,-0.14078600425261723,0.07586042650555913,1423409.0,6.890688251840173,0.22690964687887494,0.21495926550492284,1426943.0,,,,,1480.217912297444,1476.683912297444,
87,9,32,f,1,2,79.0,3,2,high,5 + 9 - 8 + 1 + 1,8,9,7,8,1489.8610633999342,1491.8876779999118,1493.402946199989,1498.4211641999427,1499.0985978998942,1499.0986027999315,1500.614986899891,1501.6322526999284,e,8.0,0.6774336999515072,1,+10,332,34.38966726333565,0.4408447958555568,0.12488011582222058,1436593.0,29.18819761800568,0.5787572886437289,0.11544185372403759,1440126.0,,,,,1493.400912297444,1489.867912297444,
88,9,32,f,1,2,80.0,4,3,low,5 + 1 + 7 - 8 + 6,11,13,11,9,1503.162654499989,1505.1896167999366,1506.7046469999475,1511.7233676000033,1512.5546772999223,1512.5546827999642,1514.0710205999203,1515.0883370999943,w,11.0,0.8313096999190748,1,+1,333,-11.729131834134371,0.1645364167008383,-0.15130945568029963,1449894.0,0.3178116055456961,-0.138474759440391,-0.03284565214888291,1453428.0,,,,,1506.702912297444,1503.168912297444,
89,9,32,f,1,2,81.0,5,4,high,4 + 8 + 9 - 3 + 7,25,26,24,25,1516.6050664999057,1518.6290694999043,1520.1441774999255,1525.1626529999776,1526.7866835999305,1526.7866892999737,1528.303335799952,1529.3195755999768,e,25.0,1.6240305999526754,1,+10,343,-41.2593092137334,0.5330249582999853,0.16868060001305496,1463334.0,8.504253053488231,-0.5269611190076091,0.15516155812889076,1466867.0,,,,,1520.141912297444,1516.608912297444,
90,9,32,f,1,2,82.0,6,4,high,8 + 5 - 4 + 7 + 9,25,24,25,26,1530.836289400002,1532.86314079992,1534.3782696999842,1539.3967706999974,1540.0346001998987,1540.034605499939,1541.5511257000037,1542.5684205999132,w,25.0,0.6378294999012724,1,+10,353,-26.422920903301474,-0.0597707909116858,0.14213635863180896,1477568.0,-8.473023260020565,-0.11627259722064576,-0.09195376366374886,1481102.0,,,,,1534.376912297444,1530.842912297444,
91,9,32,f,1,2,83.0,7,1,low,4 + 1 + 1 + 7 - 1,12,13,14,12,1544.0852056998992,1546.1126282999758,1547.627822099952,1552.6470348999137,1553.3945998999989,1553.3946085999487,1554.9111492999364,1555.9278580999237,e,12.0,0.7475650000851601,1,+1,354,19.88993360352317,0.47400288717662864,0.5742615775684841,1490817.0,3.9161600545482393,0.3021657619540701,0.11630809113950713,1494351.0,,,,,1547.625912297444,1544.091912297444,
92,9,32,f,1,2,84.0,8,3,high,2 + 1 + 9 - 7 + 6,11,12,11,13,1557.4449230999453,1559.4697721999837,1560.983841399895,1566.0035402999492,1566.5305748999815,1566.5305802999064,1568.0471067999024,1569.0632781999884,w,11.0,0.5270346000324935,1,+10,364,-28.03486398834439,0.19222207299966065,-0.1419308781447246,1504174.0,-35.94448987449582,0.1606373445472178,-0.010734283811472789,1507708.0,,,,,1560.982912297444,1557.448912297444,
93,9,32,f,1,2,85.0,9,2,low,4 + 9 - 7 + 1 - 1,6,8,6,5,1570.579941199976,1572.60693359992,1574.1221013999311,1579.1406817999668,1579.6746019999264,1579.6746070999652,1581.1905127998907,1582.2071992999408,w,6.0,0.5339201999595389,1,+1,365,-27.810343230517237,-0.3295098953689406,-1.5722290872407738,1517311.0,5.193934130914785,-0.14280823915972363,-0.3911146643203951,1520845.0,,,,,1574.119912297444,1570.5859122974439,
94,9,32,f,1,2,86.0,10,1,low,2 + 9 + 1 + 1 + 1,14,12,14,13,1583.7238937999357,1585.7497246999992,1587.2648516999325,1592.283813099959,1592.8826637999157,1592.882668999955,1594.3991517999675,1595.415928100003,w,14.0,0.5988506999565288,1,+1,366,35.54433268722015,-0.5187725324381489,0.19922275088085128,1530454.0,14.802947139577,0.00671175809265101,-0.08393606537247988,1533988.0,,,,,1587.262912297444,1583.728912297444,
95,9,32,f,1,2,87.0,11,3,high,7 - 1 + 9 - 5 + 4,14,13,14,15,1596.9331798999335,1598.959354799939,1600.4745212999403,1605.493335899897,1606.5546324999304,1606.5546375999693,1608.070913399919,1609.087821599911,w,14.0,1.061296600033529,1,+10,376,1.1510120565619495,0.683005050913049,0.09501098022656773,1543664.0,4.4025672438394885,0.00750125108130284,-0.254043257123612,1547198.0,,,,,1600.472912297444,1596.938912297444,
96,9,32,f,1,2,88.0,12,2,high,5 + 7 - 8 + 1 + 1,6,6,8,7,1610.604507299955,1612.6306915999155,1614.1458611999406,1619.1657596000005,1619.7467191999312,1619.7467244999716,1621.2636767999502,1622.281247099978,q,6.0,0.580959599930793,1,+10,386,17.108624767694042,-0.30587485310650386,0.1934342033878531,1557335.0,-7.2316407660685975,-0.04781341908068093,0.05771742620527576,1560870.0,,,,,1614.1449122974439,1610.609912297444,
97,9,32,f,1,2,89.0,13,2,high,9 + 4 - 6 + 1 - 1,7,8,7,9,1623.7980306999525,1625.8216479999246,1627.3368520999793,1632.355033999891,1632.8907221999252,1632.8907271999633,1634.4071149999509,1635.4243689998984,w,7.0,0.5356882000342011,1,+10,396,-8.744589740923857,-0.15982917966809573,0.01475703946021878,1570526.0,-5.643293679992549,-0.6389016423610991,-0.020211400788507028,1574059.0,,,,,1627.333912297444,1623.800912297444,
98,9,32,f,1,2,90.0,14,3,high,5 + 7 + 1 - 4 + 6,15,17,15,13,1636.9410072999308,1638.9691841999302,1640.4842547998996,1645.50297209993,1646.282744099968,1646.2827495998936,1647.7996614999138,1648.816634699935,w,15.0,0.779772000038065,1,+10,406,5.136785045663251,0.0541678909607155,0.04304979118764796,1583674.0,-25.110120394575674,-0.7648965515969133,0.1423346213175234,1587207.0,,,,,1640.481912297444,1636.948912297444,
99,9,32,f,1,2,91.0,15,3,low,3 - 7 + 5 + 1 + 9,11,11,12,13,1650.3336475999097,1652.3575700999936,1653.8736441999208,1658.907283599954,1659.7147578999866,1659.7147631999103,1661.2312934999354,1662.2481267999392,q,11.0,0.8074743000324816,1,+1,407,-8.341496074432865,0.27623219068474825,-0.38417297857820865,1597062.0,8.082795533162649,0.0034763660223111614,-0.07953243581040015,1600611.0,,,,,1653.885912297444,1650.3369122974439,
100,9,32,f,1,2,92.0,16,4,low,5 + 7 - 4 - 6 + 9,11,13,11,12,1663.7651490999851,1665.7929682999384,1667.3076121999184,1672.3271971999202,1673.0746663999744,1673.0746714998968,1674.5913292999612,1675.607280199998,w,11.0,0.7474692000541836,1,+1,408,14.60868913100811,-0.44648068222027915,-0.02230316393714915,1610497.0,-4.803256532604424,-0.302682861319707,0.04321791270010644,1614031.0,,,,,1667.305912297444,1663.771912297444,
101,9,32,f,1,2,93.0,17,1,high,3 + 1 + 1 + 8 - 1,12,12,13,14,1677.1242166999727,1679.1518130999757,1680.6669818999944,1685.6848903999198,1686.282698099967,1686.2827034998918,1687.7989332999568,1688.816513699945,q,12.0,0.5978077000472695,1,+10,418,45.151626209841716,0.39868077196648555,0.05440705290079206,1623856.0,-6.637094191045927,0.01223005282897649,0.08112103389694347,1627389.0,,,,,1680.6639122974439,1677.130912297444,
102,9,32,f,1,2,94.0,18,1,high,5 + 6 + 1 + 1 + 1,14,16,14,13,1690.3325687999604,1692.357251099893,1693.8724811999127,1698.8900561999762,1699.5787168999668,1699.5787220000057,1701.0959817999974,1702.113977000001,w,14.0,0.688660699990578,1,+10,428,10.443019299490572,-0.3980594652646383,-0.034967574396877144,1637061.0,-27.732392414473118,-1.0105685789489636,-0.011174566081782356,1640594.0,,,,,1693.868912297444,1690.3359122974439,
103,9,32,f,1,2,95.0,19,3,high,8 + 6 - 7 + 1 - 4,4,4,5,3,1703.6297869998962,1705.6539855999872,1707.1691674999893,1712.1877110999776,1713.594756599981,1713.594761999906,1715.1107963999966,1716.1279150999617,e,3.0,1.4070455000037327,0,+0,428,-27.371989323489924,0.07618685927051416,0.1611240567601755,1650358.0,0.32812606547335754,0.343852071003087,0.1187406578468908,1653891.0,,,,,1707.165912297444,1703.632912297444,
104,9,32,f,1,2,96.0,20,1,high,2 + 1 + 9 + 1 - 1,12,13,11,12,1717.6455614999868,1719.671877799905,1721.1874751999276,1726.2055771999294,1726.8508137000026,1726.850819199928,1728.3672663999023,1729.3844629999949,e,12.0,0.6452365000732243,1,+10,438,-8.792033815681341,-0.2842653698113642,0.019240684186081936,1664376.0,1.8074187570913587,-0.9774456380654541,0.044100788798764334,1667909.0,,,,,1721.183912297444,1717.650912297444,
105,9,32,f,1,2,97.0,21,2,high,6 + 1 + 1 + 7 - 9,6,6,4,8,1730.90134579991,1732.9284343000036,1734.443671099958,1739.4618382999906,1740.1467377999795,1740.1467426999006,1741.663380999933,1742.680607099901,q,6.0,0.6848994999891147,1,+10,448,-26.744294733516323,0.48502532568274903,0.12167493556026066,1677632.0,-15.588796053301065,-0.1594597777425255,0.16978160038452916,1681166.0,,,,,1734.440912297444,1730.906912297444,
106,9,32,f,1,2,98.0,22,1,low,2 + 1 + 1 + 9 - 1,12,13,11,12,1744.1972387999997,1746.2240280999104,1747.7388726999052,1752.7577791999793,1753.3386975999456,1753.3387025999837,1754.8549815999577,1755.8716805999866,e,12.0,0.5809183999663219,1,+1,449,-14.02795379103449,-0.2601379413124434,-0.089954306240563,1690928.0,-9.223204325621264,-0.4004982004920894,0.22368010408904082,1694462.0,,,,,1747.736912297444,1744.202912297444,
107,9,32,f,1,2,99.0,23,1,high,3 + 1 + 8 - 1 + 1,12,10,12,13,1757.3883779000023,1759.4149436999578,1760.9300240000011,1765.9482453999808,1766.4908650999423,1766.490870299982,1768.007189399912,1769.0241512999637,w,12.0,0.5426196999615058,1,+10,459,-5.562960056663202,-0.13992743457805457,0.1859744227400204,1704120.0,20.3250291872597,0.11148948507796863,0.1426564755908395,1707652.0,,,,,1760.926912297444,1757.3949122974439,
108,9,32,f,1,2,100.0,24,4,low,4 + 7 + 9 - 5 + 7,22,24,22,23,1770.5411909999093,1772.566432299907,1774.0817807998974,1779.101572099957,1780.2268565999111,1780.2268617999507,1781.7433622999815,1782.7599380000029,w,22.0,1.1252844999544322,1,+1,460,17.212082171893258,0.3403672628179688,-0.07577391797268507,1717270.0,-35.8585233647078,0.028003763709442353,0.11485568401223123,1720805.0,,,,,1774.079912297444,1770.544912297444,
109,9,32,f,1,2,101.0,25,3,high,6 - 1 + 7 - 8 + 9,13,13,12,11,1784.276670299936,1786.303823699942,1787.818996799993,1792.8377521999646,1793.4827574999072,1793.4827628999485,1794.9989786999067,1796.016245399951,q,13.0,0.645005299942568,1,+10,470,-8.228233877744518,-0.046134196360802626,0.020655917423727743,1731008.0,-10.609049742753676,0.13963869448683575,0.07810440862861068,1734541.0,,,,,1787.815912297444,1784.282912297444,
110,9,32,f,1,2,102.0,26,1,high,7 + 1 + 4 + 1 - 1,12,14,13,12,1797.532981599914,1799.557936899946,1801.0731510999613,1806.0915872999467,1806.7148275999352,1806.7148327999748,1808.23132199992,1809.2492403999204,e,12.0,0.623240299988538,1,+10,480,38.81540278224561,0.17731960800328483,-0.19399221446817583,1744262.0,13.388652484841664,-0.11063108891656181,-0.14869956659157824,1747795.0,,,,,1801.069912297444,1797.536912297444,
111,9,32,f,1,2,103.0,27,3,low,4 + 8 - 3 + 5 - 1,13,14,13,12,1810.765963899903,1812.7918789999092,1814.306969499914,1819.3258545999413,1819.8187799999723,1819.818785399897,1821.3352539999175,1822.352099199896,w,13.0,0.4929254000307992,1,+1,481,-3.616170805934157,0.6293500885110346,0.11759633992730834,1757495.0,-4.5582834347847125,0.2114260251958564,0.1911618832912516,1761029.0,,,,,1814.303912297444,1810.7699122974439,
112,9,32,f,1,2,104.0,28,3,high,5 + 6 - 4 - 1 + 8,14,15,16,14,1823.868768599932,1825.8917567000024,1827.407562699984,1832.4254100999096,1833.578940199921,1833.5789454999613,1835.0952929999912,1836.1128545999527,e,14.0,1.1535301000112668,1,+10,491,-1.1835324623329306,-0.6493282027922938,-0.07146163807153894,1770595.0,-2.129037685393021,-0.36105508383323315,-0.04164632087653475,1774129.0,,,,,1827.4039122974439,1823.869912297444,
113,9,32,f,1,2,105.0,29,4,high,3 + 9 - 4 + 7 + 6,21,21,20,19,1837.6296035998969,1839.656157099991,1841.1713305999288,1846.190050699981,1846.922773999977,1846.9227791999,1848.439285099972,1849.455995599972,w,20.0,0.7327232999959961,0,+0,491,-20.898537153030464,0.31692162895364806,-0.02853828130336966,1784359.0,-2.2260721829336765,0.23863677193387112,-0.06227139359282985,1787893.0,,,,,1841.167912297444,1837.6339122974439,
114,9,32,f,1,2,106.0,30,3,high,6 + 8 + 7 + 1 - 9,13,13,15,14,1850.9727577999,1852.9979553999144,1854.513372799964,1859.533124199952,1860.706935999915,1860.7069411999544,1862.2237991999136,1863.24056559999,w,15.0,1.1738117999630049,0,+0,491,-4.7497034290916105,0.3710685067343107,-2.457566849918238,1797701.0,-0.13118729356322234,-0.012656632101230691,-0.06029911064534543,1801236.0,,,,,1854.510912297444,1850.975912297444,
115,9,32,f,1,2,107.0,31,1,high,9 + 1 + 1 + 7 - 1,17,16,19,17,1864.757205999922,1866.783234399976,1868.2983334999296,1873.3166625999147,1873.938787999912,1873.9387929999505,1875.4547170998997,1876.4723514999496,e,17.0,0.6221253999974579,1,+10,501,-44.18885067741175,-0.3767995192461058,-0.01584174378523473,1811486.0,-4.95197869954793,-0.052536850952542125,-0.356396603032751,1815020.0,,,,,1868.294912297444,1864.760912297444,
116,9,32,f,1,2,108.0,32,2,low,3 + 9 + 1 - 5 + 1,9,8,7,9,1877.9895204999484,1880.0165468999185,1881.5317030999577,1886.5496782999253,1887.4348031999543,1887.4348085999957,1888.951121399994,1889.9680298999883,e,9.0,0.8851249000290409,1,+1,502,-8.389465808071563,0.8911376822882691,0.09800184924600597,1824720.0,16.030361816028506,0.4535154660465226,0.0024756448641034545,1828253.0,,,,,1881.527912297444,1877.994912297444,
117,9,32,f,1,2,109.0,33,2,high,5 - 8 + 7 + 1 + 1,6,7,8,6,1891.484766999958,1893.510892399936,1895.0256739999168,1900.0449423999528,1900.6107973000037,1900.6108021999244,1902.1273854000028,1903.1446778998943,e,6.0,0.5658549000509083,1,+10,512,1.6365951079934407,-0.267809483746289,-0.06298985494501985,1838214.0,18.407326285988148,0.01853502152884534,0.039177951678194045,1841748.0,,,,,1895.022912297444,1891.488912297444,
118,9,32,f,1,2,110.0,34,3,high,3 + 1 + 8 - 5 + 6,13,15,13,14,1904.661385799991,1906.688525999896,1908.203568500001,1913.2222951999863,1913.7149284000045,1913.714933699928,1915.2314124999104,1916.2487405999564,w,13.0,0.4926332000177353,1,+10,522,28.440284696876788,-0.17447830697001,0.1579219730212349,1851391.0,13.9923296764507,-0.05507747721935985,0.032195380343979174,1854924.0,,,,,1908.198912297444,1904.665912297444,
119,9,32,f,1,2,111.0,35,4,high,5 + 9 - 4 + 7 + 6,23,25,23,24,1917.7654783999317,1919.7891281999184,1921.3042009999044,1926.322875599959,1926.8588798999556,1926.8588858000005,1928.3755682999035,1929.3928716999944,w,23.0,0.5360042999964207,1,+10,532,3.6813147145968514,-0.0292521230636007,0.06314865658456004,1864492.0,-16.848862657124865,0.2555019313735416,-0.07448913525528833,1868026.0,,,,,1921.300912297444,1917.766912297444,
120,9,32,f,1,2,112.0,36,3,low,2 + 1 + 9 - 4 + 6,14,16,14,15,1930.9095410999143,1932.9324187999591,1934.447509299964,1939.4654188998973,1939.946841099998,1939.946845899918,1941.462636299897,1942.479634499992,w,14.0,0.4814222001004964,1,+1,533,-43.42650443155335,-0.2352037535108975,-0.10085943258343799,1877634.0,4.477355365805856,0.5673994702108387,-0.0338240094698492,1881168.0,,,,,1934.4429122974439,1930.908912297444,
121,9,32,f,1,2,113.0,37,4,low,4 + 7 + 8 - 3 + 9,25,24,26,25,1943.9961966999108,1946.024929499952,1947.539121299982,1952.5578949999765,1953.498847699957,1953.4988528999968,1955.0149951999772,1956.031272299937,e,25.0,0.9409526999806984,1,+1,534,-39.13958348356216,0.35002891045570017,-0.1828161641811077,1890727.0,6.685965440446985,0.11830533959893952,0.07552425801438378,1894261.0,,,,,1947.535912297444,1944.001912297444,
122,9,32,f,1,3,114.0,0,2,low,7 + 8 + 1 + 9 + 1,26,25,26,24,1979.590798199992,1981.6171274998924,1983.1323394998908,1988.1505113999592,1988.658877299982,1988.6588819999013,1990.175208600005,1991.1920658999588,w,26.0,0.508365900022909,1,+1,535,34.80395385685629,0.7658932203140667,-0.1709065367352367,1926320.0,1.0757516327393688,0.1607412895951681,0.040879654432245616,1929853.0,,,,,1983.127912297444,1979.594912297444,
123,9,32,f,1,3,115.0,1,3,low,2 + 9 - 3 + 4 + 1,13,14,11,13,1992.7092800999528,1994.7370723999336,1996.2521765999263,2001.2699299999515,2002.058942799922,2002.0589481999632,2003.5753716999895,2004.5922803999856,e,13.0,0.7890127999708056,1,+1,536,-12.932934013790554,0.07936923523462269,0.16070689000826732,1939439.0,18.454515002001806,-0.1752332105828942,0.08474249432460534,1942973.0,,,,,1996.247912297444,1992.713912297444,
124,9,32,f,1,3,116.0,2,1,low,3 + 1 + 8 + 1 + 1,14,14,13,12,2006.109134899918,2008.1371845999963,2009.6521714999108,2014.6702718999004,2015.2589221999517,2015.2589275999928,2016.775286899996,2017.7911585998957,q,14.0,0.5886503000510857,1,+1,537,30.48999214828883,0.07555120576014485,-0.04164522229345291,1952839.0,24.054152792513484,0.3895302013426072,-0.14445864370354888,1956372.0,,,,,2009.646912297444,2006.113912297444,
125,9,32,f,1,3,117.0,3,1,low,9 + 8 + 1 + 1 - 1,18,20,18,17,2019.3078686998924,2021.332068699994,2022.8471881999867,2027.8658865999896,2028.434908999945,2028.4349141999849,2029.951725299936,2030.96871149994,w,18.0,0.5690223999554291,1,+1,538,17.62657763075837,-0.19940641732124043,0.067711316779415,1966034.0,-22.743400747170426,-0.45101605718835014,0.0426818644703133,1969568.0,,,,,2022.842912297444,2019.308912297444,
126,9,32,f,1,3,118.0,4,1,high,5 + 6 + 1 + 1 + 1,14,15,14,16,2032.4846025999868,2034.511226099916,2036.02659439994,2041.0441870999057,2041.930971199996,2041.9309762999185,2043.4471921999937,2044.464413299924,w,14.0,0.8867841000901535,1,+10,548,-22.549825734178476,-0.2652606389174581,0.06237988557160423,1979213.0,10.301249892100177,-0.16877851089282592,0.18786635333888113,1982746.0,,,,,2036.020912297444,2032.487912297444,
127,9,32,f,1,3,119.0,5,3,low,2 + 9 + 1 - 5 + 7,14,15,12,14,2045.9813592999708,2048.0059283999726,2049.5211339999223,2054.5392941999016,2055.154860099894,2055.154865599936,2056.6711174999364,2057.6879170999164,e,14.0,0.6155658999923617,1,+1,549,1.7753403975262483,-0.11120251909336032,-0.27766854214779313,1992708.0,3.194121260566355,-0.05003724546069499,-0.04128721715203887,1996241.0,,,,,2049.515912297444,2045.982912297444,
128,9,32,f,1,3,120.0,6,3,low,3 + 1 + 6 - 8 + 9,11,11,12,13,2059.204612399917,2061.230157999904,2062.745153900003,2067.763967499952,2069.066921499907,2069.0669301999733,2070.583530899952,2071.601114799967,w,12.0,1.302953999955207,0,+0,549,28.9663639917613,-0.1978037138730695,-0.07517197374146778,2005932.0,6.171615009275261,-0.44731585409938557,0.06884605549204403,2009466.0,,,,,2062.740912297444,2059.206912297444,
129,9,32,f,1,3,121.0,7,2,low,5 + 1 + 7 - 6 + 1,8,7,8,6,2073.118073999998,2075.145363099989,2076.660542099969,2081.678930599941,2083.346926999977,2083.3469321999,2084.863443399896,2085.880168699892,w,8.0,1.6679964000359178,1,+1,550,15.16860474922439,-0.3182634208835884,0.19353520785773526,2019847.0,27.42283442043727,-0.7749408419882649,-1.657900723933817,2023381.0,,,,,2076.655912297444,2073.121912297444,
130,9,32,f,1,3,122.0,8,4,high,2 + 9 - 6 + 8 - 4,9,9,7,11,2087.396898499923,2089.422843499924,2090.937761299894,2095.957242299919,2096.667016399908,2096.667022299953,2098.183585999999,2099.200784799992,q,9.0,0.7097740999888629,1,+10,560,-6.006892781124261,1.0920482659467403,5.9600722726173965,2034125.0,-63.085474281347345,-0.18907732068175687,-0.16620260101066675,2037659.0,,,,,2090.9339122974443,2087.399912297444,
131,9,32,f,1,3,123.0,9,4,low,4 + 7 - 8 + 9 - 3,9,8,11,9,2100.717473399942,2102.7445794999367,2104.2594734999584,2109.2780197999678,2110.0029918999644,2110.002997100004,2111.5194296999834,2112.5361321999226,e,9.0,0.7249720999971032,1,+1,561,28.340088172411253,-0.4944590864515144,-1.614662488024535,2047446.0,-5.552083124388213,-0.19173092553734605,0.09821249034734847,2050980.0,,,,,2104.254912297444,2100.720912297444,
132,9,32,f,1,3,124.0,10,4,low,6 + 9 - 7 + 8 - 5,11,13,11,12,2114.052864099969,2116.1385369999334,2117.6536051000003,2122.672730099992,2123.298930799938,2123.298936499981,2124.815356199979,2125.832128399983,w,11.0,0.6262006999459118,1,+1,562,19.96109467778726,-0.3570649657375564,0.031208795295225356,2060840.0,-4.005576435600627,0.42445010092626445,-0.5811131980834872,2064374.0,,,,,2117.648912297444,2114.1149122974443,
133,9,32,f,1,3,125.0,11,3,high,8 + 3 + 1 - 7 + 9,14,15,14,12,2127.367486999952,2129.395667299977,2130.910767399939,2135.929318999988,2137.8349478999157,2137.8349528999534,2139.3510272999997,2140.3684426998952,e,12.0,1.905628899927251,0,+0,562,1.7197905126409552,0.24215121179250154,-0.02659213316903175,2074097.0,-5.9338211187195,-0.5063625232488143,-0.03817524864893662,2077631.0,,,,,2130.905912297444,2127.3719122974444,
134,9,32,f,1,3,126.0,12,4,low,3 + 8 - 4 + 9 + 6,22,21,23,22,2141.8853741999483,2143.912218299927,2145.428003399982,2150.445745099918,2151.403049899964,2151.40305549989,2152.9194753000047,2153.936166199972,e,22.0,0.9573048000456764,1,+1,563,-24.869963423867794,1.30863305896413,-0.304781545127085,2088614.0,-1.6656316401985958,0.6031605045220365,0.04670628640808583,2092147.0,,,,,2145.421912297444,2141.888912297444,
135,9,32,f,1,3,127.0,13,2,low,6 + 1 + 1 + 7 - 9,6,4,8,6,2155.452739899978,2157.480971899932,2158.9960355999647,2164.0144475999987,2164.571060199989,2164.5710652999114,2166.087632699986,2167.1048302999698,q,4.0,0.5566125999903306,0,+0,563,11.443336330102227,0.031922683629116655,-0.09036321989283724,2102182.0,13.066937232793972,-0.7674529283026486,-0.787351753461623,2105716.0,,,,,2158.990912297444,2155.456912297444,
136,9,32,f,1,3,128.0,14,2,high,4 + 7 + 1 + 1 - 8,5,5,4,7,2168.621458599926,2170.648056499893,2172.16312459996,2177.181253899937,2177.755017599906,2177.755022899946,2179.2715155999176,2180.288635399891,q,5.0,0.5737636999692768,1,+10,573,-6.9436104373042795,0.2505633144608721,-0.08071560944407197,2115350.0,-12.96173546311303,-0.04455829985994875,-0.06196331398058219,2118883.0,,,,,2172.157912297444,2168.624912297444,
137,9,32,f,1,3,129.0,15,1,low,7 + 1 + 4 + 1 - 1,12,13,12,11,2181.804979199893,2183.8316592999035,2185.3468491999665,2190.3651599999284,2190.8270660999697,2190.827071199892,2192.343452399946,2193.360249399906,w,12.0,0.461906100041233,1,+1,574,4.948920069608358,-0.0015563256730328767,0.2645990048008393,2128533.0,15.156875904764075,0.14350035575685238,0.1520303001100718,2132066.0,,,,,2185.340912297444,2181.807912297444,
138,9,32,f,1,3,130.0,16,2,high,4 + 8 + 1 + 1 - 6,8,8,7,9,2194.8766981998924,2196.903270299896,2198.418489899952,2203.4364777999,2204.299033899908,2204.2990391999483,2205.816190399928,2206.833820799948,q,8.0,0.8625561000080779,1,+10,584,-21.06414239632626,0.3116299178221764,0.11569589769788458,2141605.0,21.64462987112118,-0.4840674009240926,-0.07809397181960409,2145138.0,,,,,2198.412912297444,2194.879912297444,
139,9,32,f,1,3,131.0,17,4,high,6 + 9 + 7 - 3 - 5,14,13,12,14,2208.350848999922,2210.3780100999866,2211.893157899962,2216.911528999917,2217.707080299966,2217.7070855000056,2219.223507599905,2220.240362399956,w,12.0,0.7955513000488281,0,+0,584,-3.1041670598768043,-0.22290763253667967,-0.02892455059155674,2155079.0,-17.602338485298915,-0.24556413117201092,-0.15122164094256907,2158613.0,,,,,2211.887912297444,2208.3539122974444,
140,9,32,f,1,3,132.0,18,3,high,9 - 5 - 1 - 6 + 8,5,7,4,5,2221.7569612999214,2223.7810785999754,2225.295455199899,2230.3135702,2230.987004900002,2230.9870094999205,2232.5028819999425,2233.520506999921,w,4.0,0.6734347000019625,0,+0,584,1.6231080956459105,1.1446135410417222,0.2861053585378939,2168482.0,-12.472320784796747,0.36285378316711325,0.01686654218256689,2172015.0,,,,,2225.289912297444,2221.756912297444,
141,9,32,f,1,3,133.0,19,2,high,7 + 6 + 1 - 1 - 8,5,5,3,4,2235.036908299895,2237.063389699906,2238.5784711999586,2243.5967132999795,2244.1230080999667,2244.1230131000048,2245.6391674999613,2246.656573999906,q,5.0,0.5262947999872267,1,+10,594,32.146292154382635,-3.109978223283452,-1.648324507299864,2181765.0,-10.694055619874511,-0.3189493870380047,-0.19891898715692236,2185298.0,,,,,2238.572912297444,2235.039912297444,
142,9,32,f,1,3,134.0,20,2,high,7 + 5 + 1 - 1 - 8,4,3,4,2,2248.173466799897,2250.19660149992,2251.711726599955,2256.73031439993,2257.251075899927,2257.251080899965,2258.767546499963,2259.7846439999994,w,4.0,0.5207614999962971,1,+10,604,-9.927777668725813,0.36445782644158653,-0.030619171538541545,2194898.0,0.8727288954472474,0.46822055679831687,0.06981898796639885,2198431.0,,,,,2251.7059122974442,2248.1729122974443,
143,9,32,f,1,3,135.0,21,2,low,3 + 8 + 1 - 5 + 1,8,6,8,9,2261.301944999956,2263.329398099915,2264.844353799941,2269.862051499891,2270.5470495999325,2270.5470545999706,2272.063400999992,2273.080247599981,e,9.0,0.6849981000414118,0,+0,604,-5.7139476119088854,0.1793141010554158,-0.003163901836472194,2208030.0,11.304781536845885,-0.041951648520840656,0.057022384024727035,2211563.0,,,,,2264.8379122974443,2261.3049122974444,
144,9,32,f,1,3,136.0,22,2,high,9 + 6 + 1 + 7 + 1,24,23,24,25,2274.596548100002,2276.6221164999297,2278.1372924000025,2283.156414999976,2283.7630412,2283.763046499924,2285.2800128998933,2286.297349999892,w,24.0,0.6066262000240386,1,+10,614,10.99223119932026,1.092701709751509,1.9126062542699485,2221323.0,6.972710669738018,0.294656601303771,-0.023725687743682,2224857.0,,,,,2278.131912297444,2274.597912297444,
145,9,32,f,1,3,137.0,23,1,low,5 + 1 + 1 + 6 + 1,14,14,13,16,2287.814021999948,2289.841584299924,2291.356753799948,2296.3741185999243,2296.9310615999857,2296.9310668999096,2298.4472216999857,2299.4644686999964,q,14.0,0.5569430000614375,1,+1,615,7.5307894186764255,1.2829185402272572,1.5580298712225575,2234542.0,7.997659414576397,-0.04276236579087378,-0.43282221892052086,2238075.0,,,,,2291.349912297444,2287.816912297444,
146,9,32,f,1,3,138.0,24,3,low,9 - 1 + 5 - 6 + 8,15,14,17,15,2300.9808081999654,2303.0075929999584,2304.522720799898,2309.540908699972,2310.211176299956,2310.2111813999945,2311.7275541999843,2312.744280099985,e,15.0,0.6702675999840721,1,+1,616,-21.998135082869116,-0.04228263997585202,0.024741896378645656,2247708.0,6.930112547383493,0.05835957145040238,0.11901116106530973,2251241.0,,,,,2304.515912297444,2300.9829122974443,
147,9,32,f,1,3,139.0,25,2,high,4 + 8 + 1 + 1 - 5,9,9,11,8,2314.261783199967,2316.28696879989,2317.8022961999523,2322.8209753999254,2323.419097799924,2323.419102699961,2324.9355861999798,2325.95382039994,q,9.0,0.5981223999988288,1,+10,626,-7.440029188026887,0.11767078297803613,-0.16727170835844918,2260987.0,7.346030708229824,-0.17684323352709352,0.17213082097657884,2264521.0,,,,,2317.7959122974444,2314.2619122974443,
148,9,32,f,1,3,140.0,26,4,low,9 + 4 - 6 + 8 + 7,22,22,24,21,2327.4709584999364,2329.4958048999542,2331.012088599964,2336.031952499994,2337.035133800004,2337.035138599924,2338.5513707998907,2339.5689406999154,w,24.0,1.0031813000096008,0,+0,626,4.987994912393307,0.9200522016334114,0.10679135981072463,2274196.0,-2.821530226814513,-0.28426932311259634,0.02160223231805536,2277732.0,,,,,2331.006912297444,2327.470912297444,
149,9,32,f,1,3,141.0,27,3,high,7 - 1 + 8 - 6 + 4,12,13,11,12,2341.0854684999213,2343.1130340999225,2344.628026899998,2349.6464688999117,2350.243092499906,2350.2430978999478,2351.7597017999506,2352.776898299926,e,12.0,0.5966235999949276,1,+10,636,-10.482904728004154,2.684090657213063,2.204663167770435,2287813.0,-28.997054153396363,-0.08222033703041642,-0.09424872028197506,2291347.0,,,,,2344.6219122974444,2341.0879122974443,
150,9,32,f,1,3,142.0,28,2,low,4 + 1 + 9 + 1 - 6,9,7,8,9,2354.2937090999912,2356.321681599948,2357.837229799945,2362.8548054998973,2363.3951689999085,2363.395174099948,2364.9118713999637,2365.9286948998924,e,9.0,0.5403635000111535,1,+1,637,-5.755507283474374,1.036471209876768,1.0956491291890582,2301022.0,3.7154312661477142,-0.139259986383923,-0.2256377462057264,2304555.0,,,,,2357.829912297444,2354.296912297444,
151,9,32,f,1,3,143.0,29,1,high,4 + 9 + 1 - 1 - 1,12,13,11,12,2367.445558599895,2369.4712630999275,2370.9862659999635,2376.0066761999624,2376.683116299915,2376.6831211999524,2378.199087899993,2379.2158997999504,e,12.0,0.6764400999527425,1,+10,647,-0.7513402327445897,0.3914362303836416,-0.4737644341270637,2314171.0,-10.134575370585946,0.3343765143943851,-0.15618057884861214,2317707.0,,,,,2370.981912297444,2367.445912297444,
152,9,32,f,1,3,144.0,30,1,low,8 + 1 + 1 + 1 - 4,7,5,8,7,2380.732842999976,2382.7601776999654,2384.274917099974,2389.2931974999374,2389.8111861998914,2389.811191399931,2391.3277810999425,2392.3446982000023,e,7.0,0.5179886999540031,1,+1,648,-9.072791784491434,0.009173248404187984,-0.2369011091943538,2327460.0,2.3122618635430197,0.23867393523129055,0.01849276965474944,2330993.0,,,,,2384.267912297444,2380.734912297444,
153,9,32,f,1,3,145.0,31,1,low,3 + 1 + 8 + 1 + 1,14,16,14,13,2393.8614814999746,2395.883261199924,2397.3979904999724,2402.415542099974,2403.6031071000034,2403.603112099925,2405.119891499984,2406.136382799945,w,14.0,1.1875650000292808,1,+1,649,-1.1314334112407316,-0.02724390213750283,0.26304682911570687,2340583.0,6.161096379851861,-0.20537464024603658,-2.8806578912886502,2344116.0,,,,,2397.390912297444,2393.8579122974443,
154,9,32,f,1,3,146.0,32,1,low,7 - 1 + 8 + 1 - 1,14,12,13,14,2407.652699499973,2409.674237799947,2411.189367099898,2416.207778999931,2417.0671902999748,2417.0671955998987,2418.583563499968,2419.6003410998965,e,14.0,0.8594113000435755,1,+1,650,13.904159427642327,-0.048624192312146874,0.17357327136160938,2354374.0,11.927583813598766,0.26680350410769504,-0.14793056414692551,2357908.0,,,,,2411.182912297444,2407.648912297444,
155,9,32,f,1,3,147.0,33,1,low,4 + 7 + 1 - 1 - 1,10,11,9,10,2421.1170817998936,2423.1421743999235,2424.657265799935,2429.6754309999524,2430.2831972999265,2430.283202699968,2431.79971339996,2432.8166386999656,e,10.0,0.6077662999741733,1,+1,651,5.913621837269331,-0.16344758350612576,0.05214521700674468,2367842.0,5.203740171713864,-0.41139729457654095,0.08918939351739574,2371376.0,,,,,2424.6509122974444,2421.1169122974443,
156,9,32,f,1,3,148.0,34,4,low,3 + 8 - 5 + 9 - 7,8,6,8,7,2434.3334279999835,2436.360411199974,2437.876242299913,2442.8956068999832,2444.0672437999165,2444.067249099957,2445.5837366998894,2446.600480099907,w,8.0,1.171636899933219,1,+1,652,-20.700687261272392,-0.6651988958507644,-0.06997239510458986,2381061.0,-5.648101935341522,0.4841214694768925,-0.12395756584070994,2384595.0,,,,,2437.869912297444,2434.3359122974443,
157,9,32,f,1,3,149.0,35,4,high,2 + 9 - 3 + 5 + 8,21,23,22,21,2448.11713899998,2450.144278699998,2451.659481599927,2456.677736799931,2458.859235299984,2458.859240999911,2460.3761390999425,2461.393377500004,e,21.0,2.1814985000528395,1,+10,662,12.317597032569482,-0.9478950098082617,0.020393148236157455,2394844.0,-26.460154787949442,-0.0029526952138199114,0.11114103821299692,2398378.0,,,,,2451.6529122974443,2448.1189122974442,
158,9,32,f,1,3,150.0,36,3,high,2 + 1 + 9 - 5 + 6,13,14,13,11,2462.910246699932,2464.934107399895,2466.4491279999493,2471.4670585999265,2471.939264399931,2471.939269799972,2473.4556907999795,2474.472749999957,w,13.0,0.4722058000043034,1,+10,672,18.58955417745412,0.6799405748262202,-0.8316457299575353,2409634.0,-4.033240331095758,0.3126305625998209,0.17620056429357867,2413167.0,,,,,2466.441912297444,2462.908912297444,
159,9,32,f,1,3,151.0,37,3,low,4 + 1 + 8 + 9 - 5,17,17,19,18,2475.990417899913,2478.017810899997,2479.532989199972,2484.550907999976,2486.059221399948,2486.059226599988,2487.5758188999025,2488.6030309998896,q,17.0,1.508313399972394,1,+1,673,-21.78634617865578,0.3362768013280619,-0.026780821682893086,2422717.0,-23.48621414742273,0.34239099692326036,0.09581963736405719,2426251.0,,,,,2479.5259122974444,2475.9919122974443,
160,9,32,f,1,4,152.0,0,3,high,4 + 8 - 9 + 1 + 7,11,11,9,13,2516.6953220999567,2518.721533799893,2520.236716199899,2525.256369699957,2525.771270399913,2525.771275599953,2527.2879307999974,2528.3050887999125,q,11.0,0.5149006999563426,1,+10,683,-5.610186641551273,-0.02438598775470746,0.19238378209379503,2463421.0,29.49641869463256,0.45220486173524765,1.3017408337031986,2466956.0,,,,,2520.2309122974443,2516.695912297444,
161,9,32,f,1,4,153.0,1,1,high,3 + 1 + 1 + 9 - 1,13,12,13,14,2529.82240309997,2531.848511099932,2533.362759099924,2538.393176999991,2538.8592266999185,2538.8592316999566,2540.374810199952,2541.3916497000027,w,13.0,0.4660496999276802,1,+10,693,15.993541105840507,0.11033523577912874,2.515109692822625,2476548.0,-6.537336131605464,-0.13730341942079916,-0.5075613633004665,2480093.0,,,,,2533.367912297444,2529.822912297444,
162,9,32,f,1,4,154.0,2,1,low,9 + 8 + 1 + 1 - 1,18,18,19,17,2542.908462599968,2544.9436526999343,2546.458763099974,2551.4768336999696,2552.11517419992,2552.1151789999567,2553.631751799956,2554.648483600002,q,18.0,0.6383404999505728,1,+1,694,29.043260133029403,-0.04855309555782883,0.07002536221383204,2489643.0,-15.232113579915229,0.22253876215412927,0.11249835121120899,2493176.0,,,,,2546.450912297444,2542.917912297444,
163,9,32,f,1,4,155.0,3,3,high,8 - 7 + 9 + 1 + 4,15,15,14,16,2556.187436599983,2558.2134510999317,2559.7285392999183,2564.748745399993,2565.267234699917,2565.267239799956,2566.806197399972,2567.823881899938,q,15.0,0.5184892999241129,1,+10,704,17.26260399014656,-0.05354906477173982,-0.19005524032272314,2502913.0,25.624669312988175,-0.12084222865158134,-0.016441812906362596,2506448.0,,,,,2559.722912297444,2556.187912297444,
164,9,32,f,1,4,156.0,4,3,low,3 + 8 - 7 - 1 + 9,12,12,13,14,2569.340329599916,2571.364475099952,2572.8792597999563,2577.8977944999933,2578.3871903999243,2578.3871952999616,2579.903506999952,2580.9203730999725,q,12.0,0.4893958999309689,1,+1,705,-6.293610698316037,-0.3484597655825361,0.11697347707222061,2516064.0,23.026109811633834,0.008383788468714126,0.0622467644064324,2519597.0,,,,,2572.8719122974444,2569.338912297444,
165,9,32,f,1,4,157.0,5,1,low,8 - 1 + 1 + 6 + 1,15,14,15,16,2582.4382163999835,2584.464997999952,2585.9800868999446,2590.998169499915,2591.475233999896,2591.475238899933,2592.9916824999964,2594.008588799974,w,15.0,0.47706449998077,1,+1,706,-27.81208724281895,0.6076968612893419,-0.17913044030055714,2529164.0,8.598974254134482,0.1040821192107022,-0.10613294082116065,2532697.0,,,,,2585.9719122974443,2582.4389122974444,
166,9,32,f,1,4,158.0,6,4,low,3 + 8 - 7 + 9 - 5,8,7,8,9,2595.525244399905,2597.5532013999764,2599.0683151999256,2604.086910199956,2605.0193156999303,2605.019321199972,2606.5350870999973,2607.553078899975,w,8.0,0.9324054999742656,1,+1,707,-14.319678761453666,0.06296275838360499,-0.05726545612913525,2542252.0,-18.57177855929597,0.23639800543311962,0.09982055525954259,2545786.0,,,,,2599.0609122974442,2595.526912297444,
167,9,32,f,1,4,159.0,7,4,high,5 + 8 - 6 + 7 + 4,18,18,17,19,2609.0697953999043,2611.09600879997,2612.610915499972,2617.6313245999627,2618.219243899919,2618.2192490999587,2619.735473299981,2620.752544399933,q,18.0,0.5879192999564111,1,+10,717,18.735824966499074,-0.0858526631560177,0.1608662895462687,2555795.0,-28.93177513324034,0.08221134056209278,0.016800539259791192,2559330.0,,,,,2612.604912297444,2609.0699122974443,
168,9,32,f,1,4,160.0,8,2,low,2 + 1 + 9 - 4 + 1,9,8,11,9,2622.269153199973,2624.29692559992,2625.8127430999884,2630.8307278999127,2631.515252399957,2631.515257399995,2633.0447659000056,2634.068323599989,e,9.0,0.6845245000440627,1,+1,718,-17.657759234285066,-0.158833939333888,0.054797244496464836,2568996.0,-26.29564391658766,-0.05000614302004314,0.11063787856076757,2572530.0,,,,,2625.8049122974444,2622.2709122974443,
169,9,32,f,1,4,161.0,9,1,high,7 + 1 + 4 + 1 - 1,12,12,13,11,2635.603557099937,2637.6383844999364,2639.1526768999174,2644.182321299915,2644.739319699933,2644.7393248999724,2646.255905699916,2647.273146099993,q,12.0,0.5569984000176191,1,+10,728,4.838219759888755,-0.7344457208926083,0.09468547268950389,2582337.0,-5.782298076275681,-1.7766799452095094,-9.82139559289534,2585881.0,,,,,2639.155912297444,2635.611912297444,
170,9,32,f,1,4,162.0,10,1,high,2 + 1 + 9 + 1 + 1,14,13,14,12,2648.789350599982,2650.8148865998955,2652.329961399897,2657.357343199896,2657.851371399942,2657.851376699982,2659.368196399999,2660.386596599943,w,14.0,0.4940282000461593,1,+10,738,-19.647183602592886,-0.14459448258691898,-0.026125584757255016,2595514.0,18.46229707980708,0.2805046690544848,-0.017779855871665085,2599056.0,,,,,2652.3309122974442,2648.7889122974443,
171,9,32,f,1,4,163.0,11,2,low,3 + 1 + 8 - 5 - 1,6,7,6,5,2661.902498499956,2663.930048799957,2665.445904399967,2670.4640259000007,2670.963339599897,2670.963344899937,2672.4794237999013,2673.4961243999423,w,6.0,0.4993136998964473,1,+1,739,3.7075526417139226,0.5043382475531417,-0.0006671795241151024,2608628.0,-14.465072849092149,0.14672736790460394,0.037531243288082106,2612163.0,,,,,2665.437912297444,2661.9029122974443,
172,9,32,f,1,4,164.0,12,4,low,7 + 6 - 9 + 8 - 3,9,8,9,7,2675.012835499947,2677.0405688999454,2678.555454999907,2683.5738289,2683.987249400001,2683.987254699925,2685.503634099965,2686.5204014999326,w,9.0,0.4134205000009388,1,+1,740,1.4537824551412708,0.6865445202363292,0.20730352954975917,2621739.0,0.15612845580774604,0.16132965582341763,0.10126669728439408,2625273.0,,,,,2678.5479122974443,2675.013912297444,
173,9,32,f,1,4,165.0,13,2,high,7 + 1 + 9 - 1 - 8,8,8,6,7,2688.037496999954,2690.0614863999654,2691.5761072000023,2696.6192911999533,2698.0913797999965,2698.091384899919,2699.6078344999114,2700.625096999924,q,8.0,1.4720886000432074,1,+10,750,-9.08306857172127,-0.031276889885646586,-0.010371172797243977,2634760.0,26.186602566182575,0.07714106800234699,0.07853258573476496,2638318.0,,,,,2691.5929122974444,2688.0349122974444,
174,9,32,f,1,4,166.0,14,1,high,7 - 1 + 9 + 1 - 1,15,15,13,14,2702.141846499988,2704.168484499911,2705.683761399938,2710.702049299958,2711.211322499905,2711.21132709994,2712.7272913999623,2713.74443099997,q,15.0,0.5092731999466196,1,+10,760,17.29499362721735,0.06841488790675632,0.003907821064148109,2648867.0,-33.27258382759663,0.09535723049618072,0.08248731592692082,2652401.0,,,,,2705.675912297444,2702.1419122974444,
175,9,32,f,1,4,167.0,15,4,high,3 + 9 - 5 + 6 + 8,21,22,21,23,2715.2605785999917,2717.285953099956,2718.800778799923,2723.8188121999847,2724.6112745999126,2724.61127959995,2726.12800129992,2727.145204399945,e,23.0,0.7924623999278992,0,+0,760,-64.67924557865159,0.3078465516304214,0.08311859079792372,2661984.0,18.924580930625904,-0.34502553307850725,0.002670850190182872,2665517.0,,,,,2718.791912297444,2715.258912297444,
176,9,32,f,1,4,168.0,16,3,low,6 - 1 + 7 - 8 + 9,13,12,11,13,2728.6624741998967,2730.688528699917,2732.20402789989,2737.269992799964,2737.9394766999176,2737.9394821999595,2739.474272299907,2740.50440049998,e,13.0,0.6694838999537751,1,+1,761,-24.022688074499136,1.5412580097116093,5.762773965644238,2675387.0,11.650896217099906,-0.31973531189661,-0.40511728553679993,2678969.0,,,,,2732.2439122974442,2728.6619122974444,
177,9,32,f,1,4,169.0,17,4,high,8 + 7 - 4 + 5 + 9,25,25,24,26,2742.021171499975,2744.047497099964,2745.5623371999245,2750.580741399899,2751.715343999909,2751.7153493999504,2753.231975100003,2754.249486799934,q,25.0,1.134602600010112,1,+10,771,-25.490184509630446,-0.015057835181979673,0.1564378267682045,2688746.0,23.049752528109373,-0.04848567623047151,0.08128117967897275,2692279.0,,,,,2745.553912297444,2742.0209122974443,
178,9,32,f,1,4,170.0,18,4,high,8 + 4 - 5 + 7 - 6,8,8,6,7,2755.7657918999903,2757.7921003999654,2759.3069503000006,2764.326394499978,2766.211468799971,2766.211473999894,2767.756722299964,2768.774281199905,q,8.0,1.8850742999929933,1,+10,781,3.660124270779109,0.4251109263372488,-0.08423938289762467,2702490.0,27.532586803896542,0.0756195790960823,0.06031830510171243,2706024.0,,,,,2759.298912297444,2755.764912297444,
179,9,32,f,1,4,171.0,19,2,low,9 + 5 - 6 + 1 - 1,8,9,7,8,2770.2910407999298,2772.3178129999437,2773.8328887999523,2778.850667699938,2779.355446300004,2779.355451399926,2780.871916599921,2781.888699100004,e,8.0,0.5047786000650376,1,+1,782,-13.027433187207553,0.016268563527339186,0.14081475906094987,2717016.0,-20.656174466262556,-0.10181780249814265,-0.01652012431929273,2720549.0,,,,,2773.823912297444,2770.2909122974443,
180,9,32,f,1,4,172.0,20,4,high,4 + 7 - 8 + 9 - 4,8,7,9,8,2783.4051355998963,2785.467753499979,2786.9827246998902,2792.002589599928,2792.5553995999508,2792.5554047999904,2794.071825299994,2795.089008699986,e,8.0,0.5528100000228733,1,+10,792,29.626949592509973,0.04700205557161796,0.27370337185998106,2730166.0,2.9977468148606903,-0.1839838349822469,0.07941587987785081,2733701.0,,,,,2786.975912297444,2783.4409122974444,
181,9,32,f,1,4,173.0,21,2,high,8 + 1 + 7 + 1 - 4,13,13,12,14,2796.605597899994,2798.6324925998924,2800.1476778999204,2805.213000799995,2805.755375799956,2805.755384699907,2807.272009899956,2808.2894760000054,q,13.0,0.5423749999608845,1,+10,802,-2.7769588101569127,0.18988493141821206,0.038028739506856146,2743331.0,-7.117199117034268,-0.10146527393687865,0.17973178785634447,2746910.0,,,,,2800.184912297444,2796.6059122974443,
182,9,32,f,1,4,174.0,22,1,low,6 + 1 + 1 + 9 - 1,16,14,16,15,2809.8058203998958,2811.8304498998914,2813.345527999918,2818.3650102999527,2819.4673741000006,2819.4673788999207,2820.9836605999158,2822.0273734999355,w,16.0,1.1023638000478968,1,+1,803,12.865464244899956,0.10677777626870677,0.007661826573378772,2756529.0,-17.679130862425772,0.1891554614238311,0.022312818076390295,2760063.0,,,,,2813.3379122974443,2809.803912297444,
183,9,32,f,1,4,175.0,23,4,low,8 + 4 + 7 - 5 - 6,8,8,6,9,2823.544134899974,2825.571037099929,2827.086050199927,2832.104321099934,2833.268242299906,2833.268247699947,2834.7844572999747,2835.801786399912,w,6.0,1.16392119997181,0,+0,803,1.7434931021518434,3.9283468992467308,7.438594119695383,2770269.0,12.038062171688347,-0.28350812766105404,0.018464586002696404,2773802.0,,,,,2827.0769122974443,2823.543912297444,
184,9,32,f,1,4,176.0,24,4,high,4 + 7 + 8 - 3 + 9,25,26,24,25,2837.3184540999355,2839.3460296998965,2840.8611385999247,2845.902793999994,2846.6594664999284,2846.659471699968,2848.1761049999623,2849.193218200002,w,24.0,0.7566724999342114,0,+0,803,10.428733363397079,0.15249478722097942,0.05849334615046797,2784044.0,-0.3434981394082115,0.11469209307584594,0.2078300583693331,2787601.0,,,,,2840.8759122974443,2837.318912297444,
185,9,32,f,1,4,177.0,25,4,high,7 + 6 - 9 + 8 - 3,9,7,9,8,2850.7101417999947,2852.733364899992,2854.248501599999,2859.2829016000032,2859.731519199908,2859.7315247999504,2861.247927699937,2862.26405499992,w,9.0,0.4486175999045372,1,+10,813,-3.5157578118617216,0.7317335793710411,0.42743174053096,2797431.0,66.32225100418785,-0.6539072013993206,0.15297702638388766,2800981.0,,,,,2854.2559122974444,2850.7059122974442,
186,9,32,f,1,4,178.0,26,3,high,4 + 7 + 1 + 9 - 5,16,18,16,17,2863.780943699996,2865.804445199901,2867.319493399933,2872.3431192999706,2873.579451399972,2873.579456899897,2875.0953239999944,2876.1391950999387,e,17.0,1.2363321000011638,0,+0,813,-0.19878028189804198,-0.1488563284242428,-0.04928004766764338,2810502.0,-74.73772790806427,-0.2050290083619073,0.0032086036313245803,2814041.0,,,,,2867.3159122974444,2863.776912297444,
187,9,32,f,1,4,179.0,27,3,low,7 - 5 + 9 + 1 - 4,8,8,7,9,2877.655894699972,2879.678021,2881.193099399912,2886.2115337,2886.81139129994,2886.8113963999785,2888.3277474999195,2889.344446599949,q,8.0,0.599857599940151,1,+1,814,-54.506046996969474,0.05566564439972188,-0.1263192444069272,2824376.0,-45.115302477148916,0.4919159464164906,-0.03134989316947845,2827909.0,,,,,2881.1839122974443,2877.6509122974444,
188,9,32,f,1,4,180.0,28,2,low,9 + 4 + 5 + 1 - 1,18,18,17,19,2890.8618395999074,2892.88618209993,2894.401199599961,2899.4192164998967,2899.9954085999634,2899.9954135000007,2901.511733099934,2902.528553799959,q,18.0,0.5761921000666916,1,+1,815,1.6616474566430064,0.8341433350392875,2.365784115453315,2837584.0,-20.502521484247964,0.2374568918576534,-0.23490602655376613,2841116.0,,,,,2894.390912297444,2890.858912297444,
189,9,32,f,1,4,181.0,29,4,low,7 + 8 - 4 + 6 - 5,12,13,12,11,2904.0453000999987,2906.072632199968,2907.587370099965,2912.606123799924,2913.8673683999805,2913.8673757999204,2915.383696899982,2916.4007434999803,q,13.0,1.2612446000566706,0,+0,815,23.252360075407033,-0.881137014082666,-0.0955483823342671,2850770.0,49.330435688079454,-0.32562749460448837,0.16120654983931826,2854303.0,,,,,2907.577912297444,2904.044912297444,
190,9,32,f,1,4,182.0,30,3,low,3 + 8 + 1 + 5 - 9,8,8,7,9,2917.91698739992,2919.9449996999465,2921.459852,2926.478088499978,2926.995468499954,2926.9954735999927,2928.5119589999085,2929.528793599922,q,8.0,0.5173799999756739,1,+1,816,20.159665976054633,-0.058332760608730716,-0.028204491430664502,2864642.0,-11.814270167967173,-0.21498299828297984,-0.11242117387150108,2868175.0,,,,,2921.4499122974444,2917.916912297444,
191,9,32,f,1,4,183.0,31,4,low,9 + 8 - 5 - 7 + 6,11,10,11,13,2931.04598169995,2933.0728911999613,2934.587777199922,2939.6077984999865,2940.123512399965,2940.1235177000053,2941.640166500001,2942.656934999977,w,11.0,0.5157138999784365,1,+1,817,21.163351415365916,0.3930088004625456,-0.002161521134757427,2877770.0,-43.19259378526922,0.5193129784294399,-0.05715577022185725,2881305.0,,,,,2934.579912297444,2931.044912297444,
192,9,32,f,1,4,184.0,32,3,high,4 + 1 + 8 + 9 - 5,17,19,18,17,2944.2400442999788,2946.2666000999743,2947.781359899905,2952.799523799913,2953.219517399906,2953.2195226999465,2954.73563869996,2955.7527448999463,e,17.0,0.4199935999931767,1,+10,827,48.190436157810495,0.23906464454492582,-0.059854463599099184,2890964.0,-23.98559512891294,0.1420944900849186,0.14274149452124685,2894497.0,,,,,2947.771912297444,2944.238912297444,
193,9,32,f,1,4,185.0,33,4,high,5 + 7 - 4 + 6 + 9,23,24,25,23,2957.269087399938,2959.29482499999,2960.809977900004,2965.82842159993,2966.6275735999225,2966.627578999964,2968.144162399927,2969.1614136999706,e,23.0,0.7991519999923185,1,+10,837,-46.11300324041797,0.24135118180528847,0.16885449208697767,2903992.0,-7.659901019883417,-0.1319251958390888,-0.012510076758647015,2907525.0,,,,,2960.7999122974443,2957.2669122974444,
194,9,32,f,1,4,186.0,34,3,low,5 + 6 + 7 - 1 - 9,8,8,7,9,2970.6781055999454,2972.7028701999225,2974.218036999926,2979.237364899949,2980.723539599916,2980.7235451999586,2982.2400687999325,2983.329138599918,w,7.0,1.4861746999667955,0,+0,837,-78.97605342326729,-0.023956781758107226,0.12486869952172652,2917400.0,-6.365756921585174,-0.5072406996102319,0.025287397613218854,2920933.0,,,,,2974.207912297444,2970.6749122974443,
195,9,32,f,1,4,187.0,35,3,high,7 + 1 + 9 + 5 - 6,16,16,14,15,2984.8558151999023,2986.882729699952,2988.3979146999773,2993.4160760999657,2994.2194460999453,2994.219450799981,2995.735838399967,2996.7530987999635,q,16.0,0.8033699999796227,1,+10,847,20.67338856521746,0.13637906421943446,0.8526420639822414,2931580.0,-28.42546704558448,-0.09771566580886004,-0.29887172988201205,2935113.0,,,,,2988.387912297444,2984.854912297444,
196,9,32,f,1,4,188.0,36,4,high,2 + 9 - 4 + 8 + 7,22,23,22,21,2998.2853770999936,3000.3117002999643,3001.8268008999294,3006.845542399911,3007.7875642,3007.787569799926,3009.3040994999465,3010.3215124999406,w,22.0,0.9420218000886962,1,+10,857,-17.02549337487638,0.5938836747827727,2.3348499614919245,2945009.0,24.627509801124653,-0.5731234258817959,-1.0318171351140721,2948542.0,,,,,3001.816912297444,2998.283912297444,
197,9,32,f,1,4,189.0,37,1,high,3 + 1 + 9 + 1 - 1,13,12,14,13,3011.839399499935,3013.865609499975,3015.380655199988,3020.398446899955,3021.067419899977,3021.0674247998977,3022.583933099988,3023.602217799984,e,13.0,0.6689730000216514,1,+10,867,-21.746577030138035,-0.08559560114837916,0.05613156196329605,2958562.0,7.325323572786003,0.1074880793907047,-0.04667008272553441,2962095.0,,,,,3015.369912297444,3011.836912297444,
198,9,32,f,1,5,190.0,0,4,low,3 + 9 - 5 + 8 - 7,8,9,7,8,3061.279651299934,3063.307219099952,3064.8223409999628,3069.842660699971,3070.491494699964,3070.4915040999185,3072.0081183,3073.0250054999487,e,8.0,0.6488339999923483,1,+1,868,-19.492413162958485,-0.19390412898827325,1.125076869810175,3008003.0,-10.06000365779099,-0.02887653476344454,-0.5460500603782004,3011539.0,,,,,3064.8139122974444,3061.2779122974443,
199,9,32,f,1,5,191.0,1,4,high,5 + 7 - 4 + 8 + 6,22,22,23,24,3074.5417143999366,3076.567867399892,3078.082984699984,3083.1034926999127,3084.3555841998896,3084.3555908999406,3085.8721273998963,3086.888954299968,e,24.0,1.2520914999768138,0,+0,868,-1.3664105140900913,0.10515069010849976,-0.17503551557344466,3021264.0,3.7128795586425944,0.27923210582611935,-0.5111977866326538,3024799.0,,,,,3078.073912297444,3074.5389122974443,
